"trial_type","trial_index","time_elapsed","internal_node_id","subject_id","study_id","win_chance","device_type","blur_count","fullscreen_exit_count","failed_attention_checks","success","timeout","failed_images","failed_audio","failed_video","phase","rt","stimulus","response","question_order","view_history","trial_name","value","task","block_number","trial_number","choice_key","choice_location","choice_color","choice_key_oneback","choice_location_oneback","choice_color_oneback","unavailable_key","unavailable_location","unavailable_color","unavailable_key_oneback","unavailable_location_oneback","unavailable_color_oneback","reward_oneback","reward","total_score","total_score_oneback","coin_earned","coin_earned_oneback","is_choice_valid","is_timeout_reached"
"pavlovia","0","945","0.0-0.0","638df25c28a73c52e405ef95","not_provided","0.5","desktop","0","0","0","","","","","","","","","","","","","","","","","","","","","","","","","","","","","","","","","","","",""
"preload","1","1341","0.0-2.0","638df25c28a73c52e405ef95","not_provided","0.5","desktop","0","0","0","true","false","[]","[]","[]","","","","","","","","","","","","","","","","","","","","","","","","","","","","","","",""
"html-keyboard-response","2","9163","0.0-3.0-0.0","638df25c28a73c52e405ef95","not_provided","0.5","desktop","0","0","0","","","","","","captcha","","","","","","","","","","","","","","","","","","","","","","","","","","","","","",""
"fullscreen","3","15848","0.0-4.0","638df25c28a73c52e405ef95","not_provided","0.5","desktop","0","0","0","true","","","","","setup","","","","","","","","","","","","","","","","","","","","","","","","","","","","","",""
"html-button-response","4","19850","0.0-5.0-0.0","638df25c28a73c52e405ef95","not_provided","0.5","desktop","0","0","0","","","","","","screening","3999","
            <div style=""max-width: 600px; text-align: left; font-family: sans-serif; font-size: 1.1rem;"">
                <b>Before we start, we need to ask you some personal questions.</b><br><br>
                Please note that all data is anonymized.
                You will be paid for your time regardless of your answers.
            </div>","0","","","","","","","","","","","","","","","","","","","","","","","","","","",""
"survey-multi-choice","5","35297","0.0-5.0-1.0","638df25c28a73c52e405ef95","not_provided","0.5","desktop","0","0","0","","","","","","screening","15444","","{""psychiatric"":""No"",""schizophrenia"":""No"",""addiction"":""No"",""asd"":""No"",""adhd"":""No"",""dementia"":""No"",""head_injury"":""No""}","[0,1,2,3,4,5,6]","","","","","","","","","","","","","","","","","","","","","","","","","",""
"html-button-response","6","38796","0.0-6.0-0.0-0.0","638df25c28a73c52e405ef95","not_provided","0.5","desktop","0","0","0","","","","","","color_blindness","3496","<p>Before we begin, we need to check your color vision.<br>Please select the digit you see in the picture.</p>","0","","","","","","","","","","","","","","","","","","","","","","","","","","",""
"survey-multi-choice","7","43079","0.0-6.0-0.0-1.0","638df25c28a73c52e405ef95","not_provided","0.5","desktop","0","0","0","","","","","","color_blindness","4281","","{""color_blind1"":""3""}","[0]","","","","","","","","","","","","","","","","","","","","","","","","","",""
"survey-multi-choice","8","46495","0.0-6.0-0.0-2.0","638df25c28a73c52e405ef95","not_provided","0.5","desktop","0","0","0","","","","","","color_blindness","3413","","{""color_blind2"":""5""}","[0]","","","","","","","","","","","","","","","","","","","","","","","","","",""
"survey-html-form","9","53231","0.0-7.0-0.0","638df25c28a73c52e405ef95","not_provided","0.5","desktop","0","0","0","","","","","","demographics","6733","","{""age"":""61"",""sex"":""female""}","","","","","","","","","","","","","","","","","","","","","","","","","","",""
"instructions","10","144180","0.0-8.0-0.0-0.0-0.0","638df25c28a73c52e405ef95","not_provided","0.5","desktop","0","0","0","","","","","","luck_game","90951","","","","[{""page_index"":0,""viewing_time"":10046},{""page_index"":1,""viewing_time"":8684},{""page_index"":2,""viewing_time"":6633},{""page_index"":3,""viewing_time"":19868},{""page_index"":4,""viewing_time"":6500},{""page_index"":5,""viewing_time"":9500},{""page_index"":6,""viewing_time"":10850},{""page_index"":7,""viewing_time"":7934},{""page_index"":8,""viewing_time"":5534},{""page_index"":9,""viewing_time"":5401}]","","","","","","","","","","","","","","","","","","","","","","","","",""
"html-button-response","11","156812","0.0-8.0-0.0-1.0","638df25c28a73c52e405ef95","not_provided","0.5","desktop","0","0","0","","","","","","luck_game","12630","<div style=""max-width:640px; margin:0 auto; text-align:left;
                               font-family:sans-serif; color:white; padding:10px;"">
            <h3 style=""color:#3498db; text-align:center;"">Quick Reminder</h3>
            <ul style=""line-height:2.1; font-size:1.05em;"">
                <li>There are <strong>3 luck machines</strong>:
                    <span style=""color:#5599ff""><strong>Blue</strong></span> (&uarr; Up),
                    <span style=""color:#55cc55""><strong>Green</strong></span> (&larr; Left),
                    <span style=""color:#ff5555""><strong>Red</strong></span> (&rarr; Right)</li>
                <li>Each turn, <strong>2 machines are READY</strong> and 1 is
                    <strong>unavailable</strong> (shown as a colored outline)</li>
                <li>Press the corresponding arrow key to activate a READY machine</li>
                <li>Activating an <strong>unavailable</strong> machine: lose your turn + time penalty</li>
                <li>Activating a READY machine: <strong class=""win-text"">50% win +&pound;0.05</strong>
                    / <strong class=""lose-text"">50% lose &minus;&pound;0.05</strong></li>
                <li><strong>Time limit:</strong> 6 seconds per turn &mdash; don&rsquo;t miss your chance!</li>
                <li><strong>Goal:</strong> Quickly activate READY machines, avoid unavailable ones</li>
            </ul>
        </div>","0","","","","","","","","","","","","","","","","","","","","","","","","","","",""
"survey-multi-choice","12","206880","0.0-8.0-0.0-2.0","638df25c28a73c52e405ef95","not_provided","0.5","desktop","0","0","0","","","","","","luck_game","50065","","{""q_total_machines"":""3"",""q_ready_machines"":""2"",""q_blue_key"":""↑ Up arrow key"",""q_red_key"":""→ Right arrow key"",""q_outcome"":""The red machine is unavailable. I will lose my turn and chance to win coins, and get a time penalty."",""q_ready_outcome"":""I will either win a coin (+0.05£) or lose a coin (−0.05£)."",""q_goal"":""My goal is to quickly activate available luck machines, avoiding unavailable machines. If I am lucky, I will get rewarded."",""q_win_rates"":""Red: 50% win rate — Blue: 50% win rate — Green: 50% win rate""}","[0,1,2,3,4,5,6,7]","","luck_game_quiz","","","","","","","","","","","","","","","","","","","","","","","",""
"html-keyboard-response","13","212242","0.0-8.0-1.0","638df25c28a73c52e405ef95","not_provided","0.5","desktop","0","0","0","","","","","","luck_game","5360","
            <div style=""max-width: 600px; margin: 0 auto; text-align: center; font-family: sans-serif;"">
                <h2 style=""color: #3498db;"">Good job, you learned the instructions!</h2>
                <p>We will now move to a short <strong>training phase</strong> to get you familiar with the game.</p>
                <p>Your score will <strong>not</strong> be counted during training.</p>
                <br>
                <p><strong>Press Space to start training.</strong></p>
            </div>"," ","","","","","","","","","","","","","","","","","","","","","","","","","","",""
"call-function","14","212243","0.0-8.0-2.0","638df25c28a73c52e405ef95","not_provided","0.5","desktop","0","0","0","","","","","","luck_game","","","","","","","","","","","","","","","","","","","","","","","","","","","","","",""
"html-keyboard-response","15","214880","0.0-8.0-3.0","638df25c28a73c52e405ef95","not_provided","0.5","desktop","0","0","0","","","","","","luck_game","2636","<div class=""experiment-container""><div class=""center-zone""><div class=""cross""></div><div class=""triangle-grid""><div class=""machine top-center blue""></div><div class=""machine bottom-left green-outline""></div><div class=""machine bottom-right red""></div></div></div></div>","arrowup","","","","","gambling_choice","training","1","arrowup","top-center","blue","null","null","null","arrowleft","bottom-left","green","null","null","null","null","1","0","0","0.05","null","true","false"
"html-keyboard-response","16","214984","0.0-8.0-4.0-0.0","638df25c28a73c52e405ef95","not_provided","0.5","desktop","0","0","0","","","","","","luck_game","null","<div class=""experiment-container""><div class=""center-zone""><div class=""cross""></div><div class=""triangle-grid""><div class=""machine top-center blue""></div><div class=""machine bottom-left green-outline""></div><div class=""machine bottom-right red""></div></div></div></div>","null","","","","","","","","","","","","","","","","","","","","","","","","","","",""
"html-keyboard-response","17","215486","0.0-8.0-5.0-0.0","638df25c28a73c52e405ef95","not_provided","0.5","desktop","0","0","0","","","","","","luck_game","null","<div class=""experiment-container""><div class=""center-zone""><div class=""cross""></div></div></div>","null","","","","","","","","","","","","","","","","","","","","","","","","","","",""
"html-keyboard-response","18","216490","0.0-8.0-6.0-0.0","638df25c28a73c52e405ef95","not_provided","0.5","desktop","0","0","0","","","","","","luck_game","null","<div class=""experiment-container""><div class=""center-zone""><div class=""cross""></div>
                <div style=""position: absolute; z-index: 10; display: flex; flex-direction: column; align-items: center; justify-content: center;"">
                    <div class=""win-text"" style=""font-size: 48px; font-weight: bold; margin-bottom: 20px; text-shadow: 2px 2px 4px #000;"">WIN</div>
                    <img src=""images/coin_reward.png"" class=""reward-img"" style=""background-color: black; border-radius: 50%;"">
                    <div class=""win-text"" style=""font-size: 48px; font-weight: bold; margin-top: 20px; text-shadow: 2px 2px 4px #000;"">+0.05&pound;</div>
                </div></div></div>","null","","","","","","","","","","","","","","","","","","","","","","","","","","",""
"html-keyboard-response","19","217953","0.0-8.0-9.0","638df25c28a73c52e405ef95","not_provided","0.5","desktop","0","0","0","","","","","","luck_game","1461","<div class=""experiment-container""><div class=""center-zone""><div class=""cross""></div><div class=""triangle-grid""><div class=""machine top-center blue""></div><div class=""machine bottom-left green-outline""></div><div class=""machine bottom-right red""></div></div></div></div>","arrowright","","","","","gambling_choice","training","2","arrowright","bottom-right","red","arrowup","top-center","blue","arrowleft","bottom-left","green","arrowleft","bottom-left","green","1","1","0","0","0.05","0.05","true","false"
"html-keyboard-response","20","218056","0.0-8.0-10.0-0.0","638df25c28a73c52e405ef95","not_provided","0.5","desktop","0","0","0","","","","","","luck_game","null","<div class=""experiment-container""><div class=""center-zone""><div class=""cross""></div><div class=""triangle-grid""><div class=""machine top-center blue""></div><div class=""machine bottom-left green-outline""></div><div class=""machine bottom-right red""></div></div></div></div>","null","","","","","","","","","","","","","","","","","","","","","","","","","","",""
"html-keyboard-response","21","218558","0.0-8.0-11.0-0.0","638df25c28a73c52e405ef95","not_provided","0.5","desktop","0","0","0","","","","","","luck_game","null","<div class=""experiment-container""><div class=""center-zone""><div class=""cross""></div></div></div>","null","","","","","","","","","","","","","","","","","","","","","","","","","","",""
"html-keyboard-response","22","219560","0.0-8.0-12.0-0.0","638df25c28a73c52e405ef95","not_provided","0.5","desktop","0","0","0","","","","","","luck_game","null","<div class=""experiment-container""><div class=""center-zone""><div class=""cross""></div>
                <div style=""position: absolute; z-index: 10; display: flex; flex-direction: column; align-items: center; justify-content: center;"">
                    <div class=""win-text"" style=""font-size: 48px; font-weight: bold; margin-bottom: 20px; text-shadow: 2px 2px 4px #000;"">WIN</div>
                    <img src=""images/coin_reward.png"" class=""reward-img"" style=""background-color: black; border-radius: 50%;"">
                    <div class=""win-text"" style=""font-size: 48px; font-weight: bold; margin-top: 20px; text-shadow: 2px 2px 4px #000;"">+0.05&pound;</div>
                </div></div></div>","null","","","","","","","","","","","","","","","","","","","","","","","","","","",""
"html-keyboard-response","23","220891","0.0-8.0-15.0","638df25c28a73c52e405ef95","not_provided","0.5","desktop","0","0","0","","","","","","luck_game","1329","<div class=""experiment-container""><div class=""center-zone""><div class=""cross""></div><div class=""triangle-grid""><div class=""machine top-center blue-outline""></div><div class=""machine bottom-left green""></div><div class=""machine bottom-right red""></div></div></div></div>","arrowleft","","","","","gambling_choice","training","3","arrowleft","bottom-left","green","arrowright","bottom-right","red","arrowup","top-center","blue","arrowleft","bottom-left","green","1","1","0","0","0.05","0.05","true","false"
"html-keyboard-response","24","220994","0.0-8.0-16.0-0.0","638df25c28a73c52e405ef95","not_provided","0.5","desktop","0","0","0","","","","","","luck_game","null","<div class=""experiment-container""><div class=""center-zone""><div class=""cross""></div><div class=""triangle-grid""><div class=""machine top-center blue-outline""></div><div class=""machine bottom-left green""></div><div class=""machine bottom-right red""></div></div></div></div>","null","","","","","","","","","","","","","","","","","","","","","","","","","","",""
"html-keyboard-response","25","221497","0.0-8.0-17.0-0.0","638df25c28a73c52e405ef95","not_provided","0.5","desktop","0","0","0","","","","","","luck_game","null","<div class=""experiment-container""><div class=""center-zone""><div class=""cross""></div></div></div>","null","","","","","","","","","","","","","","","","","","","","","","","","","","",""
"html-keyboard-response","26","222501","0.0-8.0-18.0-0.0","638df25c28a73c52e405ef95","not_provided","0.5","desktop","0","0","0","","","","","","luck_game","null","<div class=""experiment-container""><div class=""center-zone""><div class=""cross""></div>
                <div style=""position: absolute; z-index: 10; display: flex; flex-direction: column; align-items: center; justify-content: center;"">
                    <div class=""win-text"" style=""font-size: 48px; font-weight: bold; margin-bottom: 20px; text-shadow: 2px 2px 4px #000;"">WIN</div>
                    <img src=""images/coin_reward.png"" class=""reward-img"" style=""background-color: black; border-radius: 50%;"">
                    <div class=""win-text"" style=""font-size: 48px; font-weight: bold; margin-top: 20px; text-shadow: 2px 2px 4px #000;"">+0.05&pound;</div>
                </div></div></div>","null","","","","","","","","","","","","","","","","","","","","","","","","","","",""
"html-keyboard-response","27","223397","0.0-8.0-21.0","638df25c28a73c52e405ef95","not_provided","0.5","desktop","0","0","0","","","","","","luck_game","895","<div class=""experiment-container""><div class=""center-zone""><div class=""cross""></div><div class=""triangle-grid""><div class=""machine top-center blue""></div><div class=""machine bottom-left green""></div><div class=""machine bottom-right red-outline""></div></div></div></div>","arrowleft","","","","","gambling_choice","training","4","arrowleft","bottom-left","green","arrowleft","bottom-left","green","arrowright","bottom-right","red","arrowup","top-center","blue","1","1","0","0","0.05","0.05","true","false"
"html-keyboard-response","28","223500","0.0-8.0-22.0-0.0","638df25c28a73c52e405ef95","not_provided","0.5","desktop","0","0","0","","","","","","luck_game","null","<div class=""experiment-container""><div class=""center-zone""><div class=""cross""></div><div class=""triangle-grid""><div class=""machine top-center blue""></div><div class=""machine bottom-left green""></div><div class=""machine bottom-right red-outline""></div></div></div></div>","null","","","","","","","","","","","","","","","","","","","","","","","","","","",""
"html-keyboard-response","29","224003","0.0-8.0-23.0-0.0","638df25c28a73c52e405ef95","not_provided","0.5","desktop","0","0","0","","","","","","luck_game","null","<div class=""experiment-container""><div class=""center-zone""><div class=""cross""></div></div></div>","null","","","","","","","","","","","","","","","","","","","","","","","","","","",""
"html-keyboard-response","30","225006","0.0-8.0-24.0-0.0","638df25c28a73c52e405ef95","not_provided","0.5","desktop","0","0","0","","","","","","luck_game","null","<div class=""experiment-container""><div class=""center-zone""><div class=""cross""></div>
                <div style=""position: absolute; z-index: 10; display: flex; flex-direction: column; align-items: center; justify-content: center;"">
                    <div class=""win-text"" style=""font-size: 48px; font-weight: bold; margin-bottom: 20px; text-shadow: 2px 2px 4px #000;"">WIN</div>
                    <img src=""images/coin_reward.png"" class=""reward-img"" style=""background-color: black; border-radius: 50%;"">
                    <div class=""win-text"" style=""font-size: 48px; font-weight: bold; margin-top: 20px; text-shadow: 2px 2px 4px #000;"">+0.05&pound;</div>
                </div></div></div>","null","","","","","","","","","","","","","","","","","","","","","","","","","","",""
"call-function","31","225006","0.0-8.0-27.0","638df25c28a73c52e405ef95","not_provided","0.5","desktop","0","0","0","","","","","","luck_game","","","","","","","","","","","","","","","","","","","","","","","","","","","","","",""
"html-keyboard-response","32","227140","0.0-8.0-28.0","638df25c28a73c52e405ef95","not_provided","0.5","desktop","0","0","0","","","","","","luck_game","2132","
            <div style=""max-width: 600px; margin: 0 auto; text-align: center; font-family: sans-serif;"">
                <h2 style=""color: #3498db;"">Training Complete</h2>
                <p>You will now start the real game.</p>
                <br>
                <p><strong>Press Space to begin.</strong></p>
            </div>"," ","","","","","","","","","","","","","","","","","","","","","","","","","","",""
"html-keyboard-response","33","228169","0.0-8.0-29.0","638df25c28a73c52e405ef95","not_provided","0.5","desktop","0","0","0","","","","","","luck_game","1028","<div id=""score-counter"">TOTAL SCORE: &pound;0.00</div><div class=""experiment-container""><div class=""center-zone""><div class=""cross""></div><div class=""triangle-grid""><div class=""machine top-center blue-outline""></div><div class=""machine bottom-left green""></div><div class=""machine bottom-right red""></div></div></div></div>","arrowright","","","","","gambling_choice","1","1","arrowright","bottom-right","red","arrowleft","bottom-left","green","arrowup","top-center","blue","arrowright","bottom-right","red","1","1","0.05","0","0.05","0.05","true","false"
"html-keyboard-response","34","228272","0.0-8.0-30.0-0.0","638df25c28a73c52e405ef95","not_provided","0.5","desktop","0","0","0","","","","","","luck_game","null","<div id=""score-counter"">TOTAL SCORE: &pound;0.00</div><div class=""experiment-container""><div class=""center-zone""><div class=""cross""></div><div class=""triangle-grid""><div class=""machine top-center blue-outline""></div><div class=""machine bottom-left green""></div><div class=""machine bottom-right red""></div></div></div></div>","null","","","","","","","","","","","","","","","","","","","","","","","","","","",""
"html-keyboard-response","35","228775","0.0-8.0-31.0-0.0","638df25c28a73c52e405ef95","not_provided","0.5","desktop","0","0","0","","","","","","luck_game","null","<div id=""score-counter"">TOTAL SCORE: &pound;0.00</div><div class=""experiment-container""><div class=""center-zone""><div class=""cross""></div></div></div>","null","","","","","","","","","","","","","","","","","","","","","","","","","","",""
"html-keyboard-response","36","229779","0.0-8.0-32.0-0.0","638df25c28a73c52e405ef95","not_provided","0.5","desktop","0","0","0","","","","","","luck_game","null","<div id=""score-counter"">TOTAL SCORE: &pound;0.05</div><div class=""experiment-container""><div class=""center-zone""><div class=""cross""></div>
                <div style=""position: absolute; z-index: 10; display: flex; flex-direction: column; align-items: center; justify-content: center;"">
                    <div class=""win-text"" style=""font-size: 48px; font-weight: bold; margin-bottom: 20px; text-shadow: 2px 2px 4px #000;"">WIN</div>
                    <img src=""images/coin_reward.png"" class=""reward-img"" style=""background-color: black; border-radius: 50%;"">
                    <div class=""win-text"" style=""font-size: 48px; font-weight: bold; margin-top: 20px; text-shadow: 2px 2px 4px #000;"">+0.05&pound;</div>
                </div></div></div>","null","","","","","","","","","","","","","","","","","","","","","","","","","","",""
"html-keyboard-response","37","230501","0.0-8.0-35.0","638df25c28a73c52e405ef95","not_provided","0.5","desktop","0","0","0","","","","","","luck_game","721","<div id=""score-counter"">TOTAL SCORE: &pound;0.05</div><div class=""experiment-container""><div class=""center-zone""><div class=""cross""></div><div class=""triangle-grid""><div class=""machine top-center blue""></div><div class=""machine bottom-left green-outline""></div><div class=""machine bottom-right red""></div></div></div></div>","arrowright","","","","","gambling_choice","1","2","arrowright","bottom-right","red","arrowright","bottom-right","red","arrowleft","bottom-left","green","arrowup","top-center","blue","1","1","0.1","0.05","0.05","0.05","true","false"
"html-keyboard-response","38","230604","0.0-8.0-36.0-0.0","638df25c28a73c52e405ef95","not_provided","0.5","desktop","0","0","0","","","","","","luck_game","null","<div id=""score-counter"">TOTAL SCORE: &pound;0.05</div><div class=""experiment-container""><div class=""center-zone""><div class=""cross""></div><div class=""triangle-grid""><div class=""machine top-center blue""></div><div class=""machine bottom-left green-outline""></div><div class=""machine bottom-right red""></div></div></div></div>","null","","","","","","","","","","","","","","","","","","","","","","","","","","",""
"html-keyboard-response","39","231107","0.0-8.0-37.0-0.0","638df25c28a73c52e405ef95","not_provided","0.5","desktop","0","0","0","","","","","","luck_game","null","<div id=""score-counter"">TOTAL SCORE: &pound;0.05</div><div class=""experiment-container""><div class=""center-zone""><div class=""cross""></div></div></div>","null","","","","","","","","","","","","","","","","","","","","","","","","","","",""
"html-keyboard-response","40","232110","0.0-8.0-38.0-0.0","638df25c28a73c52e405ef95","not_provided","0.5","desktop","0","0","0","","","","","","luck_game","null","<div id=""score-counter"">TOTAL SCORE: &pound;0.10</div><div class=""experiment-container""><div class=""center-zone""><div class=""cross""></div>
                <div style=""position: absolute; z-index: 10; display: flex; flex-direction: column; align-items: center; justify-content: center;"">
                    <div class=""win-text"" style=""font-size: 48px; font-weight: bold; margin-bottom: 20px; text-shadow: 2px 2px 4px #000;"">WIN</div>
                    <img src=""images/coin_reward.png"" class=""reward-img"" style=""background-color: black; border-radius: 50%;"">
                    <div class=""win-text"" style=""font-size: 48px; font-weight: bold; margin-top: 20px; text-shadow: 2px 2px 4px #000;"">+0.05&pound;</div>
                </div></div></div>","null","","","","","","","","","","","","","","","","","","","","","","","","","","",""
"html-keyboard-response","41","232784","0.0-8.0-41.0","638df25c28a73c52e405ef95","not_provided","0.5","desktop","0","0","0","","","","","","luck_game","674","<div id=""score-counter"">TOTAL SCORE: &pound;0.10</div><div class=""experiment-container""><div class=""center-zone""><div class=""cross""></div><div class=""triangle-grid""><div class=""machine top-center blue""></div><div class=""machine bottom-left green""></div><div class=""machine bottom-right red-outline""></div></div></div></div>","arrowup","","","","","gambling_choice","1","3","arrowup","top-center","blue","arrowright","bottom-right","red","arrowright","bottom-right","red","arrowleft","bottom-left","green","1","1","0.15","0.1","0.05","0.05","true","false"
"html-keyboard-response","42","232887","0.0-8.0-42.0-0.0","638df25c28a73c52e405ef95","not_provided","0.5","desktop","0","0","0","","","","","","luck_game","null","<div id=""score-counter"">TOTAL SCORE: &pound;0.10</div><div class=""experiment-container""><div class=""center-zone""><div class=""cross""></div><div class=""triangle-grid""><div class=""machine top-center blue""></div><div class=""machine bottom-left green""></div><div class=""machine bottom-right red-outline""></div></div></div></div>","null","","","","","","","","","","","","","","","","","","","","","","","","","","",""
"html-keyboard-response","43","233390","0.0-8.0-43.0-0.0","638df25c28a73c52e405ef95","not_provided","0.5","desktop","0","0","0","","","","","","luck_game","null","<div id=""score-counter"">TOTAL SCORE: &pound;0.10</div><div class=""experiment-container""><div class=""center-zone""><div class=""cross""></div></div></div>","null","","","","","","","","","","","","","","","","","","","","","","","","","","",""
"html-keyboard-response","44","234393","0.0-8.0-44.0-0.0","638df25c28a73c52e405ef95","not_provided","0.5","desktop","0","0","0","","","","","","luck_game","null","<div id=""score-counter"">TOTAL SCORE: &pound;0.15</div><div class=""experiment-container""><div class=""center-zone""><div class=""cross""></div>
                <div style=""position: absolute; z-index: 10; display: flex; flex-direction: column; align-items: center; justify-content: center;"">
                    <div class=""win-text"" style=""font-size: 48px; font-weight: bold; margin-bottom: 20px; text-shadow: 2px 2px 4px #000;"">WIN</div>
                    <img src=""images/coin_reward.png"" class=""reward-img"" style=""background-color: black; border-radius: 50%;"">
                    <div class=""win-text"" style=""font-size: 48px; font-weight: bold; margin-top: 20px; text-shadow: 2px 2px 4px #000;"">+0.05&pound;</div>
                </div></div></div>","null","","","","","","","","","","","","","","","","","","","","","","","","","","",""
"html-keyboard-response","45","235117","0.0-8.0-47.0","638df25c28a73c52e405ef95","not_provided","0.5","desktop","0","0","0","","","","","","luck_game","722","<div id=""score-counter"">TOTAL SCORE: &pound;0.15</div><div class=""experiment-container""><div class=""center-zone""><div class=""cross""></div><div class=""triangle-grid""><div class=""machine top-center blue""></div><div class=""machine bottom-left green-outline""></div><div class=""machine bottom-right red""></div></div></div></div>","arrowright","","","","","gambling_choice","1","4","arrowright","bottom-right","red","arrowup","top-center","blue","arrowleft","bottom-left","green","arrowright","bottom-right","red","1","0","0.1","0.15","-0.05","0.05","true","false"
"html-keyboard-response","46","235218","0.0-8.0-48.0-0.0","638df25c28a73c52e405ef95","not_provided","0.5","desktop","0","0","0","","","","","","luck_game","null","<div id=""score-counter"">TOTAL SCORE: &pound;0.15</div><div class=""experiment-container""><div class=""center-zone""><div class=""cross""></div><div class=""triangle-grid""><div class=""machine top-center blue""></div><div class=""machine bottom-left green-outline""></div><div class=""machine bottom-right red""></div></div></div></div>","null","","","","","","","","","","","","","","","","","","","","","","","","","","",""
"html-keyboard-response","47","235721","0.0-8.0-49.0-0.0","638df25c28a73c52e405ef95","not_provided","0.5","desktop","0","0","0","","","","","","luck_game","null","<div id=""score-counter"">TOTAL SCORE: &pound;0.15</div><div class=""experiment-container""><div class=""center-zone""><div class=""cross""></div></div></div>","null","","","","","","","","","","","","","","","","","","","","","","","","","","",""
"html-keyboard-response","48","236724","0.0-8.0-50.0-0.0","638df25c28a73c52e405ef95","not_provided","0.5","desktop","0","0","0","","","","","","luck_game","null","<div id=""score-counter"">TOTAL SCORE: &pound;0.10</div><div class=""experiment-container""><div class=""center-zone""><div class=""cross""></div>
                <div style=""position: absolute; z-index: 10; display: flex; flex-direction: column; align-items: center; justify-content: center;"">
                    <div class=""lose-text"" style=""font-size: 48px; font-weight: bold; margin-bottom: 20px; text-shadow: 2px 2px 4px #000;"">LOSE</div>
                    <img src=""images/coin_no_reward.png"" class=""reward-img"" style=""background-color: black; border-radius: 50%;"">
                    <div class=""lose-text"" style=""font-size: 48px; font-weight: bold; margin-top: 20px; text-shadow: 2px 2px 4px #000;"">-0.05&pound;</div>
                </div></div></div>","null","","","","","","","","","","","","","","","","","","","","","","","","","","",""
"html-keyboard-response","49","237253","0.0-8.0-53.0","638df25c28a73c52e405ef95","not_provided","0.5","desktop","0","0","0","","","","","","luck_game","527","<div id=""score-counter"">TOTAL SCORE: &pound;0.10</div><div class=""experiment-container""><div class=""center-zone""><div class=""cross""></div><div class=""triangle-grid""><div class=""machine top-center blue""></div><div class=""machine bottom-left green-outline""></div><div class=""machine bottom-right red""></div></div></div></div>","arrowup","","","","","gambling_choice","1","5","arrowup","top-center","blue","arrowright","bottom-right","red","arrowleft","bottom-left","green","arrowleft","bottom-left","green","0","1","0.15","0.1","0.05","-0.05","true","false"
"html-keyboard-response","50","237356","0.0-8.0-54.0-0.0","638df25c28a73c52e405ef95","not_provided","0.5","desktop","0","0","0","","","","","","luck_game","null","<div id=""score-counter"">TOTAL SCORE: &pound;0.10</div><div class=""experiment-container""><div class=""center-zone""><div class=""cross""></div><div class=""triangle-grid""><div class=""machine top-center blue""></div><div class=""machine bottom-left green-outline""></div><div class=""machine bottom-right red""></div></div></div></div>","null","","","","","","","","","","","","","","","","","","","","","","","","","","",""
"html-keyboard-response","51","237857","0.0-8.0-55.0-0.0","638df25c28a73c52e405ef95","not_provided","0.5","desktop","0","0","0","","","","","","luck_game","null","<div id=""score-counter"">TOTAL SCORE: &pound;0.10</div><div class=""experiment-container""><div class=""center-zone""><div class=""cross""></div></div></div>","null","","","","","","","","","","","","","","","","","","","","","","","","","","",""
"html-keyboard-response","52","238859","0.0-8.0-56.0-0.0","638df25c28a73c52e405ef95","not_provided","0.5","desktop","0","0","0","","","","","","luck_game","null","<div id=""score-counter"">TOTAL SCORE: &pound;0.15</div><div class=""experiment-container""><div class=""center-zone""><div class=""cross""></div>
                <div style=""position: absolute; z-index: 10; display: flex; flex-direction: column; align-items: center; justify-content: center;"">
                    <div class=""win-text"" style=""font-size: 48px; font-weight: bold; margin-bottom: 20px; text-shadow: 2px 2px 4px #000;"">WIN</div>
                    <img src=""images/coin_reward.png"" class=""reward-img"" style=""background-color: black; border-radius: 50%;"">
                    <div class=""win-text"" style=""font-size: 48px; font-weight: bold; margin-top: 20px; text-shadow: 2px 2px 4px #000;"">+0.05&pound;</div>
                </div></div></div>","null","","","","","","","","","","","","","","","","","","","","","","","","","","",""
"html-keyboard-response","53","239656","0.0-8.0-59.0","638df25c28a73c52e405ef95","not_provided","0.5","desktop","0","0","0","","","","","","luck_game","795","<div id=""score-counter"">TOTAL SCORE: &pound;0.15</div><div class=""experiment-container""><div class=""center-zone""><div class=""cross""></div><div class=""triangle-grid""><div class=""machine top-center blue-outline""></div><div class=""machine bottom-left green""></div><div class=""machine bottom-right red""></div></div></div></div>","arrowleft","","","","","gambling_choice","1","6","arrowleft","bottom-left","green","arrowup","top-center","blue","arrowup","top-center","blue","arrowleft","bottom-left","green","1","1","0.2","0.15","0.05","0.05","true","false"
"html-keyboard-response","54","239758","0.0-8.0-60.0-0.0","638df25c28a73c52e405ef95","not_provided","0.5","desktop","0","0","0","","","","","","luck_game","null","<div id=""score-counter"">TOTAL SCORE: &pound;0.15</div><div class=""experiment-container""><div class=""center-zone""><div class=""cross""></div><div class=""triangle-grid""><div class=""machine top-center blue-outline""></div><div class=""machine bottom-left green""></div><div class=""machine bottom-right red""></div></div></div></div>","null","","","","","","","","","","","","","","","","","","","","","","","","","","",""
"html-keyboard-response","55","240260","0.0-8.0-61.0-0.0","638df25c28a73c52e405ef95","not_provided","0.5","desktop","0","0","0","","","","","","luck_game","null","<div id=""score-counter"">TOTAL SCORE: &pound;0.15</div><div class=""experiment-container""><div class=""center-zone""><div class=""cross""></div></div></div>","null","","","","","","","","","","","","","","","","","","","","","","","","","","",""
"html-keyboard-response","56","241263","0.0-8.0-62.0-0.0","638df25c28a73c52e405ef95","not_provided","0.5","desktop","0","0","0","","","","","","luck_game","null","<div id=""score-counter"">TOTAL SCORE: &pound;0.20</div><div class=""experiment-container""><div class=""center-zone""><div class=""cross""></div>
                <div style=""position: absolute; z-index: 10; display: flex; flex-direction: column; align-items: center; justify-content: center;"">
                    <div class=""win-text"" style=""font-size: 48px; font-weight: bold; margin-bottom: 20px; text-shadow: 2px 2px 4px #000;"">WIN</div>
                    <img src=""images/coin_reward.png"" class=""reward-img"" style=""background-color: black; border-radius: 50%;"">
                    <div class=""win-text"" style=""font-size: 48px; font-weight: bold; margin-top: 20px; text-shadow: 2px 2px 4px #000;"">+0.05&pound;</div>
                </div></div></div>","null","","","","","","","","","","","","","","","","","","","","","","","","","","",""
"html-keyboard-response","57","241969","0.0-8.0-65.0","638df25c28a73c52e405ef95","not_provided","0.5","desktop","0","0","0","","","","","","luck_game","705","<div id=""score-counter"">TOTAL SCORE: &pound;0.20</div><div class=""experiment-container""><div class=""center-zone""><div class=""cross""></div><div class=""triangle-grid""><div class=""machine top-center blue""></div><div class=""machine bottom-left green-outline""></div><div class=""machine bottom-right red""></div></div></div></div>","arrowright","","","","","gambling_choice","1","7","arrowright","bottom-right","red","arrowleft","bottom-left","green","arrowleft","bottom-left","green","arrowup","top-center","blue","1","1","0.25","0.2","0.05","0.05","true","false"
"html-keyboard-response","58","242072","0.0-8.0-66.0-0.0","638df25c28a73c52e405ef95","not_provided","0.5","desktop","0","0","0","","","","","","luck_game","null","<div id=""score-counter"">TOTAL SCORE: &pound;0.20</div><div class=""experiment-container""><div class=""center-zone""><div class=""cross""></div><div class=""triangle-grid""><div class=""machine top-center blue""></div><div class=""machine bottom-left green-outline""></div><div class=""machine bottom-right red""></div></div></div></div>","null","","","","","","","","","","","","","","","","","","","","","","","","","","",""
"html-keyboard-response","59","242575","0.0-8.0-67.0-0.0","638df25c28a73c52e405ef95","not_provided","0.5","desktop","0","0","0","","","","","","luck_game","null","<div id=""score-counter"">TOTAL SCORE: &pound;0.20</div><div class=""experiment-container""><div class=""center-zone""><div class=""cross""></div></div></div>","null","","","","","","","","","","","","","","","","","","","","","","","","","","",""
"html-keyboard-response","60","243578","0.0-8.0-68.0-0.0","638df25c28a73c52e405ef95","not_provided","0.5","desktop","0","0","0","","","","","","luck_game","null","<div id=""score-counter"">TOTAL SCORE: &pound;0.25</div><div class=""experiment-container""><div class=""center-zone""><div class=""cross""></div>
                <div style=""position: absolute; z-index: 10; display: flex; flex-direction: column; align-items: center; justify-content: center;"">
                    <div class=""win-text"" style=""font-size: 48px; font-weight: bold; margin-bottom: 20px; text-shadow: 2px 2px 4px #000;"">WIN</div>
                    <img src=""images/coin_reward.png"" class=""reward-img"" style=""background-color: black; border-radius: 50%;"">
                    <div class=""win-text"" style=""font-size: 48px; font-weight: bold; margin-top: 20px; text-shadow: 2px 2px 4px #000;"">+0.05&pound;</div>
                </div></div></div>","null","","","","","","","","","","","","","","","","","","","","","","","","","","",""
"html-keyboard-response","61","244036","0.0-8.0-71.0","638df25c28a73c52e405ef95","not_provided","0.5","desktop","0","0","0","","","","","","luck_game","456","<div id=""score-counter"">TOTAL SCORE: &pound;0.25</div><div class=""experiment-container""><div class=""center-zone""><div class=""cross""></div><div class=""triangle-grid""><div class=""machine top-center blue""></div><div class=""machine bottom-left green""></div><div class=""machine bottom-right red-outline""></div></div></div></div>","arrowup","","","","","gambling_choice","1","8","arrowup","top-center","blue","arrowright","bottom-right","red","arrowright","bottom-right","red","arrowleft","bottom-left","green","1","1","0.3","0.25","0.05","0.05","true","false"
"html-keyboard-response","62","244138","0.0-8.0-72.0-0.0","638df25c28a73c52e405ef95","not_provided","0.5","desktop","0","0","0","","","","","","luck_game","null","<div id=""score-counter"">TOTAL SCORE: &pound;0.25</div><div class=""experiment-container""><div class=""center-zone""><div class=""cross""></div><div class=""triangle-grid""><div class=""machine top-center blue""></div><div class=""machine bottom-left green""></div><div class=""machine bottom-right red-outline""></div></div></div></div>","null","","","","","","","","","","","","","","","","","","","","","","","","","","",""
"html-keyboard-response","63","244641","0.0-8.0-73.0-0.0","638df25c28a73c52e405ef95","not_provided","0.5","desktop","0","0","0","","","","","","luck_game","null","<div id=""score-counter"">TOTAL SCORE: &pound;0.25</div><div class=""experiment-container""><div class=""center-zone""><div class=""cross""></div></div></div>","null","","","","","","","","","","","","","","","","","","","","","","","","","","",""
"html-keyboard-response","64","245644","0.0-8.0-74.0-0.0","638df25c28a73c52e405ef95","not_provided","0.5","desktop","0","0","0","","","","","","luck_game","null","<div id=""score-counter"">TOTAL SCORE: &pound;0.30</div><div class=""experiment-container""><div class=""center-zone""><div class=""cross""></div>
                <div style=""position: absolute; z-index: 10; display: flex; flex-direction: column; align-items: center; justify-content: center;"">
                    <div class=""win-text"" style=""font-size: 48px; font-weight: bold; margin-bottom: 20px; text-shadow: 2px 2px 4px #000;"">WIN</div>
                    <img src=""images/coin_reward.png"" class=""reward-img"" style=""background-color: black; border-radius: 50%;"">
                    <div class=""win-text"" style=""font-size: 48px; font-weight: bold; margin-top: 20px; text-shadow: 2px 2px 4px #000;"">+0.05&pound;</div>
                </div></div></div>","null","","","","","","","","","","","","","","","","","","","","","","","","","","",""
"html-keyboard-response","65","246296","0.0-8.0-77.0","638df25c28a73c52e405ef95","not_provided","0.5","desktop","0","0","0","","","","","","luck_game","651","<div id=""score-counter"">TOTAL SCORE: &pound;0.30</div><div class=""experiment-container""><div class=""center-zone""><div class=""cross""></div><div class=""triangle-grid""><div class=""machine top-center blue-outline""></div><div class=""machine bottom-left green""></div><div class=""machine bottom-right red""></div></div></div></div>","arrowright","","","","","gambling_choice","1","9","arrowright","bottom-right","red","arrowup","top-center","blue","arrowup","top-center","blue","arrowright","bottom-right","red","1","1","0.35","0.3","0.05","0.05","true","false"
"html-keyboard-response","66","246400","0.0-8.0-78.0-0.0","638df25c28a73c52e405ef95","not_provided","0.5","desktop","0","0","0","","","","","","luck_game","null","<div id=""score-counter"">TOTAL SCORE: &pound;0.30</div><div class=""experiment-container""><div class=""center-zone""><div class=""cross""></div><div class=""triangle-grid""><div class=""machine top-center blue-outline""></div><div class=""machine bottom-left green""></div><div class=""machine bottom-right red""></div></div></div></div>","null","","","","","","","","","","","","","","","","","","","","","","","","","","",""
"html-keyboard-response","67","246902","0.0-8.0-79.0-0.0","638df25c28a73c52e405ef95","not_provided","0.5","desktop","0","0","0","","","","","","luck_game","null","<div id=""score-counter"">TOTAL SCORE: &pound;0.30</div><div class=""experiment-container""><div class=""center-zone""><div class=""cross""></div></div></div>","null","","","","","","","","","","","","","","","","","","","","","","","","","","",""
"html-keyboard-response","68","247906","0.0-8.0-80.0-0.0","638df25c28a73c52e405ef95","not_provided","0.5","desktop","0","0","0","","","","","","luck_game","null","<div id=""score-counter"">TOTAL SCORE: &pound;0.35</div><div class=""experiment-container""><div class=""center-zone""><div class=""cross""></div>
                <div style=""position: absolute; z-index: 10; display: flex; flex-direction: column; align-items: center; justify-content: center;"">
                    <div class=""win-text"" style=""font-size: 48px; font-weight: bold; margin-bottom: 20px; text-shadow: 2px 2px 4px #000;"">WIN</div>
                    <img src=""images/coin_reward.png"" class=""reward-img"" style=""background-color: black; border-radius: 50%;"">
                    <div class=""win-text"" style=""font-size: 48px; font-weight: bold; margin-top: 20px; text-shadow: 2px 2px 4px #000;"">+0.05&pound;</div>
                </div></div></div>","null","","","","","","","","","","","","","","","","","","","","","","","","","","",""
"html-keyboard-response","69","248490","0.0-8.0-83.0","638df25c28a73c52e405ef95","not_provided","0.5","desktop","0","0","0","","","","","","luck_game","582","<div id=""score-counter"">TOTAL SCORE: &pound;0.35</div><div class=""experiment-container""><div class=""center-zone""><div class=""cross""></div><div class=""triangle-grid""><div class=""machine top-center blue""></div><div class=""machine bottom-left green-outline""></div><div class=""machine bottom-right red""></div></div></div></div>","arrowup","","","","","gambling_choice","1","10","arrowup","top-center","blue","arrowright","bottom-right","red","arrowleft","bottom-left","green","arrowup","top-center","blue","1","1","0.4","0.35","0.05","0.05","true","false"
"html-keyboard-response","70","248592","0.0-8.0-84.0-0.0","638df25c28a73c52e405ef95","not_provided","0.5","desktop","0","0","0","","","","","","luck_game","null","<div id=""score-counter"">TOTAL SCORE: &pound;0.35</div><div class=""experiment-container""><div class=""center-zone""><div class=""cross""></div><div class=""triangle-grid""><div class=""machine top-center blue""></div><div class=""machine bottom-left green-outline""></div><div class=""machine bottom-right red""></div></div></div></div>","null","","","","","","","","","","","","","","","","","","","","","","","","","","",""
"html-keyboard-response","71","249095","0.0-8.0-85.0-0.0","638df25c28a73c52e405ef95","not_provided","0.5","desktop","0","0","0","","","","","","luck_game","null","<div id=""score-counter"">TOTAL SCORE: &pound;0.35</div><div class=""experiment-container""><div class=""center-zone""><div class=""cross""></div></div></div>","null","","","","","","","","","","","","","","","","","","","","","","","","","","",""
"html-keyboard-response","72","250099","0.0-8.0-86.0-0.0","638df25c28a73c52e405ef95","not_provided","0.5","desktop","0","0","0","","","","","","luck_game","null","<div id=""score-counter"">TOTAL SCORE: &pound;0.40</div><div class=""experiment-container""><div class=""center-zone""><div class=""cross""></div>
                <div style=""position: absolute; z-index: 10; display: flex; flex-direction: column; align-items: center; justify-content: center;"">
                    <div class=""win-text"" style=""font-size: 48px; font-weight: bold; margin-bottom: 20px; text-shadow: 2px 2px 4px #000;"">WIN</div>
                    <img src=""images/coin_reward.png"" class=""reward-img"" style=""background-color: black; border-radius: 50%;"">
                    <div class=""win-text"" style=""font-size: 48px; font-weight: bold; margin-top: 20px; text-shadow: 2px 2px 4px #000;"">+0.05&pound;</div>
                </div></div></div>","null","","","","","","","","","","","","","","","","","","","","","","","","","","",""
"html-keyboard-response","73","250890","0.0-8.0-89.0","638df25c28a73c52e405ef95","not_provided","0.5","desktop","0","0","0","","","","","","luck_game","790","<div id=""score-counter"">TOTAL SCORE: &pound;0.40</div><div class=""experiment-container""><div class=""center-zone""><div class=""cross""></div><div class=""triangle-grid""><div class=""machine top-center blue""></div><div class=""machine bottom-left green""></div><div class=""machine bottom-right red-outline""></div></div></div></div>","arrowleft","","","","","gambling_choice","1","11","arrowleft","bottom-left","green","arrowup","top-center","blue","arrowright","bottom-right","red","arrowleft","bottom-left","green","1","0","0.35","0.4","-0.05","0.05","true","false"
"html-keyboard-response","74","250992","0.0-8.0-90.0-0.0","638df25c28a73c52e405ef95","not_provided","0.5","desktop","0","0","0","","","","","","luck_game","null","<div id=""score-counter"">TOTAL SCORE: &pound;0.40</div><div class=""experiment-container""><div class=""center-zone""><div class=""cross""></div><div class=""triangle-grid""><div class=""machine top-center blue""></div><div class=""machine bottom-left green""></div><div class=""machine bottom-right red-outline""></div></div></div></div>","null","","","","","","","","","","","","","","","","","","","","","","","","","","",""
"html-keyboard-response","75","251496","0.0-8.0-91.0-0.0","638df25c28a73c52e405ef95","not_provided","0.5","desktop","0","0","0","","","","","","luck_game","null","<div id=""score-counter"">TOTAL SCORE: &pound;0.40</div><div class=""experiment-container""><div class=""center-zone""><div class=""cross""></div></div></div>","null","","","","","","","","","","","","","","","","","","","","","","","","","","",""
"html-keyboard-response","76","252498","0.0-8.0-92.0-0.0","638df25c28a73c52e405ef95","not_provided","0.5","desktop","0","0","0","","","","","","luck_game","null","<div id=""score-counter"">TOTAL SCORE: &pound;0.35</div><div class=""experiment-container""><div class=""center-zone""><div class=""cross""></div>
                <div style=""position: absolute; z-index: 10; display: flex; flex-direction: column; align-items: center; justify-content: center;"">
                    <div class=""lose-text"" style=""font-size: 48px; font-weight: bold; margin-bottom: 20px; text-shadow: 2px 2px 4px #000;"">LOSE</div>
                    <img src=""images/coin_no_reward.png"" class=""reward-img"" style=""background-color: black; border-radius: 50%;"">
                    <div class=""lose-text"" style=""font-size: 48px; font-weight: bold; margin-top: 20px; text-shadow: 2px 2px 4px #000;"">-0.05&pound;</div>
                </div></div></div>","null","","","","","","","","","","","","","","","","","","","","","","","","","","",""
"html-keyboard-response","77","253160","0.0-8.0-95.0","638df25c28a73c52e405ef95","not_provided","0.5","desktop","0","0","0","","","","","","luck_game","660","<div id=""score-counter"">TOTAL SCORE: &pound;0.35</div><div class=""experiment-container""><div class=""center-zone""><div class=""cross""></div><div class=""triangle-grid""><div class=""machine top-center blue""></div><div class=""machine bottom-left green""></div><div class=""machine bottom-right red-outline""></div></div></div></div>","arrowup","","","","","gambling_choice","1","12","arrowup","top-center","blue","arrowleft","bottom-left","green","arrowright","bottom-right","red","arrowright","bottom-right","red","0","0","0.3","0.35","-0.05","-0.05","true","false"
"html-keyboard-response","78","253262","0.0-8.0-96.0-0.0","638df25c28a73c52e405ef95","not_provided","0.5","desktop","0","0","0","","","","","","luck_game","null","<div id=""score-counter"">TOTAL SCORE: &pound;0.35</div><div class=""experiment-container""><div class=""center-zone""><div class=""cross""></div><div class=""triangle-grid""><div class=""machine top-center blue""></div><div class=""machine bottom-left green""></div><div class=""machine bottom-right red-outline""></div></div></div></div>","null","","","","","","","","","","","","","","","","","","","","","","","","","","",""
"html-keyboard-response","79","253764","0.0-8.0-97.0-0.0","638df25c28a73c52e405ef95","not_provided","0.5","desktop","0","0","0","","","","","","luck_game","null","<div id=""score-counter"">TOTAL SCORE: &pound;0.35</div><div class=""experiment-container""><div class=""center-zone""><div class=""cross""></div></div></div>","null","","","","","","","","","","","","","","","","","","","","","","","","","","",""
"html-keyboard-response","80","254768","0.0-8.0-98.0-0.0","638df25c28a73c52e405ef95","not_provided","0.5","desktop","0","0","0","","","","","","luck_game","null","<div id=""score-counter"">TOTAL SCORE: &pound;0.30</div><div class=""experiment-container""><div class=""center-zone""><div class=""cross""></div>
                <div style=""position: absolute; z-index: 10; display: flex; flex-direction: column; align-items: center; justify-content: center;"">
                    <div class=""lose-text"" style=""font-size: 48px; font-weight: bold; margin-bottom: 20px; text-shadow: 2px 2px 4px #000;"">LOSE</div>
                    <img src=""images/coin_no_reward.png"" class=""reward-img"" style=""background-color: black; border-radius: 50%;"">
                    <div class=""lose-text"" style=""font-size: 48px; font-weight: bold; margin-top: 20px; text-shadow: 2px 2px 4px #000;"">-0.05&pound;</div>
                </div></div></div>","null","","","","","","","","","","","","","","","","","","","","","","","","","","",""
"html-keyboard-response","81","255270","0.0-8.0-101.0","638df25c28a73c52e405ef95","not_provided","0.5","desktop","0","0","0","","","","","","luck_game","501","<div id=""score-counter"">TOTAL SCORE: &pound;0.30</div><div class=""experiment-container""><div class=""center-zone""><div class=""cross""></div><div class=""triangle-grid""><div class=""machine top-center blue""></div><div class=""machine bottom-left green-outline""></div><div class=""machine bottom-right red""></div></div></div></div>","arrowup","","","","","gambling_choice","1","13","arrowup","top-center","blue","arrowup","top-center","blue","arrowleft","bottom-left","green","arrowright","bottom-right","red","0","0","0.25","0.3","-0.05","-0.05","true","false"
"html-keyboard-response","82","255373","0.0-8.0-102.0-0.0","638df25c28a73c52e405ef95","not_provided","0.5","desktop","0","0","0","","","","","","luck_game","null","<div id=""score-counter"">TOTAL SCORE: &pound;0.30</div><div class=""experiment-container""><div class=""center-zone""><div class=""cross""></div><div class=""triangle-grid""><div class=""machine top-center blue""></div><div class=""machine bottom-left green-outline""></div><div class=""machine bottom-right red""></div></div></div></div>","null","","","","","","","","","","","","","","","","","","","","","","","","","","",""
"html-keyboard-response","83","255875","0.0-8.0-103.0-0.0","638df25c28a73c52e405ef95","not_provided","0.5","desktop","0","0","0","","","","","","luck_game","null","<div id=""score-counter"">TOTAL SCORE: &pound;0.30</div><div class=""experiment-container""><div class=""center-zone""><div class=""cross""></div></div></div>","null","","","","","","","","","","","","","","","","","","","","","","","","","","",""
"html-keyboard-response","84","256879","0.0-8.0-104.0-0.0","638df25c28a73c52e405ef95","not_provided","0.5","desktop","0","0","0","","","","","","luck_game","null","<div id=""score-counter"">TOTAL SCORE: &pound;0.25</div><div class=""experiment-container""><div class=""center-zone""><div class=""cross""></div>
                <div style=""position: absolute; z-index: 10; display: flex; flex-direction: column; align-items: center; justify-content: center;"">
                    <div class=""lose-text"" style=""font-size: 48px; font-weight: bold; margin-bottom: 20px; text-shadow: 2px 2px 4px #000;"">LOSE</div>
                    <img src=""images/coin_no_reward.png"" class=""reward-img"" style=""background-color: black; border-radius: 50%;"">
                    <div class=""lose-text"" style=""font-size: 48px; font-weight: bold; margin-top: 20px; text-shadow: 2px 2px 4px #000;"">-0.05&pound;</div>
                </div></div></div>","null","","","","","","","","","","","","","","","","","","","","","","","","","","",""
"html-keyboard-response","85","257624","0.0-8.0-107.0","638df25c28a73c52e405ef95","not_provided","0.5","desktop","0","0","0","","","","","","luck_game","744","<div id=""score-counter"">TOTAL SCORE: &pound;0.25</div><div class=""experiment-container""><div class=""center-zone""><div class=""cross""></div><div class=""triangle-grid""><div class=""machine top-center blue""></div><div class=""machine bottom-left green""></div><div class=""machine bottom-right red-outline""></div></div></div></div>","arrowleft","","","","","gambling_choice","1","14","arrowleft","bottom-left","green","arrowup","top-center","blue","arrowright","bottom-right","red","arrowleft","bottom-left","green","0","0","0.2","0.25","-0.05","-0.05","true","false"
"html-keyboard-response","86","257726","0.0-8.0-108.0-0.0","638df25c28a73c52e405ef95","not_provided","0.5","desktop","0","0","0","","","","","","luck_game","null","<div id=""score-counter"">TOTAL SCORE: &pound;0.25</div><div class=""experiment-container""><div class=""center-zone""><div class=""cross""></div><div class=""triangle-grid""><div class=""machine top-center blue""></div><div class=""machine bottom-left green""></div><div class=""machine bottom-right red-outline""></div></div></div></div>","null","","","","","","","","","","","","","","","","","","","","","","","","","","",""
"html-keyboard-response","87","258229","0.0-8.0-109.0-0.0","638df25c28a73c52e405ef95","not_provided","0.5","desktop","0","0","0","","","","","","luck_game","null","<div id=""score-counter"">TOTAL SCORE: &pound;0.25</div><div class=""experiment-container""><div class=""center-zone""><div class=""cross""></div></div></div>","null","","","","","","","","","","","","","","","","","","","","","","","","","","",""
"html-keyboard-response","88","259232","0.0-8.0-110.0-0.0","638df25c28a73c52e405ef95","not_provided","0.5","desktop","0","0","0","","","","","","luck_game","null","<div id=""score-counter"">TOTAL SCORE: &pound;0.20</div><div class=""experiment-container""><div class=""center-zone""><div class=""cross""></div>
                <div style=""position: absolute; z-index: 10; display: flex; flex-direction: column; align-items: center; justify-content: center;"">
                    <div class=""lose-text"" style=""font-size: 48px; font-weight: bold; margin-bottom: 20px; text-shadow: 2px 2px 4px #000;"">LOSE</div>
                    <img src=""images/coin_no_reward.png"" class=""reward-img"" style=""background-color: black; border-radius: 50%;"">
                    <div class=""lose-text"" style=""font-size: 48px; font-weight: bold; margin-top: 20px; text-shadow: 2px 2px 4px #000;"">-0.05&pound;</div>
                </div></div></div>","null","","","","","","","","","","","","","","","","","","","","","","","","","","",""
"html-keyboard-response","89","259650","0.0-8.0-113.0","638df25c28a73c52e405ef95","not_provided","0.5","desktop","0","0","0","","","","","","luck_game","417","<div id=""score-counter"">TOTAL SCORE: &pound;0.20</div><div class=""experiment-container""><div class=""center-zone""><div class=""cross""></div><div class=""triangle-grid""><div class=""machine top-center blue""></div><div class=""machine bottom-left green""></div><div class=""machine bottom-right red-outline""></div></div></div></div>","arrowup","","","","","gambling_choice","1","15","arrowup","top-center","blue","arrowleft","bottom-left","green","arrowright","bottom-right","red","arrowright","bottom-right","red","0","1","0.25","0.2","0.05","-0.05","true","false"
"html-keyboard-response","90","259753","0.0-8.0-114.0-0.0","638df25c28a73c52e405ef95","not_provided","0.5","desktop","0","0","0","","","","","","luck_game","null","<div id=""score-counter"">TOTAL SCORE: &pound;0.20</div><div class=""experiment-container""><div class=""center-zone""><div class=""cross""></div><div class=""triangle-grid""><div class=""machine top-center blue""></div><div class=""machine bottom-left green""></div><div class=""machine bottom-right red-outline""></div></div></div></div>","null","","","","","","","","","","","","","","","","","","","","","","","","","","",""
"html-keyboard-response","91","260256","0.0-8.0-115.0-0.0","638df25c28a73c52e405ef95","not_provided","0.5","desktop","0","0","0","","","","","","luck_game","null","<div id=""score-counter"">TOTAL SCORE: &pound;0.20</div><div class=""experiment-container""><div class=""center-zone""><div class=""cross""></div></div></div>","null","","","","","","","","","","","","","","","","","","","","","","","","","","",""
"html-keyboard-response","92","261259","0.0-8.0-116.0-0.0","638df25c28a73c52e405ef95","not_provided","0.5","desktop","0","0","0","","","","","","luck_game","null","<div id=""score-counter"">TOTAL SCORE: &pound;0.25</div><div class=""experiment-container""><div class=""center-zone""><div class=""cross""></div>
                <div style=""position: absolute; z-index: 10; display: flex; flex-direction: column; align-items: center; justify-content: center;"">
                    <div class=""win-text"" style=""font-size: 48px; font-weight: bold; margin-bottom: 20px; text-shadow: 2px 2px 4px #000;"">WIN</div>
                    <img src=""images/coin_reward.png"" class=""reward-img"" style=""background-color: black; border-radius: 50%;"">
                    <div class=""win-text"" style=""font-size: 48px; font-weight: bold; margin-top: 20px; text-shadow: 2px 2px 4px #000;"">+0.05&pound;</div>
                </div></div></div>","null","","","","","","","","","","","","","","","","","","","","","","","","","","",""
"html-keyboard-response","93","261948","0.0-8.0-119.0","638df25c28a73c52e405ef95","not_provided","0.5","desktop","0","0","0","","","","","","luck_game","688","<div id=""score-counter"">TOTAL SCORE: &pound;0.25</div><div class=""experiment-container""><div class=""center-zone""><div class=""cross""></div><div class=""triangle-grid""><div class=""machine top-center blue""></div><div class=""machine bottom-left green""></div><div class=""machine bottom-right red-outline""></div></div></div></div>","arrowleft","","","","","gambling_choice","1","16","arrowleft","bottom-left","green","arrowup","top-center","blue","arrowright","bottom-right","red","arrowright","bottom-right","red","1","0","0.2","0.25","-0.05","0.05","true","false"
"html-keyboard-response","94","262051","0.0-8.0-120.0-0.0","638df25c28a73c52e405ef95","not_provided","0.5","desktop","0","0","0","","","","","","luck_game","null","<div id=""score-counter"">TOTAL SCORE: &pound;0.25</div><div class=""experiment-container""><div class=""center-zone""><div class=""cross""></div><div class=""triangle-grid""><div class=""machine top-center blue""></div><div class=""machine bottom-left green""></div><div class=""machine bottom-right red-outline""></div></div></div></div>","null","","","","","","","","","","","","","","","","","","","","","","","","","","",""
"html-keyboard-response","95","262554","0.0-8.0-121.0-0.0","638df25c28a73c52e405ef95","not_provided","0.5","desktop","0","0","0","","","","","","luck_game","null","<div id=""score-counter"">TOTAL SCORE: &pound;0.25</div><div class=""experiment-container""><div class=""center-zone""><div class=""cross""></div></div></div>","null","","","","","","","","","","","","","","","","","","","","","","","","","","",""
"html-keyboard-response","96","263556","0.0-8.0-122.0-0.0","638df25c28a73c52e405ef95","not_provided","0.5","desktop","0","0","0","","","","","","luck_game","null","<div id=""score-counter"">TOTAL SCORE: &pound;0.20</div><div class=""experiment-container""><div class=""center-zone""><div class=""cross""></div>
                <div style=""position: absolute; z-index: 10; display: flex; flex-direction: column; align-items: center; justify-content: center;"">
                    <div class=""lose-text"" style=""font-size: 48px; font-weight: bold; margin-bottom: 20px; text-shadow: 2px 2px 4px #000;"">LOSE</div>
                    <img src=""images/coin_no_reward.png"" class=""reward-img"" style=""background-color: black; border-radius: 50%;"">
                    <div class=""lose-text"" style=""font-size: 48px; font-weight: bold; margin-top: 20px; text-shadow: 2px 2px 4px #000;"">-0.05&pound;</div>
                </div></div></div>","null","","","","","","","","","","","","","","","","","","","","","","","","","","",""
"html-keyboard-response","97","263959","0.0-8.0-125.0","638df25c28a73c52e405ef95","not_provided","0.5","desktop","0","0","0","","","","","","luck_game","402","<div id=""score-counter"">TOTAL SCORE: &pound;0.20</div><div class=""experiment-container""><div class=""center-zone""><div class=""cross""></div><div class=""triangle-grid""><div class=""machine top-center blue-outline""></div><div class=""machine bottom-left green""></div><div class=""machine bottom-right red""></div></div></div></div>","arrowright","","","","","gambling_choice","1","17","arrowright","bottom-right","red","arrowleft","bottom-left","green","arrowup","top-center","blue","arrowright","bottom-right","red","0","0","0.15","0.2","-0.05","-0.05","true","false"
"html-keyboard-response","98","264062","0.0-8.0-126.0-0.0","638df25c28a73c52e405ef95","not_provided","0.5","desktop","0","0","0","","","","","","luck_game","null","<div id=""score-counter"">TOTAL SCORE: &pound;0.20</div><div class=""experiment-container""><div class=""center-zone""><div class=""cross""></div><div class=""triangle-grid""><div class=""machine top-center blue-outline""></div><div class=""machine bottom-left green""></div><div class=""machine bottom-right red""></div></div></div></div>","null","","","","","","","","","","","","","","","","","","","","","","","","","","",""
"html-keyboard-response","99","264564","0.0-8.0-127.0-0.0","638df25c28a73c52e405ef95","not_provided","0.5","desktop","0","0","0","","","","","","luck_game","null","<div id=""score-counter"">TOTAL SCORE: &pound;0.20</div><div class=""experiment-container""><div class=""center-zone""><div class=""cross""></div></div></div>","null","","","","","","","","","","","","","","","","","","","","","","","","","","",""
"html-keyboard-response","100","265567","0.0-8.0-128.0-0.0","638df25c28a73c52e405ef95","not_provided","0.5","desktop","0","0","0","","","","","","luck_game","null","<div id=""score-counter"">TOTAL SCORE: &pound;0.15</div><div class=""experiment-container""><div class=""center-zone""><div class=""cross""></div>
                <div style=""position: absolute; z-index: 10; display: flex; flex-direction: column; align-items: center; justify-content: center;"">
                    <div class=""lose-text"" style=""font-size: 48px; font-weight: bold; margin-bottom: 20px; text-shadow: 2px 2px 4px #000;"">LOSE</div>
                    <img src=""images/coin_no_reward.png"" class=""reward-img"" style=""background-color: black; border-radius: 50%;"">
                    <div class=""lose-text"" style=""font-size: 48px; font-weight: bold; margin-top: 20px; text-shadow: 2px 2px 4px #000;"">-0.05&pound;</div>
                </div></div></div>","null","","","","","","","","","","","","","","","","","","","","","","","","","","",""
"html-keyboard-response","101","266064","0.0-8.0-131.0","638df25c28a73c52e405ef95","not_provided","0.5","desktop","0","0","0","","","","","","luck_game","496","<div id=""score-counter"">TOTAL SCORE: &pound;0.15</div><div class=""experiment-container""><div class=""center-zone""><div class=""cross""></div><div class=""triangle-grid""><div class=""machine top-center blue""></div><div class=""machine bottom-left green-outline""></div><div class=""machine bottom-right red""></div></div></div></div>","arrowup","","","","","gambling_choice","1","18","arrowup","top-center","blue","arrowright","bottom-right","red","arrowleft","bottom-left","green","arrowup","top-center","blue","0","0","0.1","0.15","-0.05","-0.05","true","false"
"html-keyboard-response","102","266167","0.0-8.0-132.0-0.0","638df25c28a73c52e405ef95","not_provided","0.5","desktop","0","0","0","","","","","","luck_game","null","<div id=""score-counter"">TOTAL SCORE: &pound;0.15</div><div class=""experiment-container""><div class=""center-zone""><div class=""cross""></div><div class=""triangle-grid""><div class=""machine top-center blue""></div><div class=""machine bottom-left green-outline""></div><div class=""machine bottom-right red""></div></div></div></div>","null","","","","","","","","","","","","","","","","","","","","","","","","","","",""
"html-keyboard-response","103","266671","0.0-8.0-133.0-0.0","638df25c28a73c52e405ef95","not_provided","0.5","desktop","0","0","0","","","","","","luck_game","null","<div id=""score-counter"">TOTAL SCORE: &pound;0.15</div><div class=""experiment-container""><div class=""center-zone""><div class=""cross""></div></div></div>","null","","","","","","","","","","","","","","","","","","","","","","","","","","",""
"html-keyboard-response","104","267674","0.0-8.0-134.0-0.0","638df25c28a73c52e405ef95","not_provided","0.5","desktop","0","0","0","","","","","","luck_game","null","<div id=""score-counter"">TOTAL SCORE: &pound;0.10</div><div class=""experiment-container""><div class=""center-zone""><div class=""cross""></div>
                <div style=""position: absolute; z-index: 10; display: flex; flex-direction: column; align-items: center; justify-content: center;"">
                    <div class=""lose-text"" style=""font-size: 48px; font-weight: bold; margin-bottom: 20px; text-shadow: 2px 2px 4px #000;"">LOSE</div>
                    <img src=""images/coin_no_reward.png"" class=""reward-img"" style=""background-color: black; border-radius: 50%;"">
                    <div class=""lose-text"" style=""font-size: 48px; font-weight: bold; margin-top: 20px; text-shadow: 2px 2px 4px #000;"">-0.05&pound;</div>
                </div></div></div>","null","","","","","","","","","","","","","","","","","","","","","","","","","","",""
"html-keyboard-response","105","268554","0.0-8.0-137.0","638df25c28a73c52e405ef95","not_provided","0.5","desktop","0","0","0","","","","","","luck_game","879","<div id=""score-counter"">TOTAL SCORE: &pound;0.10</div><div class=""experiment-container""><div class=""center-zone""><div class=""cross""></div><div class=""triangle-grid""><div class=""machine top-center blue-outline""></div><div class=""machine bottom-left green""></div><div class=""machine bottom-right red""></div></div></div></div>","arrowleft","","","","","gambling_choice","1","19","arrowleft","bottom-left","green","arrowup","top-center","blue","arrowup","top-center","blue","arrowleft","bottom-left","green","0","1","0.15","0.1","0.05","-0.05","true","false"
"html-keyboard-response","106","268657","0.0-8.0-138.0-0.0","638df25c28a73c52e405ef95","not_provided","0.5","desktop","0","0","0","","","","","","luck_game","null","<div id=""score-counter"">TOTAL SCORE: &pound;0.10</div><div class=""experiment-container""><div class=""center-zone""><div class=""cross""></div><div class=""triangle-grid""><div class=""machine top-center blue-outline""></div><div class=""machine bottom-left green""></div><div class=""machine bottom-right red""></div></div></div></div>","null","","","","","","","","","","","","","","","","","","","","","","","","","","",""
"html-keyboard-response","107","269159","0.0-8.0-139.0-0.0","638df25c28a73c52e405ef95","not_provided","0.5","desktop","0","0","0","","","","","","luck_game","null","<div id=""score-counter"">TOTAL SCORE: &pound;0.10</div><div class=""experiment-container""><div class=""center-zone""><div class=""cross""></div></div></div>","null","","","","","","","","","","","","","","","","","","","","","","","","","","",""
"html-keyboard-response","108","270162","0.0-8.0-140.0-0.0","638df25c28a73c52e405ef95","not_provided","0.5","desktop","0","0","0","","","","","","luck_game","null","<div id=""score-counter"">TOTAL SCORE: &pound;0.15</div><div class=""experiment-container""><div class=""center-zone""><div class=""cross""></div>
                <div style=""position: absolute; z-index: 10; display: flex; flex-direction: column; align-items: center; justify-content: center;"">
                    <div class=""win-text"" style=""font-size: 48px; font-weight: bold; margin-bottom: 20px; text-shadow: 2px 2px 4px #000;"">WIN</div>
                    <img src=""images/coin_reward.png"" class=""reward-img"" style=""background-color: black; border-radius: 50%;"">
                    <div class=""win-text"" style=""font-size: 48px; font-weight: bold; margin-top: 20px; text-shadow: 2px 2px 4px #000;"">+0.05&pound;</div>
                </div></div></div>","null","","","","","","","","","","","","","","","","","","","","","","","","","","",""
"html-keyboard-response","109","271007","0.0-8.0-143.0","638df25c28a73c52e405ef95","not_provided","0.5","desktop","0","0","0","","","","","","luck_game","843","<div id=""score-counter"">TOTAL SCORE: &pound;0.15</div><div class=""experiment-container""><div class=""center-zone""><div class=""cross""></div><div class=""triangle-grid""><div class=""machine top-center blue""></div><div class=""machine bottom-left green-outline""></div><div class=""machine bottom-right red""></div></div></div></div>","arrowright","","","","","gambling_choice","1","20","arrowright","bottom-right","red","arrowleft","bottom-left","green","arrowleft","bottom-left","green","arrowup","top-center","blue","1","1","0.2","0.15","0.05","0.05","true","false"
"html-keyboard-response","110","271110","0.0-8.0-144.0-0.0","638df25c28a73c52e405ef95","not_provided","0.5","desktop","0","0","0","","","","","","luck_game","null","<div id=""score-counter"">TOTAL SCORE: &pound;0.15</div><div class=""experiment-container""><div class=""center-zone""><div class=""cross""></div><div class=""triangle-grid""><div class=""machine top-center blue""></div><div class=""machine bottom-left green-outline""></div><div class=""machine bottom-right red""></div></div></div></div>","null","","","","","","","","","","","","","","","","","","","","","","","","","","",""
"html-keyboard-response","111","271613","0.0-8.0-145.0-0.0","638df25c28a73c52e405ef95","not_provided","0.5","desktop","0","0","0","","","","","","luck_game","null","<div id=""score-counter"">TOTAL SCORE: &pound;0.15</div><div class=""experiment-container""><div class=""center-zone""><div class=""cross""></div></div></div>","null","","","","","","","","","","","","","","","","","","","","","","","","","","",""
"html-keyboard-response","112","272617","0.0-8.0-146.0-0.0","638df25c28a73c52e405ef95","not_provided","0.5","desktop","0","0","0","","","","","","luck_game","null","<div id=""score-counter"">TOTAL SCORE: &pound;0.20</div><div class=""experiment-container""><div class=""center-zone""><div class=""cross""></div>
                <div style=""position: absolute; z-index: 10; display: flex; flex-direction: column; align-items: center; justify-content: center;"">
                    <div class=""win-text"" style=""font-size: 48px; font-weight: bold; margin-bottom: 20px; text-shadow: 2px 2px 4px #000;"">WIN</div>
                    <img src=""images/coin_reward.png"" class=""reward-img"" style=""background-color: black; border-radius: 50%;"">
                    <div class=""win-text"" style=""font-size: 48px; font-weight: bold; margin-top: 20px; text-shadow: 2px 2px 4px #000;"">+0.05&pound;</div>
                </div></div></div>","null","","","","","","","","","","","","","","","","","","","","","","","","","","",""
"html-keyboard-response","113","273436","0.0-8.0-149.0","638df25c28a73c52e405ef95","not_provided","0.5","desktop","0","0","0","","","","","","luck_game","818","<div id=""score-counter"">TOTAL SCORE: &pound;0.20</div><div class=""experiment-container""><div class=""center-zone""><div class=""cross""></div><div class=""triangle-grid""><div class=""machine top-center blue-outline""></div><div class=""machine bottom-left green""></div><div class=""machine bottom-right red""></div></div></div></div>","arrowright","","","","","gambling_choice","1","21","arrowright","bottom-right","red","arrowright","bottom-right","red","arrowup","top-center","blue","arrowleft","bottom-left","green","1","0","0.15","0.2","-0.05","0.05","true","false"
"html-keyboard-response","114","273539","0.0-8.0-150.0-0.0","638df25c28a73c52e405ef95","not_provided","0.5","desktop","0","0","0","","","","","","luck_game","null","<div id=""score-counter"">TOTAL SCORE: &pound;0.20</div><div class=""experiment-container""><div class=""center-zone""><div class=""cross""></div><div class=""triangle-grid""><div class=""machine top-center blue-outline""></div><div class=""machine bottom-left green""></div><div class=""machine bottom-right red""></div></div></div></div>","null","","","","","","","","","","","","","","","","","","","","","","","","","","",""
"html-keyboard-response","115","274041","0.0-8.0-151.0-0.0","638df25c28a73c52e405ef95","not_provided","0.5","desktop","0","0","0","","","","","","luck_game","null","<div id=""score-counter"">TOTAL SCORE: &pound;0.20</div><div class=""experiment-container""><div class=""center-zone""><div class=""cross""></div></div></div>","null","","","","","","","","","","","","","","","","","","","","","","","","","","",""
"html-keyboard-response","116","275044","0.0-8.0-152.0-0.0","638df25c28a73c52e405ef95","not_provided","0.5","desktop","0","0","0","","","","","","luck_game","null","<div id=""score-counter"">TOTAL SCORE: &pound;0.15</div><div class=""experiment-container""><div class=""center-zone""><div class=""cross""></div>
                <div style=""position: absolute; z-index: 10; display: flex; flex-direction: column; align-items: center; justify-content: center;"">
                    <div class=""lose-text"" style=""font-size: 48px; font-weight: bold; margin-bottom: 20px; text-shadow: 2px 2px 4px #000;"">LOSE</div>
                    <img src=""images/coin_no_reward.png"" class=""reward-img"" style=""background-color: black; border-radius: 50%;"">
                    <div class=""lose-text"" style=""font-size: 48px; font-weight: bold; margin-top: 20px; text-shadow: 2px 2px 4px #000;"">-0.05&pound;</div>
                </div></div></div>","null","","","","","","","","","","","","","","","","","","","","","","","","","","",""
"html-keyboard-response","117","275634","0.0-8.0-155.0","638df25c28a73c52e405ef95","not_provided","0.5","desktop","0","0","0","","","","","","luck_game","589","<div id=""score-counter"">TOTAL SCORE: &pound;0.15</div><div class=""experiment-container""><div class=""center-zone""><div class=""cross""></div><div class=""triangle-grid""><div class=""machine top-center blue""></div><div class=""machine bottom-left green""></div><div class=""machine bottom-right red-outline""></div></div></div></div>","arrowleft","","","","","gambling_choice","1","22","arrowleft","bottom-left","green","arrowright","bottom-right","red","arrowright","bottom-right","red","arrowup","top-center","blue","0","1","0.2","0.15","0.05","-0.05","true","false"
"html-keyboard-response","118","275737","0.0-8.0-156.0-0.0","638df25c28a73c52e405ef95","not_provided","0.5","desktop","0","0","0","","","","","","luck_game","null","<div id=""score-counter"">TOTAL SCORE: &pound;0.15</div><div class=""experiment-container""><div class=""center-zone""><div class=""cross""></div><div class=""triangle-grid""><div class=""machine top-center blue""></div><div class=""machine bottom-left green""></div><div class=""machine bottom-right red-outline""></div></div></div></div>","null","","","","","","","","","","","","","","","","","","","","","","","","","","",""
"html-keyboard-response","119","276240","0.0-8.0-157.0-0.0","638df25c28a73c52e405ef95","not_provided","0.5","desktop","0","0","0","","","","","","luck_game","null","<div id=""score-counter"">TOTAL SCORE: &pound;0.15</div><div class=""experiment-container""><div class=""center-zone""><div class=""cross""></div></div></div>","null","","","","","","","","","","","","","","","","","","","","","","","","","","",""
"html-keyboard-response","120","277242","0.0-8.0-158.0-0.0","638df25c28a73c52e405ef95","not_provided","0.5","desktop","0","0","0","","","","","","luck_game","null","<div id=""score-counter"">TOTAL SCORE: &pound;0.20</div><div class=""experiment-container""><div class=""center-zone""><div class=""cross""></div>
                <div style=""position: absolute; z-index: 10; display: flex; flex-direction: column; align-items: center; justify-content: center;"">
                    <div class=""win-text"" style=""font-size: 48px; font-weight: bold; margin-bottom: 20px; text-shadow: 2px 2px 4px #000;"">WIN</div>
                    <img src=""images/coin_reward.png"" class=""reward-img"" style=""background-color: black; border-radius: 50%;"">
                    <div class=""win-text"" style=""font-size: 48px; font-weight: bold; margin-top: 20px; text-shadow: 2px 2px 4px #000;"">+0.05&pound;</div>
                </div></div></div>","null","","","","","","","","","","","","","","","","","","","","","","","","","","",""
"html-keyboard-response","121","277696","0.0-8.0-161.0","638df25c28a73c52e405ef95","not_provided","0.5","desktop","0","0","0","","","","","","luck_game","452","<div id=""score-counter"">TOTAL SCORE: &pound;0.20</div><div class=""experiment-container""><div class=""center-zone""><div class=""cross""></div><div class=""triangle-grid""><div class=""machine top-center blue""></div><div class=""machine bottom-left green""></div><div class=""machine bottom-right red-outline""></div></div></div></div>","arrowleft","","","","","gambling_choice","1","23","arrowleft","bottom-left","green","arrowleft","bottom-left","green","arrowright","bottom-right","red","arrowright","bottom-right","red","1","0","0.15","0.2","-0.05","0.05","true","false"
"html-keyboard-response","122","277799","0.0-8.0-162.0-0.0","638df25c28a73c52e405ef95","not_provided","0.5","desktop","0","0","0","","","","","","luck_game","null","<div id=""score-counter"">TOTAL SCORE: &pound;0.20</div><div class=""experiment-container""><div class=""center-zone""><div class=""cross""></div><div class=""triangle-grid""><div class=""machine top-center blue""></div><div class=""machine bottom-left green""></div><div class=""machine bottom-right red-outline""></div></div></div></div>","null","","","","","","","","","","","","","","","","","","","","","","","","","","",""
"html-keyboard-response","123","278302","0.0-8.0-163.0-0.0","638df25c28a73c52e405ef95","not_provided","0.5","desktop","0","0","0","","","","","","luck_game","null","<div id=""score-counter"">TOTAL SCORE: &pound;0.20</div><div class=""experiment-container""><div class=""center-zone""><div class=""cross""></div></div></div>","null","","","","","","","","","","","","","","","","","","","","","","","","","","",""
"html-keyboard-response","124","279305","0.0-8.0-164.0-0.0","638df25c28a73c52e405ef95","not_provided","0.5","desktop","0","0","0","","","","","","luck_game","null","<div id=""score-counter"">TOTAL SCORE: &pound;0.15</div><div class=""experiment-container""><div class=""center-zone""><div class=""cross""></div>
                <div style=""position: absolute; z-index: 10; display: flex; flex-direction: column; align-items: center; justify-content: center;"">
                    <div class=""lose-text"" style=""font-size: 48px; font-weight: bold; margin-bottom: 20px; text-shadow: 2px 2px 4px #000;"">LOSE</div>
                    <img src=""images/coin_no_reward.png"" class=""reward-img"" style=""background-color: black; border-radius: 50%;"">
                    <div class=""lose-text"" style=""font-size: 48px; font-weight: bold; margin-top: 20px; text-shadow: 2px 2px 4px #000;"">-0.05&pound;</div>
                </div></div></div>","null","","","","","","","","","","","","","","","","","","","","","","","","","","",""
"html-keyboard-response","125","279780","0.0-8.0-167.0","638df25c28a73c52e405ef95","not_provided","0.5","desktop","0","0","0","","","","","","luck_game","473","<div id=""score-counter"">TOTAL SCORE: &pound;0.15</div><div class=""experiment-container""><div class=""center-zone""><div class=""cross""></div><div class=""triangle-grid""><div class=""machine top-center blue""></div><div class=""machine bottom-left green-outline""></div><div class=""machine bottom-right red""></div></div></div></div>","arrowup","","","","","gambling_choice","1","24","arrowup","top-center","blue","arrowleft","bottom-left","green","arrowleft","bottom-left","green","arrowright","bottom-right","red","0","1","0.2","0.15","0.05","-0.05","true","false"
"html-keyboard-response","126","279883","0.0-8.0-168.0-0.0","638df25c28a73c52e405ef95","not_provided","0.5","desktop","0","0","0","","","","","","luck_game","null","<div id=""score-counter"">TOTAL SCORE: &pound;0.15</div><div class=""experiment-container""><div class=""center-zone""><div class=""cross""></div><div class=""triangle-grid""><div class=""machine top-center blue""></div><div class=""machine bottom-left green-outline""></div><div class=""machine bottom-right red""></div></div></div></div>","null","","","","","","","","","","","","","","","","","","","","","","","","","","",""
"html-keyboard-response","127","280386","0.0-8.0-169.0-0.0","638df25c28a73c52e405ef95","not_provided","0.5","desktop","0","0","0","","","","","","luck_game","null","<div id=""score-counter"">TOTAL SCORE: &pound;0.15</div><div class=""experiment-container""><div class=""center-zone""><div class=""cross""></div></div></div>","null","","","","","","","","","","","","","","","","","","","","","","","","","","",""
"html-keyboard-response","128","281389","0.0-8.0-170.0-0.0","638df25c28a73c52e405ef95","not_provided","0.5","desktop","0","0","0","","","","","","luck_game","null","<div id=""score-counter"">TOTAL SCORE: &pound;0.20</div><div class=""experiment-container""><div class=""center-zone""><div class=""cross""></div>
                <div style=""position: absolute; z-index: 10; display: flex; flex-direction: column; align-items: center; justify-content: center;"">
                    <div class=""win-text"" style=""font-size: 48px; font-weight: bold; margin-bottom: 20px; text-shadow: 2px 2px 4px #000;"">WIN</div>
                    <img src=""images/coin_reward.png"" class=""reward-img"" style=""background-color: black; border-radius: 50%;"">
                    <div class=""win-text"" style=""font-size: 48px; font-weight: bold; margin-top: 20px; text-shadow: 2px 2px 4px #000;"">+0.05&pound;</div>
                </div></div></div>","null","","","","","","","","","","","","","","","","","","","","","","","","","","",""
"html-keyboard-response","129","282021","0.0-8.0-173.0","638df25c28a73c52e405ef95","not_provided","0.5","desktop","0","0","0","","","","","","luck_game","630","<div id=""score-counter"">TOTAL SCORE: &pound;0.20</div><div class=""experiment-container""><div class=""center-zone""><div class=""cross""></div><div class=""triangle-grid""><div class=""machine top-center blue""></div><div class=""machine bottom-left green-outline""></div><div class=""machine bottom-right red""></div></div></div></div>","arrowup","","","","","gambling_choice","1","25","arrowup","top-center","blue","arrowup","top-center","blue","arrowleft","bottom-left","green","arrowleft","bottom-left","green","1","1","0.25","0.2","0.05","0.05","true","false"
"html-keyboard-response","130","282123","0.0-8.0-174.0-0.0","638df25c28a73c52e405ef95","not_provided","0.5","desktop","0","0","0","","","","","","luck_game","null","<div id=""score-counter"">TOTAL SCORE: &pound;0.20</div><div class=""experiment-container""><div class=""center-zone""><div class=""cross""></div><div class=""triangle-grid""><div class=""machine top-center blue""></div><div class=""machine bottom-left green-outline""></div><div class=""machine bottom-right red""></div></div></div></div>","null","","","","","","","","","","","","","","","","","","","","","","","","","","",""
"html-keyboard-response","131","282626","0.0-8.0-175.0-0.0","638df25c28a73c52e405ef95","not_provided","0.5","desktop","0","0","0","","","","","","luck_game","null","<div id=""score-counter"">TOTAL SCORE: &pound;0.20</div><div class=""experiment-container""><div class=""center-zone""><div class=""cross""></div></div></div>","null","","","","","","","","","","","","","","","","","","","","","","","","","","",""
"html-keyboard-response","132","283629","0.0-8.0-176.0-0.0","638df25c28a73c52e405ef95","not_provided","0.5","desktop","0","0","0","","","","","","luck_game","null","<div id=""score-counter"">TOTAL SCORE: &pound;0.25</div><div class=""experiment-container""><div class=""center-zone""><div class=""cross""></div>
                <div style=""position: absolute; z-index: 10; display: flex; flex-direction: column; align-items: center; justify-content: center;"">
                    <div class=""win-text"" style=""font-size: 48px; font-weight: bold; margin-bottom: 20px; text-shadow: 2px 2px 4px #000;"">WIN</div>
                    <img src=""images/coin_reward.png"" class=""reward-img"" style=""background-color: black; border-radius: 50%;"">
                    <div class=""win-text"" style=""font-size: 48px; font-weight: bold; margin-top: 20px; text-shadow: 2px 2px 4px #000;"">+0.05&pound;</div>
                </div></div></div>","null","","","","","","","","","","","","","","","","","","","","","","","","","","",""
"html-keyboard-response","133","290147","0.0-8.0-179.0","638df25c28a73c52e405ef95","not_provided","0.5","desktop","0","0","0","","","","","","luck_game","6516","
            <div class=""experiment-container"">
                <div style=""text-align: center; font-family: sans-serif;"">
                    <h2 style=""color: #3498db; font-size: 40px; margin-bottom: 20px;"">Rest phase.</h2>
                    <p style=""font-size: 24px; color: white;"">Take as much time as needed.</p>
                    <p style=""font-size: 24px; color: white; margin-top: 40px;"">When ready, press <strong>Space</strong> to continue.</p>
                </div>
            </div>"," ","","","","","rest_break","","","","","","","","","","","","","","","","","","","","","",""
"html-keyboard-response","134","290762","0.0-8.0-180.0","638df25c28a73c52e405ef95","not_provided","0.5","desktop","0","0","0","","","","","","luck_game","614","<div id=""score-counter"">TOTAL SCORE: &pound;0.25</div><div class=""experiment-container""><div class=""center-zone""><div class=""cross""></div><div class=""triangle-grid""><div class=""machine top-center blue""></div><div class=""machine bottom-left green""></div><div class=""machine bottom-right red-outline""></div></div></div></div>","arrowup","","","","","gambling_choice","2","1","arrowup","top-center","blue","arrowup","top-center","blue","arrowright","bottom-right","red","arrowleft","bottom-left","green","1","0","0.2","0.25","-0.05","0.05","true","false"
"html-keyboard-response","135","290866","0.0-8.0-181.0-0.0","638df25c28a73c52e405ef95","not_provided","0.5","desktop","0","0","0","","","","","","luck_game","null","<div id=""score-counter"">TOTAL SCORE: &pound;0.25</div><div class=""experiment-container""><div class=""center-zone""><div class=""cross""></div><div class=""triangle-grid""><div class=""machine top-center blue""></div><div class=""machine bottom-left green""></div><div class=""machine bottom-right red-outline""></div></div></div></div>","null","","","","","","","","","","","","","","","","","","","","","","","","","","",""
"html-keyboard-response","136","291368","0.0-8.0-182.0-0.0","638df25c28a73c52e405ef95","not_provided","0.5","desktop","0","0","0","","","","","","luck_game","null","<div id=""score-counter"">TOTAL SCORE: &pound;0.25</div><div class=""experiment-container""><div class=""center-zone""><div class=""cross""></div></div></div>","null","","","","","","","","","","","","","","","","","","","","","","","","","","",""
"html-keyboard-response","137","292371","0.0-8.0-183.0-0.0","638df25c28a73c52e405ef95","not_provided","0.5","desktop","0","0","0","","","","","","luck_game","null","<div id=""score-counter"">TOTAL SCORE: &pound;0.20</div><div class=""experiment-container""><div class=""center-zone""><div class=""cross""></div>
                <div style=""position: absolute; z-index: 10; display: flex; flex-direction: column; align-items: center; justify-content: center;"">
                    <div class=""lose-text"" style=""font-size: 48px; font-weight: bold; margin-bottom: 20px; text-shadow: 2px 2px 4px #000;"">LOSE</div>
                    <img src=""images/coin_no_reward.png"" class=""reward-img"" style=""background-color: black; border-radius: 50%;"">
                    <div class=""lose-text"" style=""font-size: 48px; font-weight: bold; margin-top: 20px; text-shadow: 2px 2px 4px #000;"">-0.05&pound;</div>
                </div></div></div>","null","","","","","","","","","","","","","","","","","","","","","","","","","","",""
"html-keyboard-response","138","292834","0.0-8.0-186.0","638df25c28a73c52e405ef95","not_provided","0.5","desktop","0","0","0","","","","","","luck_game","461","<div id=""score-counter"">TOTAL SCORE: &pound;0.20</div><div class=""experiment-container""><div class=""center-zone""><div class=""cross""></div><div class=""triangle-grid""><div class=""machine top-center blue""></div><div class=""machine bottom-left green""></div><div class=""machine bottom-right red-outline""></div></div></div></div>","arrowup","","","","","gambling_choice","2","2","arrowup","top-center","blue","arrowup","top-center","blue","arrowright","bottom-right","red","arrowright","bottom-right","red","0","1","0.25","0.2","0.05","-0.05","true","false"
"html-keyboard-response","139","292937","0.0-8.0-187.0-0.0","638df25c28a73c52e405ef95","not_provided","0.5","desktop","0","0","0","","","","","","luck_game","null","<div id=""score-counter"">TOTAL SCORE: &pound;0.20</div><div class=""experiment-container""><div class=""center-zone""><div class=""cross""></div><div class=""triangle-grid""><div class=""machine top-center blue""></div><div class=""machine bottom-left green""></div><div class=""machine bottom-right red-outline""></div></div></div></div>","null","","","","","","","","","","","","","","","","","","","","","","","","","","",""
"html-keyboard-response","140","293440","0.0-8.0-188.0-0.0","638df25c28a73c52e405ef95","not_provided","0.5","desktop","0","0","0","","","","","","luck_game","null","<div id=""score-counter"">TOTAL SCORE: &pound;0.20</div><div class=""experiment-container""><div class=""center-zone""><div class=""cross""></div></div></div>","null","","","","","","","","","","","","","","","","","","","","","","","","","","",""
"html-keyboard-response","141","294444","0.0-8.0-189.0-0.0","638df25c28a73c52e405ef95","not_provided","0.5","desktop","0","0","0","","","","","","luck_game","null","<div id=""score-counter"">TOTAL SCORE: &pound;0.25</div><div class=""experiment-container""><div class=""center-zone""><div class=""cross""></div>
                <div style=""position: absolute; z-index: 10; display: flex; flex-direction: column; align-items: center; justify-content: center;"">
                    <div class=""win-text"" style=""font-size: 48px; font-weight: bold; margin-bottom: 20px; text-shadow: 2px 2px 4px #000;"">WIN</div>
                    <img src=""images/coin_reward.png"" class=""reward-img"" style=""background-color: black; border-radius: 50%;"">
                    <div class=""win-text"" style=""font-size: 48px; font-weight: bold; margin-top: 20px; text-shadow: 2px 2px 4px #000;"">+0.05&pound;</div>
                </div></div></div>","null","","","","","","","","","","","","","","","","","","","","","","","","","","",""
"html-keyboard-response","142","294997","0.0-8.0-192.0","638df25c28a73c52e405ef95","not_provided","0.5","desktop","0","0","0","","","","","","luck_game","552","<div id=""score-counter"">TOTAL SCORE: &pound;0.25</div><div class=""experiment-container""><div class=""center-zone""><div class=""cross""></div><div class=""triangle-grid""><div class=""machine top-center blue-outline""></div><div class=""machine bottom-left green""></div><div class=""machine bottom-right red""></div></div></div></div>","arrowleft","","","","","gambling_choice","2","3","arrowleft","bottom-left","green","arrowup","top-center","blue","arrowup","top-center","blue","arrowright","bottom-right","red","1","1","0.3","0.25","0.05","0.05","true","false"
"html-keyboard-response","143","295100","0.0-8.0-193.0-0.0","638df25c28a73c52e405ef95","not_provided","0.5","desktop","0","0","0","","","","","","luck_game","null","<div id=""score-counter"">TOTAL SCORE: &pound;0.25</div><div class=""experiment-container""><div class=""center-zone""><div class=""cross""></div><div class=""triangle-grid""><div class=""machine top-center blue-outline""></div><div class=""machine bottom-left green""></div><div class=""machine bottom-right red""></div></div></div></div>","null","","","","","","","","","","","","","","","","","","","","","","","","","","",""
"html-keyboard-response","144","295602","0.0-8.0-194.0-0.0","638df25c28a73c52e405ef95","not_provided","0.5","desktop","0","0","0","","","","","","luck_game","null","<div id=""score-counter"">TOTAL SCORE: &pound;0.25</div><div class=""experiment-container""><div class=""center-zone""><div class=""cross""></div></div></div>","null","","","","","","","","","","","","","","","","","","","","","","","","","","",""
"html-keyboard-response","145","296606","0.0-8.0-195.0-0.0","638df25c28a73c52e405ef95","not_provided","0.5","desktop","0","0","0","","","","","","luck_game","null","<div id=""score-counter"">TOTAL SCORE: &pound;0.30</div><div class=""experiment-container""><div class=""center-zone""><div class=""cross""></div>
                <div style=""position: absolute; z-index: 10; display: flex; flex-direction: column; align-items: center; justify-content: center;"">
                    <div class=""win-text"" style=""font-size: 48px; font-weight: bold; margin-bottom: 20px; text-shadow: 2px 2px 4px #000;"">WIN</div>
                    <img src=""images/coin_reward.png"" class=""reward-img"" style=""background-color: black; border-radius: 50%;"">
                    <div class=""win-text"" style=""font-size: 48px; font-weight: bold; margin-top: 20px; text-shadow: 2px 2px 4px #000;"">+0.05&pound;</div>
                </div></div></div>","null","","","","","","","","","","","","","","","","","","","","","","","","","","",""
"html-keyboard-response","146","297370","0.0-8.0-198.0","638df25c28a73c52e405ef95","not_provided","0.5","desktop","0","0","0","","","","","","luck_game","763","<div id=""score-counter"">TOTAL SCORE: &pound;0.30</div><div class=""experiment-container""><div class=""center-zone""><div class=""cross""></div><div class=""triangle-grid""><div class=""machine top-center blue""></div><div class=""machine bottom-left green-outline""></div><div class=""machine bottom-right red""></div></div></div></div>","arrowup","","","","","gambling_choice","2","4","arrowup","top-center","blue","arrowleft","bottom-left","green","arrowleft","bottom-left","green","arrowup","top-center","blue","1","1","0.35","0.3","0.05","0.05","true","false"
"html-keyboard-response","147","297474","0.0-8.0-199.0-0.0","638df25c28a73c52e405ef95","not_provided","0.5","desktop","0","0","0","","","","","","luck_game","null","<div id=""score-counter"">TOTAL SCORE: &pound;0.30</div><div class=""experiment-container""><div class=""center-zone""><div class=""cross""></div><div class=""triangle-grid""><div class=""machine top-center blue""></div><div class=""machine bottom-left green-outline""></div><div class=""machine bottom-right red""></div></div></div></div>","null","","","","","","","","","","","","","","","","","","","","","","","","","","",""
"html-keyboard-response","148","297977","0.0-8.0-200.0-0.0","638df25c28a73c52e405ef95","not_provided","0.5","desktop","0","0","0","","","","","","luck_game","null","<div id=""score-counter"">TOTAL SCORE: &pound;0.30</div><div class=""experiment-container""><div class=""center-zone""><div class=""cross""></div></div></div>","null","","","","","","","","","","","","","","","","","","","","","","","","","","",""
"html-keyboard-response","149","298980","0.0-8.0-201.0-0.0","638df25c28a73c52e405ef95","not_provided","0.5","desktop","0","0","0","","","","","","luck_game","null","<div id=""score-counter"">TOTAL SCORE: &pound;0.35</div><div class=""experiment-container""><div class=""center-zone""><div class=""cross""></div>
                <div style=""position: absolute; z-index: 10; display: flex; flex-direction: column; align-items: center; justify-content: center;"">
                    <div class=""win-text"" style=""font-size: 48px; font-weight: bold; margin-bottom: 20px; text-shadow: 2px 2px 4px #000;"">WIN</div>
                    <img src=""images/coin_reward.png"" class=""reward-img"" style=""background-color: black; border-radius: 50%;"">
                    <div class=""win-text"" style=""font-size: 48px; font-weight: bold; margin-top: 20px; text-shadow: 2px 2px 4px #000;"">+0.05&pound;</div>
                </div></div></div>","null","","","","","","","","","","","","","","","","","","","","","","","","","","",""
