"trial_type","trial_index","time_elapsed","internal_node_id","subject_id","study_id","win_chance","device_type","blur_count","fullscreen_exit_count","failed_attention_checks","success","timeout","failed_images","failed_audio","failed_video","phase","rt","stimulus","response","question_order","view_history","trial_name","value","task","block_number","trial_number","choice_key","choice_location","choice_color","choice_key_oneback","choice_location_oneback","choice_color_oneback","unavailable_key","unavailable_location","unavailable_color","unavailable_key_oneback","unavailable_location_oneback","unavailable_color_oneback","reward_oneback","reward","total_score","total_score_oneback","coin_earned","coin_earned_oneback","is_choice_valid","is_timeout_reached"
"pavlovia","0","2262","0.0-0.0","6698ddf6944e573cf5ceb7a3","not_provided","0.5","desktop","0","0","0","","","","","","","","","","","","","","","","","","","","","","","","","","","","","","","","","","","",""
"preload","1","4767","0.0-2.0","6698ddf6944e573cf5ceb7a3","not_provided","0.5","desktop","0","0","0","true","false","[]","[]","[]","","","","","","","","","","","","","","","","","","","","","","","","","","","","","","",""
"html-keyboard-response","2","19417","0.0-3.0-0.0","6698ddf6944e573cf5ceb7a3","not_provided","0.5","desktop","0","0","0","","","","","","captcha","","","","","","","","","","","","","","","","","","","","","","","","","","","","","",""
"fullscreen","3","28413","0.0-4.0","6698ddf6944e573cf5ceb7a3","not_provided","0.5","desktop","0","0","0","true","","","","","setup","","","","","","","","","","","","","","","","","","","","","","","","","","","","","",""
"html-button-response","4","29506","0.0-5.0-0.0","6698ddf6944e573cf5ceb7a3","not_provided","0.5","desktop","0","0","0","","","","","","screening","1092","
            <div style=""max-width: 600px; text-align: left; font-family: sans-serif; font-size: 1.1rem;"">
                <b>Before we start, we need to ask you some personal questions.</b><br><br>
                Please note that all data is anonymized.
                You will be paid for your time regardless of your answers.
            </div>","0","","","","","","","","","","","","","","","","","","","","","","","","","","",""
"survey-multi-choice","5","57846","0.0-5.0-1.0","6698ddf6944e573cf5ceb7a3","not_provided","0.5","desktop","0","0","0","","","","","","screening","28337","","{""psychiatric"":""No"",""schizophrenia"":""No"",""addiction"":""No"",""asd"":""No"",""adhd"":""No"",""dementia"":""No"",""head_injury"":""No""}","[0,1,2,3,4,5,6]","","","","","","","","","","","","","","","","","","","","","","","","","",""
"html-button-response","6","65203","0.0-6.0-0.0-0.0","6698ddf6944e573cf5ceb7a3","not_provided","0.5","desktop","0","0","0","","","","","","color_blindness","7355","<p>Before we begin, we need to check your color vision.<br>Please select the digit you see in the picture.</p>","0","","","","","","","","","","","","","","","","","","","","","","","","","","",""
"survey-multi-choice","7","71264","0.0-6.0-0.0-1.0","6698ddf6944e573cf5ceb7a3","not_provided","0.5","desktop","0","0","0","","","","","","color_blindness","6059","","{""color_blind1"":""3""}","[0]","","","","","","","","","","","","","","","","","","","","","","","","","",""
"survey-multi-choice","8","74678","0.0-6.0-0.0-2.0","6698ddf6944e573cf5ceb7a3","not_provided","0.5","desktop","0","0","0","","","","","","color_blindness","3411","","{""color_blind2"":""5""}","[0]","","","","","","","","","","","","","","","","","","","","","","","","","",""
"survey-html-form","9","92175","0.0-7.0-0.0","6698ddf6944e573cf5ceb7a3","not_provided","0.5","desktop","0","0","0","","","","","","demographics","17491","","{""age"":""35"",""sex"":""female""}","","","","","","","","","","","","","","","","","","","","","","","","","","",""
"instructions","10","315782","0.0-8.0-0.0-0.0-0.0","6698ddf6944e573cf5ceb7a3","not_provided","0.5","desktop","0","0","0","","","","","","luck_game","223607","","","","[{""page_index"":0,""viewing_time"":33390},{""page_index"":1,""viewing_time"":35606},{""page_index"":2,""viewing_time"":20266},{""page_index"":3,""viewing_time"":17378},{""page_index"":4,""viewing_time"":22382},{""page_index"":5,""viewing_time"":23342},{""page_index"":6,""viewing_time"":17326},{""page_index"":7,""viewing_time"":23160},{""page_index"":8,""viewing_time"":21170},{""page_index"":9,""viewing_time"":9586}]","","","","","","","","","","","","","","","","","","","","","","","","",""
"html-button-response","11","337767","0.0-8.0-0.0-1.0","6698ddf6944e573cf5ceb7a3","not_provided","0.5","desktop","0","0","0","","","","","","luck_game","21983","<div style=""max-width:640px; margin:0 auto; text-align:left;
                               font-family:sans-serif; color:white; padding:10px;"">
            <h3 style=""color:#3498db; text-align:center;"">Quick Reminder</h3>
            <ul style=""line-height:2.1; font-size:1.05em;"">
                <li>There are <strong>3 luck machines</strong>:
                    <span style=""color:#5599ff""><strong>Blue</strong></span> (&uarr; Up),
                    <span style=""color:#55cc55""><strong>Green</strong></span> (&larr; Left),
                    <span style=""color:#ff5555""><strong>Red</strong></span> (&rarr; Right)</li>
                <li>Each turn, <strong>2 machines are READY</strong> and 1 is
                    <strong>unavailable</strong> (shown as a colored outline)</li>
                <li>Press the corresponding arrow key to activate a READY machine</li>
                <li>Activating an <strong>unavailable</strong> machine: lose your turn + time penalty</li>
                <li>Activating a READY machine: <strong class=""win-text"">50% win +&pound;0.05</strong>
                    / <strong class=""lose-text"">50% lose &minus;&pound;0.05</strong></li>
                <li><strong>Time limit:</strong> 6 seconds per turn &mdash; don&rsquo;t miss your chance!</li>
                <li><strong>Goal:</strong> Quickly activate READY machines, avoid unavailable ones</li>
            </ul>
        </div>","0","","","","","","","","","","","","","","","","","","","","","","","","","","",""
"survey-multi-choice","12","441439","0.0-8.0-0.0-2.0","6698ddf6944e573cf5ceb7a3","not_provided","0.5","desktop","0","0","0","","","","","","luck_game","103668","","{""q_total_machines"":""3"",""q_ready_machines"":""2"",""q_blue_key"":""↑ Up arrow key"",""q_red_key"":""→ Right arrow key"",""q_outcome"":""The red machine is unavailable. I will lose my turn and chance to win coins, and get a time penalty."",""q_ready_outcome"":""I will either win a coin (+0.05£) or lose a coin (−0.05£)."",""q_goal"":""My goal is to quickly activate available luck machines, avoiding unavailable machines. If I am lucky, I will get rewarded."",""q_win_rates"":""Red: 50% win rate — Blue: 50% win rate — Green: 50% win rate""}","[0,1,2,3,4,5,6,7]","","luck_game_quiz","","","","","","","","","","","","","","","","","","","","","","","",""
"html-keyboard-response","13","449281","0.0-8.0-1.0","6698ddf6944e573cf5ceb7a3","not_provided","0.5","desktop","0","0","0","","","","","","luck_game","7839","
            <div style=""max-width: 600px; margin: 0 auto; text-align: center; font-family: sans-serif;"">
                <h2 style=""color: #3498db;"">Good job, you learned the instructions!</h2>
                <p>We will now move to a short <strong>training phase</strong> to get you familiar with the game.</p>
                <p>Your score will <strong>not</strong> be counted during training.</p>
                <br>
                <p><strong>Press Space to start training.</strong></p>
            </div>"," ","","","","","","","","","","","","","","","","","","","","","","","","","","",""
"call-function","14","449281","0.0-8.0-2.0","6698ddf6944e573cf5ceb7a3","not_provided","0.5","desktop","0","0","0","","","","","","luck_game","","","","","","","","","","","","","","","","","","","","","","","","","","","","","",""
"html-keyboard-response","15","455293","0.0-8.0-3.0","6698ddf6944e573cf5ceb7a3","not_provided","0.5","desktop","0","0","0","","","","","","luck_game","null","<div class=""experiment-container""><div class=""center-zone""><div class=""cross""></div><div class=""triangle-grid""><div class=""machine top-center blue""></div><div class=""machine bottom-left green-outline""></div><div class=""machine bottom-right red""></div></div></div></div>","null","","","","","gambling_choice","training","1","null","null","null","null","null","null","arrowleft","bottom-left","green","null","null","null","null","0","0","0","0","null","false","true"
"html-keyboard-response","16","456318","0.0-8.0-7.0-0.0","6698ddf6944e573cf5ceb7a3","not_provided","0.5","desktop","0","0","0","","","","","","luck_game","null","
            <div id=""score-counter""></div>
            <div class=""experiment-container"">
                <div class=""center-zone"">
                    <p class=""feedback-text"" style=""margin: 0;"">Too late!</p>
                </div>
            </div>","null","","","","","","","","","","","","","","","","","","","","","","","","","","",""
"html-keyboard-response","17","458376","0.0-8.0-9.0","6698ddf6944e573cf5ceb7a3","not_provided","0.5","desktop","0","0","0","","","","","","luck_game","2057","<div class=""experiment-container""><div class=""center-zone""><div class=""cross""></div><div class=""triangle-grid""><div class=""machine top-center blue""></div><div class=""machine bottom-left green""></div><div class=""machine bottom-right red-outline""></div></div></div></div>","arrowleft","","","","","gambling_choice","training","2","arrowleft","bottom-left","green","null","null","null","arrowright","bottom-right","red","arrowleft","bottom-left","green","0","1","0","0","0.05","0","true","false"
"html-keyboard-response","18","458487","0.0-8.0-10.0-0.0","6698ddf6944e573cf5ceb7a3","not_provided","0.5","desktop","0","0","0","","","","","","luck_game","null","<div class=""experiment-container""><div class=""center-zone""><div class=""cross""></div><div class=""triangle-grid""><div class=""machine top-center blue""></div><div class=""machine bottom-left green""></div><div class=""machine bottom-right red-outline""></div></div></div></div>","null","","","","","","","","","","","","","","","","","","","","","","","","","","",""
"html-keyboard-response","19","458998","0.0-8.0-11.0-0.0","6698ddf6944e573cf5ceb7a3","not_provided","0.5","desktop","0","0","0","","","","","","luck_game","null","<div class=""experiment-container""><div class=""center-zone""><div class=""cross""></div></div></div>","null","","","","","","","","","","","","","","","","","","","","","","","","","","",""
"html-keyboard-response","20","459999","0.0-8.0-12.0-0.0","6698ddf6944e573cf5ceb7a3","not_provided","0.5","desktop","0","0","0","","","","","","luck_game","null","<div class=""experiment-container""><div class=""center-zone""><div class=""cross""></div>
                <div style=""position: absolute; z-index: 10; display: flex; flex-direction: column; align-items: center; justify-content: center;"">
                    <div class=""win-text"" style=""font-size: 48px; font-weight: bold; margin-bottom: 20px; text-shadow: 2px 2px 4px #000;"">WIN</div>
                    <img src=""images/coin_reward.png"" class=""reward-img"" style=""background-color: black; border-radius: 50%;"">
                    <div class=""win-text"" style=""font-size: 48px; font-weight: bold; margin-top: 20px; text-shadow: 2px 2px 4px #000;"">+0.05&pound;</div>
                </div></div></div>","null","","","","","","","","","","","","","","","","","","","","","","","","","","",""
"html-keyboard-response","21","461904","0.0-8.0-15.0","6698ddf6944e573cf5ceb7a3","not_provided","0.5","desktop","0","0","0","","","","","","luck_game","1904","<div class=""experiment-container""><div class=""center-zone""><div class=""cross""></div><div class=""triangle-grid""><div class=""machine top-center blue""></div><div class=""machine bottom-left green-outline""></div><div class=""machine bottom-right red""></div></div></div></div>","arrowright","","","","","gambling_choice","training","3","arrowright","bottom-right","red","arrowleft","bottom-left","green","arrowleft","bottom-left","green","arrowright","bottom-right","red","1","1","0","0","0.05","0.05","true","false"
"html-keyboard-response","22","462012","0.0-8.0-16.0-0.0","6698ddf6944e573cf5ceb7a3","not_provided","0.5","desktop","0","0","0","","","","","","luck_game","null","<div class=""experiment-container""><div class=""center-zone""><div class=""cross""></div><div class=""triangle-grid""><div class=""machine top-center blue""></div><div class=""machine bottom-left green-outline""></div><div class=""machine bottom-right red""></div></div></div></div>","null","","","","","","","","","","","","","","","","","","","","","","","","","","",""
"html-keyboard-response","23","462516","0.0-8.0-17.0-0.0","6698ddf6944e573cf5ceb7a3","not_provided","0.5","desktop","0","0","0","","","","","","luck_game","null","<div class=""experiment-container""><div class=""center-zone""><div class=""cross""></div></div></div>","null","","","","","","","","","","","","","","","","","","","","","","","","","","",""
"html-keyboard-response","24","463532","0.0-8.0-18.0-0.0","6698ddf6944e573cf5ceb7a3","not_provided","0.5","desktop","0","0","0","","","","","","luck_game","null","<div class=""experiment-container""><div class=""center-zone""><div class=""cross""></div>
                <div style=""position: absolute; z-index: 10; display: flex; flex-direction: column; align-items: center; justify-content: center;"">
                    <div class=""win-text"" style=""font-size: 48px; font-weight: bold; margin-bottom: 20px; text-shadow: 2px 2px 4px #000;"">WIN</div>
                    <img src=""images/coin_reward.png"" class=""reward-img"" style=""background-color: black; border-radius: 50%;"">
                    <div class=""win-text"" style=""font-size: 48px; font-weight: bold; margin-top: 20px; text-shadow: 2px 2px 4px #000;"">+0.05&pound;</div>
                </div></div></div>","null","","","","","","","","","","","","","","","","","","","","","","","","","","",""
"html-keyboard-response","25","464972","0.0-8.0-21.0","6698ddf6944e573cf5ceb7a3","not_provided","0.5","desktop","0","0","0","","","","","","luck_game","1440","<div class=""experiment-container""><div class=""center-zone""><div class=""cross""></div><div class=""triangle-grid""><div class=""machine top-center blue-outline""></div><div class=""machine bottom-left green""></div><div class=""machine bottom-right red""></div></div></div></div>","arrowleft","","","","","gambling_choice","training","4","arrowleft","bottom-left","green","arrowright","bottom-right","red","arrowup","top-center","blue","arrowleft","bottom-left","green","1","0","0","0","-0.05","0.05","true","false"
"html-keyboard-response","26","465078","0.0-8.0-22.0-0.0","6698ddf6944e573cf5ceb7a3","not_provided","0.5","desktop","0","0","0","","","","","","luck_game","null","<div class=""experiment-container""><div class=""center-zone""><div class=""cross""></div><div class=""triangle-grid""><div class=""machine top-center blue-outline""></div><div class=""machine bottom-left green""></div><div class=""machine bottom-right red""></div></div></div></div>","null","","","","","","","","","","","","","","","","","","","","","","","","","","",""
"html-keyboard-response","27","465585","0.0-8.0-23.0-0.0","6698ddf6944e573cf5ceb7a3","not_provided","0.5","desktop","0","0","0","","","","","","luck_game","null","<div class=""experiment-container""><div class=""center-zone""><div class=""cross""></div></div></div>","null","","","","","","","","","","","","","","","","","","","","","","","","","","",""
"html-keyboard-response","28","466588","0.0-8.0-24.0-0.0","6698ddf6944e573cf5ceb7a3","not_provided","0.5","desktop","0","0","0","","","","","","luck_game","null","<div class=""experiment-container""><div class=""center-zone""><div class=""cross""></div>
                <div style=""position: absolute; z-index: 10; display: flex; flex-direction: column; align-items: center; justify-content: center;"">
                    <div class=""lose-text"" style=""font-size: 48px; font-weight: bold; margin-bottom: 20px; text-shadow: 2px 2px 4px #000;"">LOSE</div>
                    <img src=""images/coin_no_reward.png"" class=""reward-img"" style=""background-color: black; border-radius: 50%;"">
                    <div class=""lose-text"" style=""font-size: 48px; font-weight: bold; margin-top: 20px; text-shadow: 2px 2px 4px #000;"">-0.05&pound;</div>
                </div></div></div>","null","","","","","","","","","","","","","","","","","","","","","","","","","","",""
"call-function","29","466588","0.0-8.0-27.0","6698ddf6944e573cf5ceb7a3","not_provided","0.5","desktop","0","0","0","","","","","","luck_game","","","","","","","","","","","","","","","","","","","","","","","","","","","","","",""
"html-keyboard-response","30","468400","0.0-8.0-28.0","6698ddf6944e573cf5ceb7a3","not_provided","0.5","desktop","0","0","0","","","","","","luck_game","1811","
            <div style=""max-width: 600px; margin: 0 auto; text-align: center; font-family: sans-serif;"">
                <h2 style=""color: #3498db;"">Training Complete</h2>
                <p>You will now start the real game.</p>
                <br>
                <p><strong>Press Space to begin.</strong></p>
            </div>"," ","","","","","","","","","","","","","","","","","","","","","","","","","","",""
"html-keyboard-response","31","470549","0.0-8.0-29.0","6698ddf6944e573cf5ceb7a3","not_provided","0.5","desktop","0","0","0","","","","","","luck_game","2148","<div id=""score-counter"">TOTAL SCORE: &pound;0.00</div><div class=""experiment-container""><div class=""center-zone""><div class=""cross""></div><div class=""triangle-grid""><div class=""machine top-center blue""></div><div class=""machine bottom-left green""></div><div class=""machine bottom-right red-outline""></div></div></div></div>","arrowleft","","","","","gambling_choice","1","1","arrowleft","bottom-left","green","arrowleft","bottom-left","green","arrowright","bottom-right","red","arrowup","top-center","blue","0","1","0.05","0","0.05","-0.05","true","false"
"html-keyboard-response","32","470651","0.0-8.0-30.0-0.0","6698ddf6944e573cf5ceb7a3","not_provided","0.5","desktop","0","0","0","","","","","","luck_game","null","<div id=""score-counter"">TOTAL SCORE: &pound;0.00</div><div class=""experiment-container""><div class=""center-zone""><div class=""cross""></div><div class=""triangle-grid""><div class=""machine top-center blue""></div><div class=""machine bottom-left green""></div><div class=""machine bottom-right red-outline""></div></div></div></div>","null","","","","","","","","","","","","","","","","","","","","","","","","","","",""
"html-keyboard-response","33","471167","0.0-8.0-31.0-0.0","6698ddf6944e573cf5ceb7a3","not_provided","0.5","desktop","0","0","0","","","","","","luck_game","null","<div id=""score-counter"">TOTAL SCORE: &pound;0.00</div><div class=""experiment-container""><div class=""center-zone""><div class=""cross""></div></div></div>","null","","","","","","","","","","","","","","","","","","","","","","","","","","",""
"html-keyboard-response","34","472180","0.0-8.0-32.0-0.0","6698ddf6944e573cf5ceb7a3","not_provided","0.5","desktop","0","0","0","","","","","","luck_game","null","<div id=""score-counter"">TOTAL SCORE: &pound;0.05</div><div class=""experiment-container""><div class=""center-zone""><div class=""cross""></div>
                <div style=""position: absolute; z-index: 10; display: flex; flex-direction: column; align-items: center; justify-content: center;"">
                    <div class=""win-text"" style=""font-size: 48px; font-weight: bold; margin-bottom: 20px; text-shadow: 2px 2px 4px #000;"">WIN</div>
                    <img src=""images/coin_reward.png"" class=""reward-img"" style=""background-color: black; border-radius: 50%;"">
                    <div class=""win-text"" style=""font-size: 48px; font-weight: bold; margin-top: 20px; text-shadow: 2px 2px 4px #000;"">+0.05&pound;</div>
                </div></div></div>","null","","","","","","","","","","","","","","","","","","","","","","","","","","",""
"html-keyboard-response","35","473267","0.0-8.0-35.0","6698ddf6944e573cf5ceb7a3","not_provided","0.5","desktop","0","0","0","","","","","","luck_game","1086","<div id=""score-counter"">TOTAL SCORE: &pound;0.05</div><div class=""experiment-container""><div class=""center-zone""><div class=""cross""></div><div class=""triangle-grid""><div class=""machine top-center blue""></div><div class=""machine bottom-left green""></div><div class=""machine bottom-right red-outline""></div></div></div></div>","arrowleft","","","","","gambling_choice","1","2","arrowleft","bottom-left","green","arrowleft","bottom-left","green","arrowright","bottom-right","red","arrowright","bottom-right","red","1","1","0.1","0.05","0.05","0.05","true","false"
"html-keyboard-response","36","473379","0.0-8.0-36.0-0.0","6698ddf6944e573cf5ceb7a3","not_provided","0.5","desktop","0","0","0","","","","","","luck_game","null","<div id=""score-counter"">TOTAL SCORE: &pound;0.05</div><div class=""experiment-container""><div class=""center-zone""><div class=""cross""></div><div class=""triangle-grid""><div class=""machine top-center blue""></div><div class=""machine bottom-left green""></div><div class=""machine bottom-right red-outline""></div></div></div></div>","null","","","","","","","","","","","","","","","","","","","","","","","","","","",""
"html-keyboard-response","37","473891","0.0-8.0-37.0-0.0","6698ddf6944e573cf5ceb7a3","not_provided","0.5","desktop","0","0","0","","","","","","luck_game","null","<div id=""score-counter"">TOTAL SCORE: &pound;0.05</div><div class=""experiment-container""><div class=""center-zone""><div class=""cross""></div></div></div>","null","","","","","","","","","","","","","","","","","","","","","","","","","","",""
"html-keyboard-response","38","474904","0.0-8.0-38.0-0.0","6698ddf6944e573cf5ceb7a3","not_provided","0.5","desktop","0","0","0","","","","","","luck_game","null","<div id=""score-counter"">TOTAL SCORE: &pound;0.10</div><div class=""experiment-container""><div class=""center-zone""><div class=""cross""></div>
                <div style=""position: absolute; z-index: 10; display: flex; flex-direction: column; align-items: center; justify-content: center;"">
                    <div class=""win-text"" style=""font-size: 48px; font-weight: bold; margin-bottom: 20px; text-shadow: 2px 2px 4px #000;"">WIN</div>
                    <img src=""images/coin_reward.png"" class=""reward-img"" style=""background-color: black; border-radius: 50%;"">
                    <div class=""win-text"" style=""font-size: 48px; font-weight: bold; margin-top: 20px; text-shadow: 2px 2px 4px #000;"">+0.05&pound;</div>
                </div></div></div>","null","","","","","","","","","","","","","","","","","","","","","","","","","","",""
"html-keyboard-response","39","476307","0.0-8.0-41.0","6698ddf6944e573cf5ceb7a3","not_provided","0.5","desktop","0","0","0","","","","","","luck_game","1403","<div id=""score-counter"">TOTAL SCORE: &pound;0.10</div><div class=""experiment-container""><div class=""center-zone""><div class=""cross""></div><div class=""triangle-grid""><div class=""machine top-center blue-outline""></div><div class=""machine bottom-left green""></div><div class=""machine bottom-right red""></div></div></div></div>","arrowleft","","","","","gambling_choice","1","3","arrowleft","bottom-left","green","arrowleft","bottom-left","green","arrowup","top-center","blue","arrowright","bottom-right","red","1","0","0.05","0.1","-0.05","0.05","true","false"
"html-keyboard-response","40","476414","0.0-8.0-42.0-0.0","6698ddf6944e573cf5ceb7a3","not_provided","0.5","desktop","0","0","0","","","","","","luck_game","null","<div id=""score-counter"">TOTAL SCORE: &pound;0.10</div><div class=""experiment-container""><div class=""center-zone""><div class=""cross""></div><div class=""triangle-grid""><div class=""machine top-center blue-outline""></div><div class=""machine bottom-left green""></div><div class=""machine bottom-right red""></div></div></div></div>","null","","","","","","","","","","","","","","","","","","","","","","","","","","",""
"html-keyboard-response","41","476927","0.0-8.0-43.0-0.0","6698ddf6944e573cf5ceb7a3","not_provided","0.5","desktop","0","0","0","","","","","","luck_game","null","<div id=""score-counter"">TOTAL SCORE: &pound;0.10</div><div class=""experiment-container""><div class=""center-zone""><div class=""cross""></div></div></div>","null","","","","","","","","","","","","","","","","","","","","","","","","","","",""
"html-keyboard-response","42","477941","0.0-8.0-44.0-0.0","6698ddf6944e573cf5ceb7a3","not_provided","0.5","desktop","0","0","0","","","","","","luck_game","null","<div id=""score-counter"">TOTAL SCORE: &pound;0.05</div><div class=""experiment-container""><div class=""center-zone""><div class=""cross""></div>
                <div style=""position: absolute; z-index: 10; display: flex; flex-direction: column; align-items: center; justify-content: center;"">
                    <div class=""lose-text"" style=""font-size: 48px; font-weight: bold; margin-bottom: 20px; text-shadow: 2px 2px 4px #000;"">LOSE</div>
                    <img src=""images/coin_no_reward.png"" class=""reward-img"" style=""background-color: black; border-radius: 50%;"">
                    <div class=""lose-text"" style=""font-size: 48px; font-weight: bold; margin-top: 20px; text-shadow: 2px 2px 4px #000;"">-0.05&pound;</div>
                </div></div></div>","null","","","","","","","","","","","","","","","","","","","","","","","","","","",""
"html-keyboard-response","43","480097","0.0-8.0-47.0","6698ddf6944e573cf5ceb7a3","not_provided","0.5","desktop","0","0","0","","","","","","luck_game","2155","<div id=""score-counter"">TOTAL SCORE: &pound;0.05</div><div class=""experiment-container""><div class=""center-zone""><div class=""cross""></div><div class=""triangle-grid""><div class=""machine top-center blue-outline""></div><div class=""machine bottom-left green""></div><div class=""machine bottom-right red""></div></div></div></div>","arrowleft","","","","","gambling_choice","1","4","arrowleft","bottom-left","green","arrowleft","bottom-left","green","arrowup","top-center","blue","arrowup","top-center","blue","0","0","0","0.05","-0.05","-0.05","true","false"
"html-keyboard-response","44","480199","0.0-8.0-48.0-0.0","6698ddf6944e573cf5ceb7a3","not_provided","0.5","desktop","0","0","0","","","","","","luck_game","null","<div id=""score-counter"">TOTAL SCORE: &pound;0.05</div><div class=""experiment-container""><div class=""center-zone""><div class=""cross""></div><div class=""triangle-grid""><div class=""machine top-center blue-outline""></div><div class=""machine bottom-left green""></div><div class=""machine bottom-right red""></div></div></div></div>","null","","","","","","","","","","","","","","","","","","","","","","","","","","",""
"html-keyboard-response","45","480715","0.0-8.0-49.0-0.0","6698ddf6944e573cf5ceb7a3","not_provided","0.5","desktop","0","0","0","","","","","","luck_game","null","<div id=""score-counter"">TOTAL SCORE: &pound;0.05</div><div class=""experiment-container""><div class=""center-zone""><div class=""cross""></div></div></div>","null","","","","","","","","","","","","","","","","","","","","","","","","","","",""
"html-keyboard-response","46","481724","0.0-8.0-50.0-0.0","6698ddf6944e573cf5ceb7a3","not_provided","0.5","desktop","0","0","0","","","","","","luck_game","null","<div id=""score-counter"">TOTAL SCORE: &pound;0.00</div><div class=""experiment-container""><div class=""center-zone""><div class=""cross""></div>
                <div style=""position: absolute; z-index: 10; display: flex; flex-direction: column; align-items: center; justify-content: center;"">
                    <div class=""lose-text"" style=""font-size: 48px; font-weight: bold; margin-bottom: 20px; text-shadow: 2px 2px 4px #000;"">LOSE</div>
                    <img src=""images/coin_no_reward.png"" class=""reward-img"" style=""background-color: black; border-radius: 50%;"">
                    <div class=""lose-text"" style=""font-size: 48px; font-weight: bold; margin-top: 20px; text-shadow: 2px 2px 4px #000;"">-0.05&pound;</div>
                </div></div></div>","null","","","","","","","","","","","","","","","","","","","","","","","","","","",""
"html-keyboard-response","47","483674","0.0-8.0-53.0","6698ddf6944e573cf5ceb7a3","not_provided","0.5","desktop","0","0","0","","","","","","luck_game","1949","<div id=""score-counter"">TOTAL SCORE: &pound;0.00</div><div class=""experiment-container""><div class=""center-zone""><div class=""cross""></div><div class=""triangle-grid""><div class=""machine top-center blue-outline""></div><div class=""machine bottom-left green""></div><div class=""machine bottom-right red""></div></div></div></div>","arrowright","","","","","gambling_choice","1","5","arrowright","bottom-right","red","arrowleft","bottom-left","green","arrowup","top-center","blue","arrowup","top-center","blue","0","0","0","0","-0.05","-0.05","true","false"
"html-keyboard-response","48","483783","0.0-8.0-54.0-0.0","6698ddf6944e573cf5ceb7a3","not_provided","0.5","desktop","0","0","0","","","","","","luck_game","null","<div id=""score-counter"">TOTAL SCORE: &pound;0.00</div><div class=""experiment-container""><div class=""center-zone""><div class=""cross""></div><div class=""triangle-grid""><div class=""machine top-center blue-outline""></div><div class=""machine bottom-left green""></div><div class=""machine bottom-right red""></div></div></div></div>","null","","","","","","","","","","","","","","","","","","","","","","","","","","",""
"html-keyboard-response","49","484299","0.0-8.0-55.0-0.0","6698ddf6944e573cf5ceb7a3","not_provided","0.5","desktop","0","0","0","","","","","","luck_game","null","<div id=""score-counter"">TOTAL SCORE: &pound;0.00</div><div class=""experiment-container""><div class=""center-zone""><div class=""cross""></div></div></div>","null","","","","","","","","","","","","","","","","","","","","","","","","","","",""
"html-keyboard-response","50","485310","0.0-8.0-56.0-0.0","6698ddf6944e573cf5ceb7a3","not_provided","0.5","desktop","0","0","0","","","","","","luck_game","null","<div id=""score-counter"">TOTAL SCORE: &pound;0.00</div><div class=""experiment-container""><div class=""center-zone""><div class=""cross""></div>
                <div style=""position: absolute; z-index: 10; display: flex; flex-direction: column; align-items: center; justify-content: center;"">
                    <div class=""lose-text"" style=""font-size: 48px; font-weight: bold; margin-bottom: 20px; text-shadow: 2px 2px 4px #000;"">LOSE</div>
                    <img src=""images/coin_no_reward.png"" class=""reward-img"" style=""background-color: black; border-radius: 50%;"">
                    <div class=""lose-text"" style=""font-size: 48px; font-weight: bold; margin-top: 20px; text-shadow: 2px 2px 4px #000;"">-0.05&pound;</div>
                </div></div></div>","null","","","","","","","","","","","","","","","","","","","","","","","","","","",""
"html-keyboard-response","51","489411","0.0-8.0-59.0","6698ddf6944e573cf5ceb7a3","not_provided","0.5","desktop","0","0","0","","","","","","luck_game","4100","<div id=""score-counter"">TOTAL SCORE: &pound;0.00</div><div class=""experiment-container""><div class=""center-zone""><div class=""cross""></div><div class=""triangle-grid""><div class=""machine top-center blue""></div><div class=""machine bottom-left green-outline""></div><div class=""machine bottom-right red""></div></div></div></div>","arrowup","","","","","gambling_choice","1","6","arrowup","top-center","blue","arrowright","bottom-right","red","arrowleft","bottom-left","green","arrowup","top-center","blue","0","0","0","0","-0.05","-0.05","true","false"
"html-keyboard-response","52","489515","0.0-8.0-60.0-0.0","6698ddf6944e573cf5ceb7a3","not_provided","0.5","desktop","0","0","0","","","","","","luck_game","null","<div id=""score-counter"">TOTAL SCORE: &pound;0.00</div><div class=""experiment-container""><div class=""center-zone""><div class=""cross""></div><div class=""triangle-grid""><div class=""machine top-center blue""></div><div class=""machine bottom-left green-outline""></div><div class=""machine bottom-right red""></div></div></div></div>","null","","","","","","","","","","","","","","","","","","","","","","","","","","",""
"html-keyboard-response","53","490022","0.0-8.0-61.0-0.0","6698ddf6944e573cf5ceb7a3","not_provided","0.5","desktop","0","0","0","","","","","","luck_game","null","<div id=""score-counter"">TOTAL SCORE: &pound;0.00</div><div class=""experiment-container""><div class=""center-zone""><div class=""cross""></div></div></div>","null","","","","","","","","","","","","","","","","","","","","","","","","","","",""
"html-keyboard-response","54","491039","0.0-8.0-62.0-0.0","6698ddf6944e573cf5ceb7a3","not_provided","0.5","desktop","0","0","0","","","","","","luck_game","null","<div id=""score-counter"">TOTAL SCORE: &pound;0.00</div><div class=""experiment-container""><div class=""center-zone""><div class=""cross""></div>
                <div style=""position: absolute; z-index: 10; display: flex; flex-direction: column; align-items: center; justify-content: center;"">
                    <div class=""lose-text"" style=""font-size: 48px; font-weight: bold; margin-bottom: 20px; text-shadow: 2px 2px 4px #000;"">LOSE</div>
                    <img src=""images/coin_no_reward.png"" class=""reward-img"" style=""background-color: black; border-radius: 50%;"">
                    <div class=""lose-text"" style=""font-size: 48px; font-weight: bold; margin-top: 20px; text-shadow: 2px 2px 4px #000;"">-0.05&pound;</div>
                </div></div></div>","null","","","","","","","","","","","","","","","","","","","","","","","","","","",""
"html-keyboard-response","55","492024","0.0-8.0-65.0","6698ddf6944e573cf5ceb7a3","not_provided","0.5","desktop","0","0","0","","","","","","luck_game","984","<div id=""score-counter"">TOTAL SCORE: &pound;0.00</div><div class=""experiment-container""><div class=""center-zone""><div class=""cross""></div><div class=""triangle-grid""><div class=""machine top-center blue-outline""></div><div class=""machine bottom-left green""></div><div class=""machine bottom-right red""></div></div></div></div>","arrowleft","","","","","gambling_choice","1","7","arrowleft","bottom-left","green","arrowup","top-center","blue","arrowup","top-center","blue","arrowleft","bottom-left","green","0","0","0","0","-0.05","-0.05","true","false"
"html-keyboard-response","56","492134","0.0-8.0-66.0-0.0","6698ddf6944e573cf5ceb7a3","not_provided","0.5","desktop","0","0","0","","","","","","luck_game","null","<div id=""score-counter"">TOTAL SCORE: &pound;0.00</div><div class=""experiment-container""><div class=""center-zone""><div class=""cross""></div><div class=""triangle-grid""><div class=""machine top-center blue-outline""></div><div class=""machine bottom-left green""></div><div class=""machine bottom-right red""></div></div></div></div>","null","","","","","","","","","","","","","","","","","","","","","","","","","","",""
"html-keyboard-response","57","492649","0.0-8.0-67.0-0.0","6698ddf6944e573cf5ceb7a3","not_provided","0.5","desktop","0","0","0","","","","","","luck_game","null","<div id=""score-counter"">TOTAL SCORE: &pound;0.00</div><div class=""experiment-container""><div class=""center-zone""><div class=""cross""></div></div></div>","null","","","","","","","","","","","","","","","","","","","","","","","","","","",""
"html-keyboard-response","58","493665","0.0-8.0-68.0-0.0","6698ddf6944e573cf5ceb7a3","not_provided","0.5","desktop","0","0","0","","","","","","luck_game","null","<div id=""score-counter"">TOTAL SCORE: &pound;0.00</div><div class=""experiment-container""><div class=""center-zone""><div class=""cross""></div>
                <div style=""position: absolute; z-index: 10; display: flex; flex-direction: column; align-items: center; justify-content: center;"">
                    <div class=""lose-text"" style=""font-size: 48px; font-weight: bold; margin-bottom: 20px; text-shadow: 2px 2px 4px #000;"">LOSE</div>
                    <img src=""images/coin_no_reward.png"" class=""reward-img"" style=""background-color: black; border-radius: 50%;"">
                    <div class=""lose-text"" style=""font-size: 48px; font-weight: bold; margin-top: 20px; text-shadow: 2px 2px 4px #000;"">-0.05&pound;</div>
                </div></div></div>","null","","","","","","","","","","","","","","","","","","","","","","","","","","",""
"html-keyboard-response","59","494562","0.0-8.0-71.0","6698ddf6944e573cf5ceb7a3","not_provided","0.5","desktop","0","0","0","","","","","","luck_game","897","<div id=""score-counter"">TOTAL SCORE: &pound;0.00</div><div class=""experiment-container""><div class=""center-zone""><div class=""cross""></div><div class=""triangle-grid""><div class=""machine top-center blue""></div><div class=""machine bottom-left green""></div><div class=""machine bottom-right red-outline""></div></div></div></div>","arrowleft","","","","","gambling_choice","1","8","arrowleft","bottom-left","green","arrowleft","bottom-left","green","arrowright","bottom-right","red","arrowup","top-center","blue","0","0","0","0","-0.05","-0.05","true","false"
"html-keyboard-response","60","494673","0.0-8.0-72.0-0.0","6698ddf6944e573cf5ceb7a3","not_provided","0.5","desktop","0","0","0","","","","","","luck_game","null","<div id=""score-counter"">TOTAL SCORE: &pound;0.00</div><div class=""experiment-container""><div class=""center-zone""><div class=""cross""></div><div class=""triangle-grid""><div class=""machine top-center blue""></div><div class=""machine bottom-left green""></div><div class=""machine bottom-right red-outline""></div></div></div></div>","null","","","","","","","","","","","","","","","","","","","","","","","","","","",""
"html-keyboard-response","61","495183","0.0-8.0-73.0-0.0","6698ddf6944e573cf5ceb7a3","not_provided","0.5","desktop","0","0","0","","","","","","luck_game","null","<div id=""score-counter"">TOTAL SCORE: &pound;0.00</div><div class=""experiment-container""><div class=""center-zone""><div class=""cross""></div></div></div>","null","","","","","","","","","","","","","","","","","","","","","","","","","","",""
"html-keyboard-response","62","496193","0.0-8.0-74.0-0.0","6698ddf6944e573cf5ceb7a3","not_provided","0.5","desktop","0","0","0","","","","","","luck_game","null","<div id=""score-counter"">TOTAL SCORE: &pound;0.00</div><div class=""experiment-container""><div class=""center-zone""><div class=""cross""></div>
                <div style=""position: absolute; z-index: 10; display: flex; flex-direction: column; align-items: center; justify-content: center;"">
                    <div class=""lose-text"" style=""font-size: 48px; font-weight: bold; margin-bottom: 20px; text-shadow: 2px 2px 4px #000;"">LOSE</div>
                    <img src=""images/coin_no_reward.png"" class=""reward-img"" style=""background-color: black; border-radius: 50%;"">
                    <div class=""lose-text"" style=""font-size: 48px; font-weight: bold; margin-top: 20px; text-shadow: 2px 2px 4px #000;"">-0.05&pound;</div>
                </div></div></div>","null","","","","","","","","","","","","","","","","","","","","","","","","","","",""
"html-keyboard-response","63","496990","0.0-8.0-77.0","6698ddf6944e573cf5ceb7a3","not_provided","0.5","desktop","0","0","0","","","","","","luck_game","796","<div id=""score-counter"">TOTAL SCORE: &pound;0.00</div><div class=""experiment-container""><div class=""center-zone""><div class=""cross""></div><div class=""triangle-grid""><div class=""machine top-center blue""></div><div class=""machine bottom-left green""></div><div class=""machine bottom-right red-outline""></div></div></div></div>","arrowleft","","","","","gambling_choice","1","9","arrowleft","bottom-left","green","arrowleft","bottom-left","green","arrowright","bottom-right","red","arrowright","bottom-right","red","0","1","0.05","0","0.05","-0.05","true","false"
"html-keyboard-response","64","497094","0.0-8.0-78.0-0.0","6698ddf6944e573cf5ceb7a3","not_provided","0.5","desktop","0","0","0","","","","","","luck_game","null","<div id=""score-counter"">TOTAL SCORE: &pound;0.00</div><div class=""experiment-container""><div class=""center-zone""><div class=""cross""></div><div class=""triangle-grid""><div class=""machine top-center blue""></div><div class=""machine bottom-left green""></div><div class=""machine bottom-right red-outline""></div></div></div></div>","null","","","","","","","","","","","","","","","","","","","","","","","","","","",""
"html-keyboard-response","65","497608","0.0-8.0-79.0-0.0","6698ddf6944e573cf5ceb7a3","not_provided","0.5","desktop","0","0","0","","","","","","luck_game","null","<div id=""score-counter"">TOTAL SCORE: &pound;0.00</div><div class=""experiment-container""><div class=""center-zone""><div class=""cross""></div></div></div>","null","","","","","","","","","","","","","","","","","","","","","","","","","","",""
"html-keyboard-response","66","498620","0.0-8.0-80.0-0.0","6698ddf6944e573cf5ceb7a3","not_provided","0.5","desktop","0","0","0","","","","","","luck_game","null","<div id=""score-counter"">TOTAL SCORE: &pound;0.05</div><div class=""experiment-container""><div class=""center-zone""><div class=""cross""></div>
                <div style=""position: absolute; z-index: 10; display: flex; flex-direction: column; align-items: center; justify-content: center;"">
                    <div class=""win-text"" style=""font-size: 48px; font-weight: bold; margin-bottom: 20px; text-shadow: 2px 2px 4px #000;"">WIN</div>
                    <img src=""images/coin_reward.png"" class=""reward-img"" style=""background-color: black; border-radius: 50%;"">
                    <div class=""win-text"" style=""font-size: 48px; font-weight: bold; margin-top: 20px; text-shadow: 2px 2px 4px #000;"">+0.05&pound;</div>
                </div></div></div>","null","","","","","","","","","","","","","","","","","","","","","","","","","","",""
"html-keyboard-response","67","500137","0.0-8.0-83.0","6698ddf6944e573cf5ceb7a3","not_provided","0.5","desktop","0","0","0","","","","","","luck_game","1517","<div id=""score-counter"">TOTAL SCORE: &pound;0.05</div><div class=""experiment-container""><div class=""center-zone""><div class=""cross""></div><div class=""triangle-grid""><div class=""machine top-center blue""></div><div class=""machine bottom-left green""></div><div class=""machine bottom-right red-outline""></div></div></div></div>","arrowleft","","","","","gambling_choice","1","10","arrowleft","bottom-left","green","arrowleft","bottom-left","green","arrowright","bottom-right","red","arrowright","bottom-right","red","1","0","0","0.05","-0.05","0.05","true","false"
"html-keyboard-response","68","500248","0.0-8.0-84.0-0.0","6698ddf6944e573cf5ceb7a3","not_provided","0.5","desktop","0","0","0","","","","","","luck_game","null","<div id=""score-counter"">TOTAL SCORE: &pound;0.05</div><div class=""experiment-container""><div class=""center-zone""><div class=""cross""></div><div class=""triangle-grid""><div class=""machine top-center blue""></div><div class=""machine bottom-left green""></div><div class=""machine bottom-right red-outline""></div></div></div></div>","null","","","","","","","","","","","","","","","","","","","","","","","","","","",""
"html-keyboard-response","69","500761","0.0-8.0-85.0-0.0","6698ddf6944e573cf5ceb7a3","not_provided","0.5","desktop","0","0","0","","","","","","luck_game","null","<div id=""score-counter"">TOTAL SCORE: &pound;0.05</div><div class=""experiment-container""><div class=""center-zone""><div class=""cross""></div></div></div>","null","","","","","","","","","","","","","","","","","","","","","","","","","","",""
"html-keyboard-response","70","501773","0.0-8.0-86.0-0.0","6698ddf6944e573cf5ceb7a3","not_provided","0.5","desktop","0","0","0","","","","","","luck_game","null","<div id=""score-counter"">TOTAL SCORE: &pound;0.00</div><div class=""experiment-container""><div class=""center-zone""><div class=""cross""></div>
                <div style=""position: absolute; z-index: 10; display: flex; flex-direction: column; align-items: center; justify-content: center;"">
                    <div class=""lose-text"" style=""font-size: 48px; font-weight: bold; margin-bottom: 20px; text-shadow: 2px 2px 4px #000;"">LOSE</div>
                    <img src=""images/coin_no_reward.png"" class=""reward-img"" style=""background-color: black; border-radius: 50%;"">
                    <div class=""lose-text"" style=""font-size: 48px; font-weight: bold; margin-top: 20px; text-shadow: 2px 2px 4px #000;"">-0.05&pound;</div>
                </div></div></div>","null","","","","","","","","","","","","","","","","","","","","","","","","","","",""
"html-keyboard-response","71","503426","0.0-8.0-89.0","6698ddf6944e573cf5ceb7a3","not_provided","0.5","desktop","0","0","0","","","","","","luck_game","1652","<div id=""score-counter"">TOTAL SCORE: &pound;0.00</div><div class=""experiment-container""><div class=""center-zone""><div class=""cross""></div><div class=""triangle-grid""><div class=""machine top-center blue-outline""></div><div class=""machine bottom-left green""></div><div class=""machine bottom-right red""></div></div></div></div>","arrowleft","","","","","gambling_choice","1","11","arrowleft","bottom-left","green","arrowleft","bottom-left","green","arrowup","top-center","blue","arrowright","bottom-right","red","0","1","0.05","0","0.05","-0.05","true","false"
"html-keyboard-response","72","503539","0.0-8.0-90.0-0.0","6698ddf6944e573cf5ceb7a3","not_provided","0.5","desktop","0","0","0","","","","","","luck_game","null","<div id=""score-counter"">TOTAL SCORE: &pound;0.00</div><div class=""experiment-container""><div class=""center-zone""><div class=""cross""></div><div class=""triangle-grid""><div class=""machine top-center blue-outline""></div><div class=""machine bottom-left green""></div><div class=""machine bottom-right red""></div></div></div></div>","null","","","","","","","","","","","","","","","","","","","","","","","","","","",""
"html-keyboard-response","73","504052","0.0-8.0-91.0-0.0","6698ddf6944e573cf5ceb7a3","not_provided","0.5","desktop","0","0","0","","","","","","luck_game","null","<div id=""score-counter"">TOTAL SCORE: &pound;0.00</div><div class=""experiment-container""><div class=""center-zone""><div class=""cross""></div></div></div>","null","","","","","","","","","","","","","","","","","","","","","","","","","","",""
"html-keyboard-response","74","505068","0.0-8.0-92.0-0.0","6698ddf6944e573cf5ceb7a3","not_provided","0.5","desktop","0","0","0","","","","","","luck_game","null","<div id=""score-counter"">TOTAL SCORE: &pound;0.05</div><div class=""experiment-container""><div class=""center-zone""><div class=""cross""></div>
                <div style=""position: absolute; z-index: 10; display: flex; flex-direction: column; align-items: center; justify-content: center;"">
                    <div class=""win-text"" style=""font-size: 48px; font-weight: bold; margin-bottom: 20px; text-shadow: 2px 2px 4px #000;"">WIN</div>
                    <img src=""images/coin_reward.png"" class=""reward-img"" style=""background-color: black; border-radius: 50%;"">
                    <div class=""win-text"" style=""font-size: 48px; font-weight: bold; margin-top: 20px; text-shadow: 2px 2px 4px #000;"">+0.05&pound;</div>
                </div></div></div>","null","","","","","","","","","","","","","","","","","","","","","","","","","","",""
"html-keyboard-response","75","506146","0.0-8.0-95.0","6698ddf6944e573cf5ceb7a3","not_provided","0.5","desktop","0","0","0","","","","","","luck_game","1077","<div id=""score-counter"">TOTAL SCORE: &pound;0.05</div><div class=""experiment-container""><div class=""center-zone""><div class=""cross""></div><div class=""triangle-grid""><div class=""machine top-center blue""></div><div class=""machine bottom-left green""></div><div class=""machine bottom-right red-outline""></div></div></div></div>","arrowleft","","","","","gambling_choice","1","12","arrowleft","bottom-left","green","arrowleft","bottom-left","green","arrowright","bottom-right","red","arrowup","top-center","blue","1","1","0.1","0.05","0.05","0.05","true","false"
"html-keyboard-response","76","506249","0.0-8.0-96.0-0.0","6698ddf6944e573cf5ceb7a3","not_provided","0.5","desktop","0","0","0","","","","","","luck_game","null","<div id=""score-counter"">TOTAL SCORE: &pound;0.05</div><div class=""experiment-container""><div class=""center-zone""><div class=""cross""></div><div class=""triangle-grid""><div class=""machine top-center blue""></div><div class=""machine bottom-left green""></div><div class=""machine bottom-right red-outline""></div></div></div></div>","null","","","","","","","","","","","","","","","","","","","","","","","","","","",""
"html-keyboard-response","77","506750","0.0-8.0-97.0-0.0","6698ddf6944e573cf5ceb7a3","not_provided","0.5","desktop","0","0","0","","","","","","luck_game","null","<div id=""score-counter"">TOTAL SCORE: &pound;0.05</div><div class=""experiment-container""><div class=""center-zone""><div class=""cross""></div></div></div>","null","","","","","","","","","","","","","","","","","","","","","","","","","","",""
"html-keyboard-response","78","507760","0.0-8.0-98.0-0.0","6698ddf6944e573cf5ceb7a3","not_provided","0.5","desktop","0","0","0","","","","","","luck_game","null","<div id=""score-counter"">TOTAL SCORE: &pound;0.10</div><div class=""experiment-container""><div class=""center-zone""><div class=""cross""></div>
                <div style=""position: absolute; z-index: 10; display: flex; flex-direction: column; align-items: center; justify-content: center;"">
                    <div class=""win-text"" style=""font-size: 48px; font-weight: bold; margin-bottom: 20px; text-shadow: 2px 2px 4px #000;"">WIN</div>
                    <img src=""images/coin_reward.png"" class=""reward-img"" style=""background-color: black; border-radius: 50%;"">
                    <div class=""win-text"" style=""font-size: 48px; font-weight: bold; margin-top: 20px; text-shadow: 2px 2px 4px #000;"">+0.05&pound;</div>
                </div></div></div>","null","","","","","","","","","","","","","","","","","","","","","","","","","","",""
"html-keyboard-response","79","508794","0.0-8.0-101.0","6698ddf6944e573cf5ceb7a3","not_provided","0.5","desktop","0","0","0","","","","","","luck_game","1033","<div id=""score-counter"">TOTAL SCORE: &pound;0.10</div><div class=""experiment-container""><div class=""center-zone""><div class=""cross""></div><div class=""triangle-grid""><div class=""machine top-center blue""></div><div class=""machine bottom-left green""></div><div class=""machine bottom-right red-outline""></div></div></div></div>","arrowleft","","","","","gambling_choice","1","13","arrowleft","bottom-left","green","arrowleft","bottom-left","green","arrowright","bottom-right","red","arrowright","bottom-right","red","1","0","0.05","0.1","-0.05","0.05","true","false"
"html-keyboard-response","80","508896","0.0-8.0-102.0-0.0","6698ddf6944e573cf5ceb7a3","not_provided","0.5","desktop","0","0","0","","","","","","luck_game","null","<div id=""score-counter"">TOTAL SCORE: &pound;0.10</div><div class=""experiment-container""><div class=""center-zone""><div class=""cross""></div><div class=""triangle-grid""><div class=""machine top-center blue""></div><div class=""machine bottom-left green""></div><div class=""machine bottom-right red-outline""></div></div></div></div>","null","","","","","","","","","","","","","","","","","","","","","","","","","","",""
"html-keyboard-response","81","509399","0.0-8.0-103.0-0.0","6698ddf6944e573cf5ceb7a3","not_provided","0.5","desktop","0","0","0","","","","","","luck_game","null","<div id=""score-counter"">TOTAL SCORE: &pound;0.10</div><div class=""experiment-container""><div class=""center-zone""><div class=""cross""></div></div></div>","null","","","","","","","","","","","","","","","","","","","","","","","","","","",""
"html-keyboard-response","82","510401","0.0-8.0-104.0-0.0","6698ddf6944e573cf5ceb7a3","not_provided","0.5","desktop","0","0","0","","","","","","luck_game","null","<div id=""score-counter"">TOTAL SCORE: &pound;0.05</div><div class=""experiment-container""><div class=""center-zone""><div class=""cross""></div>
                <div style=""position: absolute; z-index: 10; display: flex; flex-direction: column; align-items: center; justify-content: center;"">
                    <div class=""lose-text"" style=""font-size: 48px; font-weight: bold; margin-bottom: 20px; text-shadow: 2px 2px 4px #000;"">LOSE</div>
                    <img src=""images/coin_no_reward.png"" class=""reward-img"" style=""background-color: black; border-radius: 50%;"">
                    <div class=""lose-text"" style=""font-size: 48px; font-weight: bold; margin-top: 20px; text-shadow: 2px 2px 4px #000;"">-0.05&pound;</div>
                </div></div></div>","null","","","","","","","","","","","","","","","","","","","","","","","","","","",""
"html-keyboard-response","83","511537","0.0-8.0-107.0","6698ddf6944e573cf5ceb7a3","not_provided","0.5","desktop","0","0","0","","","","","","luck_game","1135","<div id=""score-counter"">TOTAL SCORE: &pound;0.05</div><div class=""experiment-container""><div class=""center-zone""><div class=""cross""></div><div class=""triangle-grid""><div class=""machine top-center blue-outline""></div><div class=""machine bottom-left green""></div><div class=""machine bottom-right red""></div></div></div></div>","arrowleft","","","","","gambling_choice","1","14","arrowleft","bottom-left","green","arrowleft","bottom-left","green","arrowup","top-center","blue","arrowright","bottom-right","red","0","0","0","0.05","-0.05","-0.05","true","false"
"html-keyboard-response","84","511645","0.0-8.0-108.0-0.0","6698ddf6944e573cf5ceb7a3","not_provided","0.5","desktop","0","0","0","","","","","","luck_game","null","<div id=""score-counter"">TOTAL SCORE: &pound;0.05</div><div class=""experiment-container""><div class=""center-zone""><div class=""cross""></div><div class=""triangle-grid""><div class=""machine top-center blue-outline""></div><div class=""machine bottom-left green""></div><div class=""machine bottom-right red""></div></div></div></div>","null","","","","","","","","","","","","","","","","","","","","","","","","","","",""
"html-keyboard-response","85","512156","0.0-8.0-109.0-0.0","6698ddf6944e573cf5ceb7a3","not_provided","0.5","desktop","0","0","0","","","","","","luck_game","null","<div id=""score-counter"">TOTAL SCORE: &pound;0.05</div><div class=""experiment-container""><div class=""center-zone""><div class=""cross""></div></div></div>","null","","","","","","","","","","","","","","","","","","","","","","","","","","",""
"html-keyboard-response","86","513168","0.0-8.0-110.0-0.0","6698ddf6944e573cf5ceb7a3","not_provided","0.5","desktop","0","0","0","","","","","","luck_game","null","<div id=""score-counter"">TOTAL SCORE: &pound;0.00</div><div class=""experiment-container""><div class=""center-zone""><div class=""cross""></div>
                <div style=""position: absolute; z-index: 10; display: flex; flex-direction: column; align-items: center; justify-content: center;"">
                    <div class=""lose-text"" style=""font-size: 48px; font-weight: bold; margin-bottom: 20px; text-shadow: 2px 2px 4px #000;"">LOSE</div>
                    <img src=""images/coin_no_reward.png"" class=""reward-img"" style=""background-color: black; border-radius: 50%;"">
                    <div class=""lose-text"" style=""font-size: 48px; font-weight: bold; margin-top: 20px; text-shadow: 2px 2px 4px #000;"">-0.05&pound;</div>
                </div></div></div>","null","","","","","","","","","","","","","","","","","","","","","","","","","","",""
"html-keyboard-response","87","514207","0.0-8.0-113.0","6698ddf6944e573cf5ceb7a3","not_provided","0.5","desktop","0","0","0","","","","","","luck_game","1039","<div id=""score-counter"">TOTAL SCORE: &pound;0.00</div><div class=""experiment-container""><div class=""center-zone""><div class=""cross""></div><div class=""triangle-grid""><div class=""machine top-center blue""></div><div class=""machine bottom-left green""></div><div class=""machine bottom-right red-outline""></div></div></div></div>","arrowleft","","","","","gambling_choice","1","15","arrowleft","bottom-left","green","arrowleft","bottom-left","green","arrowright","bottom-right","red","arrowup","top-center","blue","0","0","0","0","-0.05","-0.05","true","false"
"html-keyboard-response","88","514310","0.0-8.0-114.0-0.0","6698ddf6944e573cf5ceb7a3","not_provided","0.5","desktop","0","0","0","","","","","","luck_game","null","<div id=""score-counter"">TOTAL SCORE: &pound;0.00</div><div class=""experiment-container""><div class=""center-zone""><div class=""cross""></div><div class=""triangle-grid""><div class=""machine top-center blue""></div><div class=""machine bottom-left green""></div><div class=""machine bottom-right red-outline""></div></div></div></div>","null","","","","","","","","","","","","","","","","","","","","","","","","","","",""
"html-keyboard-response","89","514813","0.0-8.0-115.0-0.0","6698ddf6944e573cf5ceb7a3","not_provided","0.5","desktop","0","0","0","","","","","","luck_game","null","<div id=""score-counter"">TOTAL SCORE: &pound;0.00</div><div class=""experiment-container""><div class=""center-zone""><div class=""cross""></div></div></div>","null","","","","","","","","","","","","","","","","","","","","","","","","","","",""
"html-keyboard-response","90","515823","0.0-8.0-116.0-0.0","6698ddf6944e573cf5ceb7a3","not_provided","0.5","desktop","0","0","0","","","","","","luck_game","null","<div id=""score-counter"">TOTAL SCORE: &pound;0.00</div><div class=""experiment-container""><div class=""center-zone""><div class=""cross""></div>
                <div style=""position: absolute; z-index: 10; display: flex; flex-direction: column; align-items: center; justify-content: center;"">
                    <div class=""lose-text"" style=""font-size: 48px; font-weight: bold; margin-bottom: 20px; text-shadow: 2px 2px 4px #000;"">LOSE</div>
                    <img src=""images/coin_no_reward.png"" class=""reward-img"" style=""background-color: black; border-radius: 50%;"">
                    <div class=""lose-text"" style=""font-size: 48px; font-weight: bold; margin-top: 20px; text-shadow: 2px 2px 4px #000;"">-0.05&pound;</div>
                </div></div></div>","null","","","","","","","","","","","","","","","","","","","","","","","","","","",""
"html-keyboard-response","91","516807","0.0-8.0-119.0","6698ddf6944e573cf5ceb7a3","not_provided","0.5","desktop","0","0","0","","","","","","luck_game","983","<div id=""score-counter"">TOTAL SCORE: &pound;0.00</div><div class=""experiment-container""><div class=""center-zone""><div class=""cross""></div><div class=""triangle-grid""><div class=""machine top-center blue-outline""></div><div class=""machine bottom-left green""></div><div class=""machine bottom-right red""></div></div></div></div>","arrowleft","","","","","gambling_choice","1","16","arrowleft","bottom-left","green","arrowleft","bottom-left","green","arrowup","top-center","blue","arrowright","bottom-right","red","0","0","0","0","-0.05","-0.05","true","false"
"html-keyboard-response","92","516913","0.0-8.0-120.0-0.0","6698ddf6944e573cf5ceb7a3","not_provided","0.5","desktop","0","0","0","","","","","","luck_game","null","<div id=""score-counter"">TOTAL SCORE: &pound;0.00</div><div class=""experiment-container""><div class=""center-zone""><div class=""cross""></div><div class=""triangle-grid""><div class=""machine top-center blue-outline""></div><div class=""machine bottom-left green""></div><div class=""machine bottom-right red""></div></div></div></div>","null","","","","","","","","","","","","","","","","","","","","","","","","","","",""
"html-keyboard-response","93","517423","0.0-8.0-121.0-0.0","6698ddf6944e573cf5ceb7a3","not_provided","0.5","desktop","0","0","0","","","","","","luck_game","null","<div id=""score-counter"">TOTAL SCORE: &pound;0.00</div><div class=""experiment-container""><div class=""center-zone""><div class=""cross""></div></div></div>","null","","","","","","","","","","","","","","","","","","","","","","","","","","",""
"html-keyboard-response","94","518433","0.0-8.0-122.0-0.0","6698ddf6944e573cf5ceb7a3","not_provided","0.5","desktop","0","0","0","","","","","","luck_game","null","<div id=""score-counter"">TOTAL SCORE: &pound;0.00</div><div class=""experiment-container""><div class=""center-zone""><div class=""cross""></div>
                <div style=""position: absolute; z-index: 10; display: flex; flex-direction: column; align-items: center; justify-content: center;"">
                    <div class=""lose-text"" style=""font-size: 48px; font-weight: bold; margin-bottom: 20px; text-shadow: 2px 2px 4px #000;"">LOSE</div>
                    <img src=""images/coin_no_reward.png"" class=""reward-img"" style=""background-color: black; border-radius: 50%;"">
                    <div class=""lose-text"" style=""font-size: 48px; font-weight: bold; margin-top: 20px; text-shadow: 2px 2px 4px #000;"">-0.05&pound;</div>
                </div></div></div>","null","","","","","","","","","","","","","","","","","","","","","","","","","","",""
"html-keyboard-response","95","520090","0.0-8.0-125.0","6698ddf6944e573cf5ceb7a3","not_provided","0.5","desktop","0","0","0","","","","","","luck_game","1656","<div id=""score-counter"">TOTAL SCORE: &pound;0.00</div><div class=""experiment-container""><div class=""center-zone""><div class=""cross""></div><div class=""triangle-grid""><div class=""machine top-center blue""></div><div class=""machine bottom-left green""></div><div class=""machine bottom-right red-outline""></div></div></div></div>","arrowleft","","","","","gambling_choice","1","17","arrowleft","bottom-left","green","arrowleft","bottom-left","green","arrowright","bottom-right","red","arrowup","top-center","blue","0","1","0.05","0","0.05","-0.05","true","false"
"html-keyboard-response","96","520199","0.0-8.0-126.0-0.0","6698ddf6944e573cf5ceb7a3","not_provided","0.5","desktop","0","0","0","","","","","","luck_game","null","<div id=""score-counter"">TOTAL SCORE: &pound;0.00</div><div class=""experiment-container""><div class=""center-zone""><div class=""cross""></div><div class=""triangle-grid""><div class=""machine top-center blue""></div><div class=""machine bottom-left green""></div><div class=""machine bottom-right red-outline""></div></div></div></div>","null","","","","","","","","","","","","","","","","","","","","","","","","","","",""
"html-keyboard-response","97","520714","0.0-8.0-127.0-0.0","6698ddf6944e573cf5ceb7a3","not_provided","0.5","desktop","0","0","0","","","","","","luck_game","null","<div id=""score-counter"">TOTAL SCORE: &pound;0.00</div><div class=""experiment-container""><div class=""center-zone""><div class=""cross""></div></div></div>","null","","","","","","","","","","","","","","","","","","","","","","","","","","",""
"html-keyboard-response","98","521726","0.0-8.0-128.0-0.0","6698ddf6944e573cf5ceb7a3","not_provided","0.5","desktop","0","0","0","","","","","","luck_game","null","<div id=""score-counter"">TOTAL SCORE: &pound;0.05</div><div class=""experiment-container""><div class=""center-zone""><div class=""cross""></div>
                <div style=""position: absolute; z-index: 10; display: flex; flex-direction: column; align-items: center; justify-content: center;"">
                    <div class=""win-text"" style=""font-size: 48px; font-weight: bold; margin-bottom: 20px; text-shadow: 2px 2px 4px #000;"">WIN</div>
                    <img src=""images/coin_reward.png"" class=""reward-img"" style=""background-color: black; border-radius: 50%;"">
                    <div class=""win-text"" style=""font-size: 48px; font-weight: bold; margin-top: 20px; text-shadow: 2px 2px 4px #000;"">+0.05&pound;</div>
                </div></div></div>","null","","","","","","","","","","","","","","","","","","","","","","","","","","",""
"html-keyboard-response","99","523287","0.0-8.0-131.0","6698ddf6944e573cf5ceb7a3","not_provided","0.5","desktop","0","0","0","","","","","","luck_game","1561","<div id=""score-counter"">TOTAL SCORE: &pound;0.05</div><div class=""experiment-container""><div class=""center-zone""><div class=""cross""></div><div class=""triangle-grid""><div class=""machine top-center blue""></div><div class=""machine bottom-left green-outline""></div><div class=""machine bottom-right red""></div></div></div></div>","arrowright","","","","","gambling_choice","1","18","arrowright","bottom-right","red","arrowleft","bottom-left","green","arrowleft","bottom-left","green","arrowright","bottom-right","red","1","0","0","0.05","-0.05","0.05","true","false"
"html-keyboard-response","100","523391","0.0-8.0-132.0-0.0","6698ddf6944e573cf5ceb7a3","not_provided","0.5","desktop","0","0","0","","","","","","luck_game","null","<div id=""score-counter"">TOTAL SCORE: &pound;0.05</div><div class=""experiment-container""><div class=""center-zone""><div class=""cross""></div><div class=""triangle-grid""><div class=""machine top-center blue""></div><div class=""machine bottom-left green-outline""></div><div class=""machine bottom-right red""></div></div></div></div>","null","","","","","","","","","","","","","","","","","","","","","","","","","","",""
"html-keyboard-response","101","523906","0.0-8.0-133.0-0.0","6698ddf6944e573cf5ceb7a3","not_provided","0.5","desktop","0","0","0","","","","","","luck_game","null","<div id=""score-counter"">TOTAL SCORE: &pound;0.05</div><div class=""experiment-container""><div class=""center-zone""><div class=""cross""></div></div></div>","null","","","","","","","","","","","","","","","","","","","","","","","","","","",""
"html-keyboard-response","102","524915","0.0-8.0-134.0-0.0","6698ddf6944e573cf5ceb7a3","not_provided","0.5","desktop","0","0","0","","","","","","luck_game","null","<div id=""score-counter"">TOTAL SCORE: &pound;0.00</div><div class=""experiment-container""><div class=""center-zone""><div class=""cross""></div>
                <div style=""position: absolute; z-index: 10; display: flex; flex-direction: column; align-items: center; justify-content: center;"">
                    <div class=""lose-text"" style=""font-size: 48px; font-weight: bold; margin-bottom: 20px; text-shadow: 2px 2px 4px #000;"">LOSE</div>
                    <img src=""images/coin_no_reward.png"" class=""reward-img"" style=""background-color: black; border-radius: 50%;"">
                    <div class=""lose-text"" style=""font-size: 48px; font-weight: bold; margin-top: 20px; text-shadow: 2px 2px 4px #000;"">-0.05&pound;</div>
                </div></div></div>","null","","","","","","","","","","","","","","","","","","","","","","","","","","",""
"html-keyboard-response","103","526093","0.0-8.0-137.0","6698ddf6944e573cf5ceb7a3","not_provided","0.5","desktop","0","0","0","","","","","","luck_game","1177","<div id=""score-counter"">TOTAL SCORE: &pound;0.00</div><div class=""experiment-container""><div class=""center-zone""><div class=""cross""></div><div class=""triangle-grid""><div class=""machine top-center blue""></div><div class=""machine bottom-left green""></div><div class=""machine bottom-right red-outline""></div></div></div></div>","arrowleft","","","","","gambling_choice","1","19","arrowleft","bottom-left","green","arrowright","bottom-right","red","arrowright","bottom-right","red","arrowleft","bottom-left","green","0","1","0.05","0","0.05","-0.05","true","false"
"html-keyboard-response","104","526195","0.0-8.0-138.0-0.0","6698ddf6944e573cf5ceb7a3","not_provided","0.5","desktop","0","0","0","","","","","","luck_game","null","<div id=""score-counter"">TOTAL SCORE: &pound;0.00</div><div class=""experiment-container""><div class=""center-zone""><div class=""cross""></div><div class=""triangle-grid""><div class=""machine top-center blue""></div><div class=""machine bottom-left green""></div><div class=""machine bottom-right red-outline""></div></div></div></div>","null","","","","","","","","","","","","","","","","","","","","","","","","","","",""
"html-keyboard-response","105","526705","0.0-8.0-139.0-0.0","6698ddf6944e573cf5ceb7a3","not_provided","0.5","desktop","0","0","0","","","","","","luck_game","null","<div id=""score-counter"">TOTAL SCORE: &pound;0.00</div><div class=""experiment-container""><div class=""center-zone""><div class=""cross""></div></div></div>","null","","","","","","","","","","","","","","","","","","","","","","","","","","",""
"html-keyboard-response","106","527718","0.0-8.0-140.0-0.0","6698ddf6944e573cf5ceb7a3","not_provided","0.5","desktop","0","0","0","","","","","","luck_game","null","<div id=""score-counter"">TOTAL SCORE: &pound;0.05</div><div class=""experiment-container""><div class=""center-zone""><div class=""cross""></div>
                <div style=""position: absolute; z-index: 10; display: flex; flex-direction: column; align-items: center; justify-content: center;"">
                    <div class=""win-text"" style=""font-size: 48px; font-weight: bold; margin-bottom: 20px; text-shadow: 2px 2px 4px #000;"">WIN</div>
                    <img src=""images/coin_reward.png"" class=""reward-img"" style=""background-color: black; border-radius: 50%;"">
                    <div class=""win-text"" style=""font-size: 48px; font-weight: bold; margin-top: 20px; text-shadow: 2px 2px 4px #000;"">+0.05&pound;</div>
                </div></div></div>","null","","","","","","","","","","","","","","","","","","","","","","","","","","",""
"html-keyboard-response","107","528842","0.0-8.0-143.0","6698ddf6944e573cf5ceb7a3","not_provided","0.5","desktop","0","0","0","","","","","","luck_game","1123","<div id=""score-counter"">TOTAL SCORE: &pound;0.05</div><div class=""experiment-container""><div class=""center-zone""><div class=""cross""></div><div class=""triangle-grid""><div class=""machine top-center blue""></div><div class=""machine bottom-left green-outline""></div><div class=""machine bottom-right red""></div></div></div></div>","arrowright","","","","","gambling_choice","1","20","arrowright","bottom-right","red","arrowleft","bottom-left","green","arrowleft","bottom-left","green","arrowright","bottom-right","red","1","1","0.1","0.05","0.05","0.05","true","false"
"html-keyboard-response","108","528953","0.0-8.0-144.0-0.0","6698ddf6944e573cf5ceb7a3","not_provided","0.5","desktop","0","0","0","","","","","","luck_game","null","<div id=""score-counter"">TOTAL SCORE: &pound;0.05</div><div class=""experiment-container""><div class=""center-zone""><div class=""cross""></div><div class=""triangle-grid""><div class=""machine top-center blue""></div><div class=""machine bottom-left green-outline""></div><div class=""machine bottom-right red""></div></div></div></div>","null","","","","","","","","","","","","","","","","","","","","","","","","","","",""
"html-keyboard-response","109","529465","0.0-8.0-145.0-0.0","6698ddf6944e573cf5ceb7a3","not_provided","0.5","desktop","0","0","0","","","","","","luck_game","null","<div id=""score-counter"">TOTAL SCORE: &pound;0.05</div><div class=""experiment-container""><div class=""center-zone""><div class=""cross""></div></div></div>","null","","","","","","","","","","","","","","","","","","","","","","","","","","",""
"html-keyboard-response","110","530483","0.0-8.0-146.0-0.0","6698ddf6944e573cf5ceb7a3","not_provided","0.5","desktop","0","0","0","","","","","","luck_game","null","<div id=""score-counter"">TOTAL SCORE: &pound;0.10</div><div class=""experiment-container""><div class=""center-zone""><div class=""cross""></div>
                <div style=""position: absolute; z-index: 10; display: flex; flex-direction: column; align-items: center; justify-content: center;"">
                    <div class=""win-text"" style=""font-size: 48px; font-weight: bold; margin-bottom: 20px; text-shadow: 2px 2px 4px #000;"">WIN</div>
                    <img src=""images/coin_reward.png"" class=""reward-img"" style=""background-color: black; border-radius: 50%;"">
                    <div class=""win-text"" style=""font-size: 48px; font-weight: bold; margin-top: 20px; text-shadow: 2px 2px 4px #000;"">+0.05&pound;</div>
                </div></div></div>","null","","","","","","","","","","","","","","","","","","","","","","","","","","",""
"html-keyboard-response","111","532499","0.0-8.0-149.0","6698ddf6944e573cf5ceb7a3","not_provided","0.5","desktop","0","0","0","","","","","","luck_game","2016","<div id=""score-counter"">TOTAL SCORE: &pound;0.10</div><div class=""experiment-container""><div class=""center-zone""><div class=""cross""></div><div class=""triangle-grid""><div class=""machine top-center blue-outline""></div><div class=""machine bottom-left green""></div><div class=""machine bottom-right red""></div></div></div></div>","arrowleft","","","","","gambling_choice","1","21","arrowleft","bottom-left","green","arrowright","bottom-right","red","arrowup","top-center","blue","arrowleft","bottom-left","green","1","1","0.15","0.1","0.05","0.05","true","false"
"html-keyboard-response","112","532608","0.0-8.0-150.0-0.0","6698ddf6944e573cf5ceb7a3","not_provided","0.5","desktop","0","0","0","","","","","","luck_game","null","<div id=""score-counter"">TOTAL SCORE: &pound;0.10</div><div class=""experiment-container""><div class=""center-zone""><div class=""cross""></div><div class=""triangle-grid""><div class=""machine top-center blue-outline""></div><div class=""machine bottom-left green""></div><div class=""machine bottom-right red""></div></div></div></div>","null","","","","","","","","","","","","","","","","","","","","","","","","","","",""
"html-keyboard-response","113","533122","0.0-8.0-151.0-0.0","6698ddf6944e573cf5ceb7a3","not_provided","0.5","desktop","0","0","0","","","","","","luck_game","null","<div id=""score-counter"">TOTAL SCORE: &pound;0.10</div><div class=""experiment-container""><div class=""center-zone""><div class=""cross""></div></div></div>","null","","","","","","","","","","","","","","","","","","","","","","","","","","",""
"html-keyboard-response","114","534129","0.0-8.0-152.0-0.0","6698ddf6944e573cf5ceb7a3","not_provided","0.5","desktop","0","0","0","","","","","","luck_game","null","<div id=""score-counter"">TOTAL SCORE: &pound;0.15</div><div class=""experiment-container""><div class=""center-zone""><div class=""cross""></div>
                <div style=""position: absolute; z-index: 10; display: flex; flex-direction: column; align-items: center; justify-content: center;"">
                    <div class=""win-text"" style=""font-size: 48px; font-weight: bold; margin-bottom: 20px; text-shadow: 2px 2px 4px #000;"">WIN</div>
                    <img src=""images/coin_reward.png"" class=""reward-img"" style=""background-color: black; border-radius: 50%;"">
                    <div class=""win-text"" style=""font-size: 48px; font-weight: bold; margin-top: 20px; text-shadow: 2px 2px 4px #000;"">+0.05&pound;</div>
                </div></div></div>","null","","","","","","","","","","","","","","","","","","","","","","","","","","",""
"html-keyboard-response","115","535229","0.0-8.0-155.0","6698ddf6944e573cf5ceb7a3","not_provided","0.5","desktop","0","0","0","","","","","","luck_game","1099","<div id=""score-counter"">TOTAL SCORE: &pound;0.15</div><div class=""experiment-container""><div class=""center-zone""><div class=""cross""></div><div class=""triangle-grid""><div class=""machine top-center blue""></div><div class=""machine bottom-left green""></div><div class=""machine bottom-right red-outline""></div></div></div></div>","arrowleft","","","","","gambling_choice","1","22","arrowleft","bottom-left","green","arrowleft","bottom-left","green","arrowright","bottom-right","red","arrowup","top-center","blue","1","0","0.1","0.15","-0.05","0.05","true","false"
"html-keyboard-response","116","535332","0.0-8.0-156.0-0.0","6698ddf6944e573cf5ceb7a3","not_provided","0.5","desktop","0","0","0","","","","","","luck_game","null","<div id=""score-counter"">TOTAL SCORE: &pound;0.15</div><div class=""experiment-container""><div class=""center-zone""><div class=""cross""></div><div class=""triangle-grid""><div class=""machine top-center blue""></div><div class=""machine bottom-left green""></div><div class=""machine bottom-right red-outline""></div></div></div></div>","null","","","","","","","","","","","","","","","","","","","","","","","","","","",""
"html-keyboard-response","117","535837","0.0-8.0-157.0-0.0","6698ddf6944e573cf5ceb7a3","not_provided","0.5","desktop","0","0","0","","","","","","luck_game","null","<div id=""score-counter"">TOTAL SCORE: &pound;0.15</div><div class=""experiment-container""><div class=""center-zone""><div class=""cross""></div></div></div>","null","","","","","","","","","","","","","","","","","","","","","","","","","","",""
"html-keyboard-response","118","536838","0.0-8.0-158.0-0.0","6698ddf6944e573cf5ceb7a3","not_provided","0.5","desktop","0","0","0","","","","","","luck_game","null","<div id=""score-counter"">TOTAL SCORE: &pound;0.10</div><div class=""experiment-container""><div class=""center-zone""><div class=""cross""></div>
                <div style=""position: absolute; z-index: 10; display: flex; flex-direction: column; align-items: center; justify-content: center;"">
                    <div class=""lose-text"" style=""font-size: 48px; font-weight: bold; margin-bottom: 20px; text-shadow: 2px 2px 4px #000;"">LOSE</div>
                    <img src=""images/coin_no_reward.png"" class=""reward-img"" style=""background-color: black; border-radius: 50%;"">
                    <div class=""lose-text"" style=""font-size: 48px; font-weight: bold; margin-top: 20px; text-shadow: 2px 2px 4px #000;"">-0.05&pound;</div>
                </div></div></div>","null","","","","","","","","","","","","","","","","","","","","","","","","","","",""
"html-keyboard-response","119","538234","0.0-8.0-161.0","6698ddf6944e573cf5ceb7a3","not_provided","0.5","desktop","0","0","0","","","","","","luck_game","1395","<div id=""score-counter"">TOTAL SCORE: &pound;0.10</div><div class=""experiment-container""><div class=""center-zone""><div class=""cross""></div><div class=""triangle-grid""><div class=""machine top-center blue""></div><div class=""machine bottom-left green-outline""></div><div class=""machine bottom-right red""></div></div></div></div>","arrowright","","","","","gambling_choice","1","23","arrowright","bottom-right","red","arrowleft","bottom-left","green","arrowleft","bottom-left","green","arrowright","bottom-right","red","0","1","0.15","0.1","0.05","-0.05","true","false"
"html-keyboard-response","120","538347","0.0-8.0-162.0-0.0","6698ddf6944e573cf5ceb7a3","not_provided","0.5","desktop","0","0","0","","","","","","luck_game","null","<div id=""score-counter"">TOTAL SCORE: &pound;0.10</div><div class=""experiment-container""><div class=""center-zone""><div class=""cross""></div><div class=""triangle-grid""><div class=""machine top-center blue""></div><div class=""machine bottom-left green-outline""></div><div class=""machine bottom-right red""></div></div></div></div>","null","","","","","","","","","","","","","","","","","","","","","","","","","","",""
"html-keyboard-response","121","538859","0.0-8.0-163.0-0.0","6698ddf6944e573cf5ceb7a3","not_provided","0.5","desktop","0","0","0","","","","","","luck_game","null","<div id=""score-counter"">TOTAL SCORE: &pound;0.10</div><div class=""experiment-container""><div class=""center-zone""><div class=""cross""></div></div></div>","null","","","","","","","","","","","","","","","","","","","","","","","","","","",""
"html-keyboard-response","122","539873","0.0-8.0-164.0-0.0","6698ddf6944e573cf5ceb7a3","not_provided","0.5","desktop","0","0","0","","","","","","luck_game","null","<div id=""score-counter"">TOTAL SCORE: &pound;0.15</div><div class=""experiment-container""><div class=""center-zone""><div class=""cross""></div>
                <div style=""position: absolute; z-index: 10; display: flex; flex-direction: column; align-items: center; justify-content: center;"">
                    <div class=""win-text"" style=""font-size: 48px; font-weight: bold; margin-bottom: 20px; text-shadow: 2px 2px 4px #000;"">WIN</div>
                    <img src=""images/coin_reward.png"" class=""reward-img"" style=""background-color: black; border-radius: 50%;"">
                    <div class=""win-text"" style=""font-size: 48px; font-weight: bold; margin-top: 20px; text-shadow: 2px 2px 4px #000;"">+0.05&pound;</div>
                </div></div></div>","null","","","","","","","","","","","","","","","","","","","","","","","","","","",""
"html-keyboard-response","123","540824","0.0-8.0-167.0","6698ddf6944e573cf5ceb7a3","not_provided","0.5","desktop","0","0","0","","","","","","luck_game","950","<div id=""score-counter"">TOTAL SCORE: &pound;0.15</div><div class=""experiment-container""><div class=""center-zone""><div class=""cross""></div><div class=""triangle-grid""><div class=""machine top-center blue-outline""></div><div class=""machine bottom-left green""></div><div class=""machine bottom-right red""></div></div></div></div>","arrowright","","","","","gambling_choice","1","24","arrowright","bottom-right","red","arrowright","bottom-right","red","arrowup","top-center","blue","arrowleft","bottom-left","green","1","1","0.2","0.15","0.05","0.05","true","false"
"html-keyboard-response","124","540925","0.0-8.0-168.0-0.0","6698ddf6944e573cf5ceb7a3","not_provided","0.5","desktop","0","0","0","","","","","","luck_game","null","<div id=""score-counter"">TOTAL SCORE: &pound;0.15</div><div class=""experiment-container""><div class=""center-zone""><div class=""cross""></div><div class=""triangle-grid""><div class=""machine top-center blue-outline""></div><div class=""machine bottom-left green""></div><div class=""machine bottom-right red""></div></div></div></div>","null","","","","","","","","","","","","","","","","","","","","","","","","","","",""
"html-keyboard-response","125","541438","0.0-8.0-169.0-0.0","6698ddf6944e573cf5ceb7a3","not_provided","0.5","desktop","0","0","0","","","","","","luck_game","null","<div id=""score-counter"">TOTAL SCORE: &pound;0.15</div><div class=""experiment-container""><div class=""center-zone""><div class=""cross""></div></div></div>","null","","","","","","","","","","","","","","","","","","","","","","","","","","",""
"html-keyboard-response","126","542451","0.0-8.0-170.0-0.0","6698ddf6944e573cf5ceb7a3","not_provided","0.5","desktop","0","0","0","","","","","","luck_game","null","<div id=""score-counter"">TOTAL SCORE: &pound;0.20</div><div class=""experiment-container""><div class=""center-zone""><div class=""cross""></div>
                <div style=""position: absolute; z-index: 10; display: flex; flex-direction: column; align-items: center; justify-content: center;"">
                    <div class=""win-text"" style=""font-size: 48px; font-weight: bold; margin-bottom: 20px; text-shadow: 2px 2px 4px #000;"">WIN</div>
                    <img src=""images/coin_reward.png"" class=""reward-img"" style=""background-color: black; border-radius: 50%;"">
                    <div class=""win-text"" style=""font-size: 48px; font-weight: bold; margin-top: 20px; text-shadow: 2px 2px 4px #000;"">+0.05&pound;</div>
                </div></div></div>","null","","","","","","","","","","","","","","","","","","","","","","","","","","",""
"html-keyboard-response","127","543603","0.0-8.0-173.0","6698ddf6944e573cf5ceb7a3","not_provided","0.5","desktop","0","0","0","","","","","","luck_game","1151","<div id=""score-counter"">TOTAL SCORE: &pound;0.20</div><div class=""experiment-container""><div class=""center-zone""><div class=""cross""></div><div class=""triangle-grid""><div class=""machine top-center blue""></div><div class=""machine bottom-left green""></div><div class=""machine bottom-right red-outline""></div></div></div></div>","arrowleft","","","","","gambling_choice","1","25","arrowleft","bottom-left","green","arrowright","bottom-right","red","arrowright","bottom-right","red","arrowup","top-center","blue","1","1","0.25","0.2","0.05","0.05","true","false"
"html-keyboard-response","128","543713","0.0-8.0-174.0-0.0","6698ddf6944e573cf5ceb7a3","not_provided","0.5","desktop","0","0","0","","","","","","luck_game","null","<div id=""score-counter"">TOTAL SCORE: &pound;0.20</div><div class=""experiment-container""><div class=""center-zone""><div class=""cross""></div><div class=""triangle-grid""><div class=""machine top-center blue""></div><div class=""machine bottom-left green""></div><div class=""machine bottom-right red-outline""></div></div></div></div>","null","","","","","","","","","","","","","","","","","","","","","","","","","","",""
"html-keyboard-response","129","544226","0.0-8.0-175.0-0.0","6698ddf6944e573cf5ceb7a3","not_provided","0.5","desktop","0","0","0","","","","","","luck_game","null","<div id=""score-counter"">TOTAL SCORE: &pound;0.20</div><div class=""experiment-container""><div class=""center-zone""><div class=""cross""></div></div></div>","null","","","","","","","","","","","","","","","","","","","","","","","","","","",""
"html-keyboard-response","130","545240","0.0-8.0-176.0-0.0","6698ddf6944e573cf5ceb7a3","not_provided","0.5","desktop","0","0","0","","","","","","luck_game","null","<div id=""score-counter"">TOTAL SCORE: &pound;0.25</div><div class=""experiment-container""><div class=""center-zone""><div class=""cross""></div>
                <div style=""position: absolute; z-index: 10; display: flex; flex-direction: column; align-items: center; justify-content: center;"">
                    <div class=""win-text"" style=""font-size: 48px; font-weight: bold; margin-bottom: 20px; text-shadow: 2px 2px 4px #000;"">WIN</div>
                    <img src=""images/coin_reward.png"" class=""reward-img"" style=""background-color: black; border-radius: 50%;"">
                    <div class=""win-text"" style=""font-size: 48px; font-weight: bold; margin-top: 20px; text-shadow: 2px 2px 4px #000;"">+0.05&pound;</div>
                </div></div></div>","null","","","","","","","","","","","","","","","","","","","","","","","","","","",""
"html-keyboard-response","131","555995","0.0-8.0-179.0","6698ddf6944e573cf5ceb7a3","not_provided","0.5","desktop","0","0","0","","","","","","luck_game","10754","
            <div class=""experiment-container"">
                <div style=""text-align: center; font-family: sans-serif;"">
                    <h2 style=""color: #3498db; font-size: 40px; margin-bottom: 20px;"">Rest phase.</h2>
                    <p style=""font-size: 24px; color: white;"">Take as much time as needed.</p>
                    <p style=""font-size: 24px; color: white; margin-top: 40px;"">When ready, press <strong>Space</strong> to continue.</p>
                </div>
            </div>"," ","","","","","rest_break","","","","","","","","","","","","","","","","","","","","","",""
"html-keyboard-response","132","557519","0.0-8.0-180.0","6698ddf6944e573cf5ceb7a3","not_provided","0.5","desktop","0","0","0","","","","","","luck_game","1523","<div id=""score-counter"">TOTAL SCORE: &pound;0.25</div><div class=""experiment-container""><div class=""center-zone""><div class=""cross""></div><div class=""triangle-grid""><div class=""machine top-center blue""></div><div class=""machine bottom-left green-outline""></div><div class=""machine bottom-right red""></div></div></div></div>","arrowright","","","","","gambling_choice","2","1","arrowright","bottom-right","red","arrowleft","bottom-left","green","arrowleft","bottom-left","green","arrowright","bottom-right","red","1","0","0.2","0.25","-0.05","0.05","true","false"
"html-keyboard-response","133","557628","0.0-8.0-181.0-0.0","6698ddf6944e573cf5ceb7a3","not_provided","0.5","desktop","0","0","0","","","","","","luck_game","null","<div id=""score-counter"">TOTAL SCORE: &pound;0.25</div><div class=""experiment-container""><div class=""center-zone""><div class=""cross""></div><div class=""triangle-grid""><div class=""machine top-center blue""></div><div class=""machine bottom-left green-outline""></div><div class=""machine bottom-right red""></div></div></div></div>","null","","","","","","","","","","","","","","","","","","","","","","","","","","",""
"html-keyboard-response","134","558138","0.0-8.0-182.0-0.0","6698ddf6944e573cf5ceb7a3","not_provided","0.5","desktop","0","0","0","","","","","","luck_game","null","<div id=""score-counter"">TOTAL SCORE: &pound;0.25</div><div class=""experiment-container""><div class=""center-zone""><div class=""cross""></div></div></div>","null","","","","","","","","","","","","","","","","","","","","","","","","","","",""
"html-keyboard-response","135","559150","0.0-8.0-183.0-0.0","6698ddf6944e573cf5ceb7a3","not_provided","0.5","desktop","0","0","0","","","","","","luck_game","null","<div id=""score-counter"">TOTAL SCORE: &pound;0.20</div><div class=""experiment-container""><div class=""center-zone""><div class=""cross""></div>
                <div style=""position: absolute; z-index: 10; display: flex; flex-direction: column; align-items: center; justify-content: center;"">
                    <div class=""lose-text"" style=""font-size: 48px; font-weight: bold; margin-bottom: 20px; text-shadow: 2px 2px 4px #000;"">LOSE</div>
                    <img src=""images/coin_no_reward.png"" class=""reward-img"" style=""background-color: black; border-radius: 50%;"">
                    <div class=""lose-text"" style=""font-size: 48px; font-weight: bold; margin-top: 20px; text-shadow: 2px 2px 4px #000;"">-0.05&pound;</div>
                </div></div></div>","null","","","","","","","","","","","","","","","","","","","","","","","","","","",""
"html-keyboard-response","136","560338","0.0-8.0-186.0","6698ddf6944e573cf5ceb7a3","not_provided","0.5","desktop","0","0","0","","","","","","luck_game","1187","<div id=""score-counter"">TOTAL SCORE: &pound;0.20</div><div class=""experiment-container""><div class=""center-zone""><div class=""cross""></div><div class=""triangle-grid""><div class=""machine top-center blue""></div><div class=""machine bottom-left green""></div><div class=""machine bottom-right red-outline""></div></div></div></div>","arrowleft","","","","","gambling_choice","2","2","arrowleft","bottom-left","green","arrowright","bottom-right","red","arrowright","bottom-right","red","arrowleft","bottom-left","green","0","1","0.25","0.2","0.05","-0.05","true","false"
"html-keyboard-response","137","560443","0.0-8.0-187.0-0.0","6698ddf6944e573cf5ceb7a3","not_provided","0.5","desktop","0","0","0","","","","","","luck_game","null","<div id=""score-counter"">TOTAL SCORE: &pound;0.20</div><div class=""experiment-container""><div class=""center-zone""><div class=""cross""></div><div class=""triangle-grid""><div class=""machine top-center blue""></div><div class=""machine bottom-left green""></div><div class=""machine bottom-right red-outline""></div></div></div></div>","null","","","","","","","","","","","","","","","","","","","","","","","","","","",""
"html-keyboard-response","138","560958","0.0-8.0-188.0-0.0","6698ddf6944e573cf5ceb7a3","not_provided","0.5","desktop","0","0","0","","","","","","luck_game","null","<div id=""score-counter"">TOTAL SCORE: &pound;0.20</div><div class=""experiment-container""><div class=""center-zone""><div class=""cross""></div></div></div>","null","","","","","","","","","","","","","","","","","","","","","","","","","","",""
"html-keyboard-response","139","561969","0.0-8.0-189.0-0.0","6698ddf6944e573cf5ceb7a3","not_provided","0.5","desktop","0","0","0","","","","","","luck_game","null","<div id=""score-counter"">TOTAL SCORE: &pound;0.25</div><div class=""experiment-container""><div class=""center-zone""><div class=""cross""></div>
                <div style=""position: absolute; z-index: 10; display: flex; flex-direction: column; align-items: center; justify-content: center;"">
                    <div class=""win-text"" style=""font-size: 48px; font-weight: bold; margin-bottom: 20px; text-shadow: 2px 2px 4px #000;"">WIN</div>
                    <img src=""images/coin_reward.png"" class=""reward-img"" style=""background-color: black; border-radius: 50%;"">
                    <div class=""win-text"" style=""font-size: 48px; font-weight: bold; margin-top: 20px; text-shadow: 2px 2px 4px #000;"">+0.05&pound;</div>
                </div></div></div>","null","","","","","","","","","","","","","","","","","","","","","","","","","","",""
"html-keyboard-response","140","563504","0.0-8.0-192.0","6698ddf6944e573cf5ceb7a3","not_provided","0.5","desktop","0","0","0","","","","","","luck_game","1534","<div id=""score-counter"">TOTAL SCORE: &pound;0.25</div><div class=""experiment-container""><div class=""center-zone""><div class=""cross""></div><div class=""triangle-grid""><div class=""machine top-center blue""></div><div class=""machine bottom-left green-outline""></div><div class=""machine bottom-right red""></div></div></div></div>","arrowup","","","","","gambling_choice","2","3","arrowup","top-center","blue","arrowleft","bottom-left","green","arrowleft","bottom-left","green","arrowright","bottom-right","red","1","1","0.3","0.25","0.05","0.05","true","false"
"html-keyboard-response","141","563616","0.0-8.0-193.0-0.0","6698ddf6944e573cf5ceb7a3","not_provided","0.5","desktop","0","0","0","","","","","","luck_game","null","<div id=""score-counter"">TOTAL SCORE: &pound;0.25</div><div class=""experiment-container""><div class=""center-zone""><div class=""cross""></div><div class=""triangle-grid""><div class=""machine top-center blue""></div><div class=""machine bottom-left green-outline""></div><div class=""machine bottom-right red""></div></div></div></div>","null","","","","","","","","","","","","","","","","","","","","","","","","","","",""
"html-keyboard-response","142","564117","0.0-8.0-194.0-0.0","6698ddf6944e573cf5ceb7a3","not_provided","0.5","desktop","0","0","0","","","","","","luck_game","null","<div id=""score-counter"">TOTAL SCORE: &pound;0.25</div><div class=""experiment-container""><div class=""center-zone""><div class=""cross""></div></div></div>","null","","","","","","","","","","","","","","","","","","","","","","","","","","",""
"html-keyboard-response","143","565127","0.0-8.0-195.0-0.0","6698ddf6944e573cf5ceb7a3","not_provided","0.5","desktop","0","0","0","","","","","","luck_game","null","<div id=""score-counter"">TOTAL SCORE: &pound;0.30</div><div class=""experiment-container""><div class=""center-zone""><div class=""cross""></div>
                <div style=""position: absolute; z-index: 10; display: flex; flex-direction: column; align-items: center; justify-content: center;"">
                    <div class=""win-text"" style=""font-size: 48px; font-weight: bold; margin-bottom: 20px; text-shadow: 2px 2px 4px #000;"">WIN</div>
                    <img src=""images/coin_reward.png"" class=""reward-img"" style=""background-color: black; border-radius: 50%;"">
                    <div class=""win-text"" style=""font-size: 48px; font-weight: bold; margin-top: 20px; text-shadow: 2px 2px 4px #000;"">+0.05&pound;</div>
                </div></div></div>","null","","","","","","","","","","","","","","","","","","","","","","","","","","",""
"html-keyboard-response","144","566034","0.0-8.0-198.0","6698ddf6944e573cf5ceb7a3","not_provided","0.5","desktop","0","0","0","","","","","","luck_game","906","<div id=""score-counter"">TOTAL SCORE: &pound;0.30</div><div class=""experiment-container""><div class=""center-zone""><div class=""cross""></div><div class=""triangle-grid""><div class=""machine top-center blue-outline""></div><div class=""machine bottom-left green""></div><div class=""machine bottom-right red""></div></div></div></div>","arrowleft","","","","","gambling_choice","2","4","arrowleft","bottom-left","green","arrowup","top-center","blue","arrowup","top-center","blue","arrowleft","bottom-left","green","1","1","0.35","0.3","0.05","0.05","true","false"
"html-keyboard-response","145","566144","0.0-8.0-199.0-0.0","6698ddf6944e573cf5ceb7a3","not_provided","0.5","desktop","0","0","0","","","","","","luck_game","null","<div id=""score-counter"">TOTAL SCORE: &pound;0.30</div><div class=""experiment-container""><div class=""center-zone""><div class=""cross""></div><div class=""triangle-grid""><div class=""machine top-center blue-outline""></div><div class=""machine bottom-left green""></div><div class=""machine bottom-right red""></div></div></div></div>","null","","","","","","","","","","","","","","","","","","","","","","","","","","",""
"html-keyboard-response","146","566659","0.0-8.0-200.0-0.0","6698ddf6944e573cf5ceb7a3","not_provided","0.5","desktop","0","0","0","","","","","","luck_game","null","<div id=""score-counter"">TOTAL SCORE: &pound;0.30</div><div class=""experiment-container""><div class=""center-zone""><div class=""cross""></div></div></div>","null","","","","","","","","","","","","","","","","","","","","","","","","","","",""
"html-keyboard-response","147","567670","0.0-8.0-201.0-0.0","6698ddf6944e573cf5ceb7a3","not_provided","0.5","desktop","0","0","0","","","","","","luck_game","null","<div id=""score-counter"">TOTAL SCORE: &pound;0.35</div><div class=""experiment-container""><div class=""center-zone""><div class=""cross""></div>
                <div style=""position: absolute; z-index: 10; display: flex; flex-direction: column; align-items: center; justify-content: center;"">
                    <div class=""win-text"" style=""font-size: 48px; font-weight: bold; margin-bottom: 20px; text-shadow: 2px 2px 4px #000;"">WIN</div>
                    <img src=""images/coin_reward.png"" class=""reward-img"" style=""background-color: black; border-radius: 50%;"">
                    <div class=""win-text"" style=""font-size: 48px; font-weight: bold; margin-top: 20px; text-shadow: 2px 2px 4px #000;"">+0.05&pound;</div>
                </div></div></div>","null","","","","","","","","","","","","","","","","","","","","","","","","","","",""
"html-keyboard-response","148","568723","0.0-8.0-204.0","6698ddf6944e573cf5ceb7a3","not_provided","0.5","desktop","0","0","0","","","","","","luck_game","1052","<div id=""score-counter"">TOTAL SCORE: &pound;0.35</div><div class=""experiment-container""><div class=""center-zone""><div class=""cross""></div><div class=""triangle-grid""><div class=""machine top-center blue""></div><div class=""machine bottom-left green-outline""></div><div class=""machine bottom-right red""></div></div></div></div>","arrowright","","","","","gambling_choice","2","5","arrowright","bottom-right","red","arrowleft","bottom-left","green","arrowleft","bottom-left","green","arrowup","top-center","blue","1","0","0.3","0.35","-0.05","0.05","true","false"
"html-keyboard-response","149","568825","0.0-8.0-205.0-0.0","6698ddf6944e573cf5ceb7a3","not_provided","0.5","desktop","0","0","0","","","","","","luck_game","null","<div id=""score-counter"">TOTAL SCORE: &pound;0.35</div><div class=""experiment-container""><div class=""center-zone""><div class=""cross""></div><div class=""triangle-grid""><div class=""machine top-center blue""></div><div class=""machine bottom-left green-outline""></div><div class=""machine bottom-right red""></div></div></div></div>","null","","","","","","","","","","","","","","","","","","","","","","","","","","",""
