"trial_type","trial_index","time_elapsed","internal_node_id","subject_id","study_id","win_chance","device_type","blur_count","fullscreen_exit_count","failed_attention_checks","success","timeout","failed_images","failed_audio","failed_video","phase","rt","stimulus","response","question_order","view_history","trial_name","value","task","block_number","trial_number","choice_key","choice_location","choice_color","choice_key_oneback","choice_location_oneback","choice_color_oneback","unavailable_key","unavailable_location","unavailable_color","unavailable_key_oneback","unavailable_location_oneback","unavailable_color_oneback","reward_oneback","reward","total_score","total_score_oneback","coin_earned","coin_earned_oneback","is_choice_valid","is_timeout_reached"
"pavlovia","0","1269","0.0-0.0","69dfca6fe751b64c73aeac08","69e3dbe1909b093a52706ce7","0.5","desktop","0","0","0","","","","","","","","","","","","","","","","","","","","","","","","","","","","","","","","","","","",""
"preload","1","2382","0.0-2.0","69dfca6fe751b64c73aeac08","69e3dbe1909b093a52706ce7","0.5","desktop","0","0","0","true","false","[]","[]","[]","","","","","","","","","","","","","","","","","","","","","","","","","","","","","","",""
"html-keyboard-response","2","9632","0.0-3.0-0.0","69dfca6fe751b64c73aeac08","69e3dbe1909b093a52706ce7","0.5","desktop","0","0","0","","","","","","captcha","","","","","","","","","","","","","","","","","","","","","","","","","","","","","",""
"fullscreen","3","16178","0.0-4.0","69dfca6fe751b64c73aeac08","69e3dbe1909b093a52706ce7","0.5","desktop","0","0","0","true","","","","","setup","","","","","","","","","","","","","","","","","","","","","","","","","","","","","",""
"html-button-response","4","19680","0.0-5.0-0.0","69dfca6fe751b64c73aeac08","69e3dbe1909b093a52706ce7","0.5","desktop","0","0","0","","","","","","screening","3500","
            <div style=""max-width: 600px; text-align: left; font-family: sans-serif; font-size: 1.1rem;"">
                <b>Before we start, we need to ask you some personal questions.</b><br><br>
                Please note that all data is anonymized.
                You will be paid for your time regardless of your answers.
            </div>","0","","","","","","","","","","","","","","","","","","","","","","","","","","",""
"survey-multi-choice","5","33414","0.0-5.0-1.0","69dfca6fe751b64c73aeac08","69e3dbe1909b093a52706ce7","0.5","desktop","0","0","0","","","","","","screening","13731","","{""psychiatric"":""No"",""schizophrenia"":""No"",""addiction"":""No"",""asd"":""No"",""adhd"":""No"",""dementia"":""No"",""head_injury"":""No""}","[0,1,2,3,4,5,6]","","","","","","","","","","","","","","","","","","","","","","","","","",""
"html-button-response","6","37270","0.0-6.0-0.0-0.0","69dfca6fe751b64c73aeac08","69e3dbe1909b093a52706ce7","0.5","desktop","0","0","0","","","","","","color_blindness","3854","<p>Before we begin, we need to check your color vision.<br>Please select the digit you see in the picture.</p>","0","","","","","","","","","","","","","","","","","","","","","","","","","","",""
"survey-multi-choice","7","41280","0.0-6.0-0.0-1.0","69dfca6fe751b64c73aeac08","69e3dbe1909b093a52706ce7","0.5","desktop","0","0","0","","","","","","color_blindness","3998","","{""color_blind1"":""3""}","[0]","","","","","","","","","","","","","","","","","","","","","","","","","",""
"survey-multi-choice","8","44211","0.0-6.0-0.0-2.0","69dfca6fe751b64c73aeac08","69e3dbe1909b093a52706ce7","0.5","desktop","0","0","0","","","","","","color_blindness","2930","","{""color_blind2"":""5""}","[0]","","","","","","","","","","","","","","","","","","","","","","","","","",""
"survey-html-form","9","49136","0.0-7.0-0.0","69dfca6fe751b64c73aeac08","69e3dbe1909b093a52706ce7","0.5","desktop","0","0","0","","","","","","demographics","4922","","{""age"":""24"",""sex"":""female""}","","","","","","","","","","","","","","","","","","","","","","","","","","",""
"instructions","10","141897","0.0-8.0-0.0-0.0-0.0","69dfca6fe751b64c73aeac08","69e3dbe1909b093a52706ce7","0.5","desktop","0","0","0","","","","","","luck_game","92760","","","","[{""page_index"":0,""viewing_time"":14061},{""page_index"":1,""viewing_time"":9738},{""page_index"":2,""viewing_time"":8587},{""page_index"":3,""viewing_time"":13212},{""page_index"":4,""viewing_time"":9937},{""page_index"":5,""viewing_time"":10897},{""page_index"":6,""viewing_time"":8077},{""page_index"":7,""viewing_time"":7528},{""page_index"":8,""viewing_time"":6756},{""page_index"":9,""viewing_time"":3966}]","","","","","","","","","","","","","","","","","","","","","","","","",""
"html-button-response","11","159153","0.0-8.0-0.0-1.0","69dfca6fe751b64c73aeac08","69e3dbe1909b093a52706ce7","0.5","desktop","0","0","0","","","","","","luck_game","17256","<div style=""max-width:640px; margin:0 auto; text-align:left;
                               font-family:sans-serif; color:white; padding:10px;"">
            <h3 style=""color:#3498db; text-align:center;"">Quick Reminder</h3>
            <ul style=""line-height:2.1; font-size:1.05em;"">
                <li>There are <strong>3 luck machines</strong>:
                    <span style=""color:#5599ff""><strong>Blue</strong></span> (&uarr; Up),
                    <span style=""color:#55cc55""><strong>Green</strong></span> (&larr; Left),
                    <span style=""color:#ff5555""><strong>Red</strong></span> (&rarr; Right)</li>
                <li>Each turn, <strong>2 machines are READY</strong> and 1 is
                    <strong>unavailable</strong> (shown as a colored outline)</li>
                <li>Press the corresponding arrow key to activate a READY machine</li>
                <li>Activating an <strong>unavailable</strong> machine: lose your turn + time penalty</li>
                <li>Activating a READY machine: <strong class=""win-text"">50% win +&pound;0.05</strong>
                    / <strong class=""lose-text"">50% lose &minus;&pound;0.05</strong></li>
                <li><strong>Time limit:</strong> 6 seconds per turn &mdash; don&rsquo;t miss your chance!</li>
                <li><strong>Goal:</strong> Quickly activate READY machines, avoid unavailable ones</li>
            </ul>
        </div>","0","","","","","","","","","","","","","","","","","","","","","","","","","","",""
"survey-multi-choice","12","190614","0.0-8.0-0.0-2.0","69dfca6fe751b64c73aeac08","69e3dbe1909b093a52706ce7","0.5","desktop","0","0","0","","","","","","luck_game","31448","","{""q_total_machines"":""3"",""q_ready_machines"":""2"",""q_blue_key"":""↑ Up arrow key"",""q_red_key"":""→ Right arrow key"",""q_outcome"":""The red machine is unavailable. I will lose my turn and chance to win coins, and get a time penalty."",""q_ready_outcome"":""I will either win a coin (+0.05£) or lose a coin (−0.05£)."",""q_goal"":""My goal is to quickly activate available luck machines, avoiding unavailable machines. If I am lucky, I will get rewarded."",""q_win_rates"":""Red: 50% win rate — Blue: 50% win rate — Green: 50% win rate""}","[0,1,2,3,4,5,6,7]","","luck_game_quiz","","","","","","","","","","","","","","","","","","","","","","","",""
"html-keyboard-response","13","194625","0.0-8.0-1.0","69dfca6fe751b64c73aeac08","69e3dbe1909b093a52706ce7","0.5","desktop","0","0","0","","","","","","luck_game","4009","
            <div style=""max-width: 600px; margin: 0 auto; text-align: center; font-family: sans-serif;"">
                <h2 style=""color: #3498db;"">Good job, you learned the instructions!</h2>
                <p>We will now move to a short <strong>training phase</strong> to get you familiar with the game.</p>
                <p>Your score will <strong>not</strong> be counted during training.</p>
                <br>
                <p><strong>Press Space to start training.</strong></p>
            </div>"," ","","","","","","","","","","","","","","","","","","","","","","","","","","",""
"call-function","14","194626","0.0-8.0-2.0","69dfca6fe751b64c73aeac08","69e3dbe1909b093a52706ce7","0.5","desktop","0","0","0","","","","","","luck_game","","","","","","","","","","","","","","","","","","","","","","","","","","","","","",""
"html-keyboard-response","15","195282","0.0-8.0-3.0","69dfca6fe751b64c73aeac08","69e3dbe1909b093a52706ce7","0.5","desktop","0","0","0","","","","","","luck_game","656","<div class=""experiment-container""><div class=""center-zone""><div class=""cross""></div><div class=""triangle-grid""><div class=""machine top-center blue""></div><div class=""machine bottom-left green-outline""></div><div class=""machine bottom-right red""></div></div></div></div>","arrowright","","","","","gambling_choice","training","1","arrowright","bottom-right","red","null","null","null","arrowleft","bottom-left","green","null","null","null","null","1","0","0","0.05","null","true","false"
"html-keyboard-response","16","195384","0.0-8.0-4.0-0.0","69dfca6fe751b64c73aeac08","69e3dbe1909b093a52706ce7","0.5","desktop","0","0","0","","","","","","luck_game","null","<div class=""experiment-container""><div class=""center-zone""><div class=""cross""></div><div class=""triangle-grid""><div class=""machine top-center blue""></div><div class=""machine bottom-left green-outline""></div><div class=""machine bottom-right red""></div></div></div></div>","null","","","","","","","","","","","","","","","","","","","","","","","","","","",""
"html-keyboard-response","17","195887","0.0-8.0-5.0-0.0","69dfca6fe751b64c73aeac08","69e3dbe1909b093a52706ce7","0.5","desktop","0","0","0","","","","","","luck_game","null","<div class=""experiment-container""><div class=""center-zone""><div class=""cross""></div></div></div>","null","","","","","","","","","","","","","","","","","","","","","","","","","","",""
"html-keyboard-response","18","196891","0.0-8.0-6.0-0.0","69dfca6fe751b64c73aeac08","69e3dbe1909b093a52706ce7","0.5","desktop","0","0","0","","","","","","luck_game","null","<div class=""experiment-container""><div class=""center-zone""><div class=""cross""></div>
                <div style=""position: absolute; z-index: 10; display: flex; flex-direction: column; align-items: center; justify-content: center;"">
                    <div class=""win-text"" style=""font-size: 48px; font-weight: bold; margin-bottom: 20px; text-shadow: 2px 2px 4px #000;"">WIN</div>
                    <img src=""images/coin_reward.png"" class=""reward-img"" style=""background-color: black; border-radius: 50%;"">
                    <div class=""win-text"" style=""font-size: 48px; font-weight: bold; margin-top: 20px; text-shadow: 2px 2px 4px #000;"">+0.05&pound;</div>
                </div></div></div>","null","","","","","","","","","","","","","","","","","","","","","","","","","","",""
"html-keyboard-response","19","197411","0.0-8.0-9.0","69dfca6fe751b64c73aeac08","69e3dbe1909b093a52706ce7","0.5","desktop","0","0","0","","","","","","luck_game","519","<div class=""experiment-container""><div class=""center-zone""><div class=""cross""></div><div class=""triangle-grid""><div class=""machine top-center blue""></div><div class=""machine bottom-left green-outline""></div><div class=""machine bottom-right red""></div></div></div></div>","arrowup","","","","","gambling_choice","training","2","arrowup","top-center","blue","arrowright","bottom-right","red","arrowleft","bottom-left","green","arrowleft","bottom-left","green","1","1","0","0","0.05","0.05","true","false"
"html-keyboard-response","20","197512","0.0-8.0-10.0-0.0","69dfca6fe751b64c73aeac08","69e3dbe1909b093a52706ce7","0.5","desktop","0","0","0","","","","","","luck_game","null","<div class=""experiment-container""><div class=""center-zone""><div class=""cross""></div><div class=""triangle-grid""><div class=""machine top-center blue""></div><div class=""machine bottom-left green-outline""></div><div class=""machine bottom-right red""></div></div></div></div>","null","","","","","","","","","","","","","","","","","","","","","","","","","","",""
"html-keyboard-response","21","198019","0.0-8.0-11.0-0.0","69dfca6fe751b64c73aeac08","69e3dbe1909b093a52706ce7","0.5","desktop","0","0","0","","","","","","luck_game","null","<div class=""experiment-container""><div class=""center-zone""><div class=""cross""></div></div></div>","null","","","","","","","","","","","","","","","","","","","","","","","","","","",""
"html-keyboard-response","22","199022","0.0-8.0-12.0-0.0","69dfca6fe751b64c73aeac08","69e3dbe1909b093a52706ce7","0.5","desktop","0","0","0","","","","","","luck_game","null","<div class=""experiment-container""><div class=""center-zone""><div class=""cross""></div>
                <div style=""position: absolute; z-index: 10; display: flex; flex-direction: column; align-items: center; justify-content: center;"">
                    <div class=""win-text"" style=""font-size: 48px; font-weight: bold; margin-bottom: 20px; text-shadow: 2px 2px 4px #000;"">WIN</div>
                    <img src=""images/coin_reward.png"" class=""reward-img"" style=""background-color: black; border-radius: 50%;"">
                    <div class=""win-text"" style=""font-size: 48px; font-weight: bold; margin-top: 20px; text-shadow: 2px 2px 4px #000;"">+0.05&pound;</div>
                </div></div></div>","null","","","","","","","","","","","","","","","","","","","","","","","","","","",""
"html-keyboard-response","23","199615","0.0-8.0-15.0","69dfca6fe751b64c73aeac08","69e3dbe1909b093a52706ce7","0.5","desktop","0","0","0","","","","","","luck_game","593","<div class=""experiment-container""><div class=""center-zone""><div class=""cross""></div><div class=""triangle-grid""><div class=""machine top-center blue""></div><div class=""machine bottom-left green""></div><div class=""machine bottom-right red-outline""></div></div></div></div>","arrowup","","","","","gambling_choice","training","3","arrowup","top-center","blue","arrowup","top-center","blue","arrowright","bottom-right","red","arrowleft","bottom-left","green","1","1","0","0","0.05","0.05","true","false"
"html-keyboard-response","24","199721","0.0-8.0-16.0-0.0","69dfca6fe751b64c73aeac08","69e3dbe1909b093a52706ce7","0.5","desktop","0","0","0","","","","","","luck_game","null","<div class=""experiment-container""><div class=""center-zone""><div class=""cross""></div><div class=""triangle-grid""><div class=""machine top-center blue""></div><div class=""machine bottom-left green""></div><div class=""machine bottom-right red-outline""></div></div></div></div>","null","","","","","","","","","","","","","","","","","","","","","","","","","","",""
"html-keyboard-response","25","200229","0.0-8.0-17.0-0.0","69dfca6fe751b64c73aeac08","69e3dbe1909b093a52706ce7","0.5","desktop","0","0","0","","","","","","luck_game","null","<div class=""experiment-container""><div class=""center-zone""><div class=""cross""></div></div></div>","null","","","","","","","","","","","","","","","","","","","","","","","","","","",""
"html-keyboard-response","26","201234","0.0-8.0-18.0-0.0","69dfca6fe751b64c73aeac08","69e3dbe1909b093a52706ce7","0.5","desktop","0","0","0","","","","","","luck_game","null","<div class=""experiment-container""><div class=""center-zone""><div class=""cross""></div>
                <div style=""position: absolute; z-index: 10; display: flex; flex-direction: column; align-items: center; justify-content: center;"">
                    <div class=""win-text"" style=""font-size: 48px; font-weight: bold; margin-bottom: 20px; text-shadow: 2px 2px 4px #000;"">WIN</div>
                    <img src=""images/coin_reward.png"" class=""reward-img"" style=""background-color: black; border-radius: 50%;"">
                    <div class=""win-text"" style=""font-size: 48px; font-weight: bold; margin-top: 20px; text-shadow: 2px 2px 4px #000;"">+0.05&pound;</div>
                </div></div></div>","null","","","","","","","","","","","","","","","","","","","","","","","","","","",""
"html-keyboard-response","27","201605","0.0-8.0-21.0","69dfca6fe751b64c73aeac08","69e3dbe1909b093a52706ce7","0.5","desktop","0","0","0","","","","","","luck_game","371","<div class=""experiment-container""><div class=""center-zone""><div class=""cross""></div><div class=""triangle-grid""><div class=""machine top-center blue""></div><div class=""machine bottom-left green""></div><div class=""machine bottom-right red-outline""></div></div></div></div>","arrowleft","","","","","gambling_choice","training","4","arrowleft","bottom-left","green","arrowup","top-center","blue","arrowright","bottom-right","red","arrowright","bottom-right","red","1","0","0","0","-0.05","0.05","true","false"
"html-keyboard-response","28","201710","0.0-8.0-22.0-0.0","69dfca6fe751b64c73aeac08","69e3dbe1909b093a52706ce7","0.5","desktop","0","0","0","","","","","","luck_game","null","<div class=""experiment-container""><div class=""center-zone""><div class=""cross""></div><div class=""triangle-grid""><div class=""machine top-center blue""></div><div class=""machine bottom-left green""></div><div class=""machine bottom-right red-outline""></div></div></div></div>","null","","","","","","","","","","","","","","","","","","","","","","","","","","",""
"html-keyboard-response","29","202218","0.0-8.0-23.0-0.0","69dfca6fe751b64c73aeac08","69e3dbe1909b093a52706ce7","0.5","desktop","0","0","0","","","","","","luck_game","null","<div class=""experiment-container""><div class=""center-zone""><div class=""cross""></div></div></div>","null","","","","","","","","","","","","","","","","","","","","","","","","","","",""
"html-keyboard-response","30","203227","0.0-8.0-24.0-0.0","69dfca6fe751b64c73aeac08","69e3dbe1909b093a52706ce7","0.5","desktop","0","0","0","","","","","","luck_game","null","<div class=""experiment-container""><div class=""center-zone""><div class=""cross""></div>
                <div style=""position: absolute; z-index: 10; display: flex; flex-direction: column; align-items: center; justify-content: center;"">
                    <div class=""lose-text"" style=""font-size: 48px; font-weight: bold; margin-bottom: 20px; text-shadow: 2px 2px 4px #000;"">LOSE</div>
                    <img src=""images/coin_no_reward.png"" class=""reward-img"" style=""background-color: black; border-radius: 50%;"">
                    <div class=""lose-text"" style=""font-size: 48px; font-weight: bold; margin-top: 20px; text-shadow: 2px 2px 4px #000;"">-0.05&pound;</div>
                </div></div></div>","null","","","","","","","","","","","","","","","","","","","","","","","","","","",""
"call-function","31","203228","0.0-8.0-27.0","69dfca6fe751b64c73aeac08","69e3dbe1909b093a52706ce7","0.5","desktop","0","0","0","","","","","","luck_game","","","","","","","","","","","","","","","","","","","","","","","","","","","","","",""
"html-keyboard-response","32","205658","0.0-8.0-28.0","69dfca6fe751b64c73aeac08","69e3dbe1909b093a52706ce7","0.5","desktop","0","0","0","","","","","","luck_game","2430","
            <div style=""max-width: 600px; margin: 0 auto; text-align: center; font-family: sans-serif;"">
                <h2 style=""color: #3498db;"">Training Complete</h2>
                <p>You will now start the real game.</p>
                <br>
                <p><strong>Press Space to begin.</strong></p>
            </div>"," ","","","","","","","","","","","","","","","","","","","","","","","","","","",""
"html-keyboard-response","33","206414","0.0-8.0-29.0","69dfca6fe751b64c73aeac08","69e3dbe1909b093a52706ce7","0.5","desktop","0","0","0","","","","","","luck_game","755","<div id=""score-counter"">TOTAL SCORE: &pound;0.00</div><div class=""experiment-container""><div class=""center-zone""><div class=""cross""></div><div class=""triangle-grid""><div class=""machine top-center blue-outline""></div><div class=""machine bottom-left green""></div><div class=""machine bottom-right red""></div></div></div></div>","arrowleft","","","","","gambling_choice","1","1","arrowleft","bottom-left","green","arrowleft","bottom-left","green","arrowup","top-center","blue","arrowright","bottom-right","red","0","1","0.05","0","0.05","-0.05","true","false"
"html-keyboard-response","34","206520","0.0-8.0-30.0-0.0","69dfca6fe751b64c73aeac08","69e3dbe1909b093a52706ce7","0.5","desktop","0","0","0","","","","","","luck_game","null","<div id=""score-counter"">TOTAL SCORE: &pound;0.00</div><div class=""experiment-container""><div class=""center-zone""><div class=""cross""></div><div class=""triangle-grid""><div class=""machine top-center blue-outline""></div><div class=""machine bottom-left green""></div><div class=""machine bottom-right red""></div></div></div></div>","null","","","","","","","","","","","","","","","","","","","","","","","","","","",""
"html-keyboard-response","35","207027","0.0-8.0-31.0-0.0","69dfca6fe751b64c73aeac08","69e3dbe1909b093a52706ce7","0.5","desktop","0","0","0","","","","","","luck_game","null","<div id=""score-counter"">TOTAL SCORE: &pound;0.00</div><div class=""experiment-container""><div class=""center-zone""><div class=""cross""></div></div></div>","null","","","","","","","","","","","","","","","","","","","","","","","","","","",""
"html-keyboard-response","36","208035","0.0-8.0-32.0-0.0","69dfca6fe751b64c73aeac08","69e3dbe1909b093a52706ce7","0.5","desktop","0","0","0","","","","","","luck_game","null","<div id=""score-counter"">TOTAL SCORE: &pound;0.05</div><div class=""experiment-container""><div class=""center-zone""><div class=""cross""></div>
                <div style=""position: absolute; z-index: 10; display: flex; flex-direction: column; align-items: center; justify-content: center;"">
                    <div class=""win-text"" style=""font-size: 48px; font-weight: bold; margin-bottom: 20px; text-shadow: 2px 2px 4px #000;"">WIN</div>
                    <img src=""images/coin_reward.png"" class=""reward-img"" style=""background-color: black; border-radius: 50%;"">
                    <div class=""win-text"" style=""font-size: 48px; font-weight: bold; margin-top: 20px; text-shadow: 2px 2px 4px #000;"">+0.05&pound;</div>
                </div></div></div>","null","","","","","","","","","","","","","","","","","","","","","","","","","","",""
"html-keyboard-response","37","208558","0.0-8.0-35.0","69dfca6fe751b64c73aeac08","69e3dbe1909b093a52706ce7","0.5","desktop","0","0","0","","","","","","luck_game","521","<div id=""score-counter"">TOTAL SCORE: &pound;0.05</div><div class=""experiment-container""><div class=""center-zone""><div class=""cross""></div><div class=""triangle-grid""><div class=""machine top-center blue""></div><div class=""machine bottom-left green-outline""></div><div class=""machine bottom-right red""></div></div></div></div>","arrowup","","","","","gambling_choice","1","2","arrowup","top-center","blue","arrowleft","bottom-left","green","arrowleft","bottom-left","green","arrowup","top-center","blue","1","1","0.1","0.05","0.05","0.05","true","false"
"html-keyboard-response","38","208665","0.0-8.0-36.0-0.0","69dfca6fe751b64c73aeac08","69e3dbe1909b093a52706ce7","0.5","desktop","0","0","0","","","","","","luck_game","null","<div id=""score-counter"">TOTAL SCORE: &pound;0.05</div><div class=""experiment-container""><div class=""center-zone""><div class=""cross""></div><div class=""triangle-grid""><div class=""machine top-center blue""></div><div class=""machine bottom-left green-outline""></div><div class=""machine bottom-right red""></div></div></div></div>","null","","","","","","","","","","","","","","","","","","","","","","","","","","",""
"html-keyboard-response","39","209181","0.0-8.0-37.0-0.0","69dfca6fe751b64c73aeac08","69e3dbe1909b093a52706ce7","0.5","desktop","0","0","0","","","","","","luck_game","null","<div id=""score-counter"">TOTAL SCORE: &pound;0.05</div><div class=""experiment-container""><div class=""center-zone""><div class=""cross""></div></div></div>","null","","","","","","","","","","","","","","","","","","","","","","","","","","",""
"html-keyboard-response","40","210184","0.0-8.0-38.0-0.0","69dfca6fe751b64c73aeac08","69e3dbe1909b093a52706ce7","0.5","desktop","0","0","0","","","","","","luck_game","null","<div id=""score-counter"">TOTAL SCORE: &pound;0.10</div><div class=""experiment-container""><div class=""center-zone""><div class=""cross""></div>
                <div style=""position: absolute; z-index: 10; display: flex; flex-direction: column; align-items: center; justify-content: center;"">
                    <div class=""win-text"" style=""font-size: 48px; font-weight: bold; margin-bottom: 20px; text-shadow: 2px 2px 4px #000;"">WIN</div>
                    <img src=""images/coin_reward.png"" class=""reward-img"" style=""background-color: black; border-radius: 50%;"">
                    <div class=""win-text"" style=""font-size: 48px; font-weight: bold; margin-top: 20px; text-shadow: 2px 2px 4px #000;"">+0.05&pound;</div>
                </div></div></div>","null","","","","","","","","","","","","","","","","","","","","","","","","","","",""
"html-keyboard-response","41","210672","0.0-8.0-41.0","69dfca6fe751b64c73aeac08","69e3dbe1909b093a52706ce7","0.5","desktop","0","0","0","","","","","","luck_game","487","<div id=""score-counter"">TOTAL SCORE: &pound;0.10</div><div class=""experiment-container""><div class=""center-zone""><div class=""cross""></div><div class=""triangle-grid""><div class=""machine top-center blue""></div><div class=""machine bottom-left green""></div><div class=""machine bottom-right red-outline""></div></div></div></div>","arrowup","","","","","gambling_choice","1","3","arrowup","top-center","blue","arrowup","top-center","blue","arrowright","bottom-right","red","arrowleft","bottom-left","green","1","0","0.05","0.1","-0.05","0.05","true","false"
"html-keyboard-response","42","210776","0.0-8.0-42.0-0.0","69dfca6fe751b64c73aeac08","69e3dbe1909b093a52706ce7","0.5","desktop","0","0","0","","","","","","luck_game","null","<div id=""score-counter"">TOTAL SCORE: &pound;0.10</div><div class=""experiment-container""><div class=""center-zone""><div class=""cross""></div><div class=""triangle-grid""><div class=""machine top-center blue""></div><div class=""machine bottom-left green""></div><div class=""machine bottom-right red-outline""></div></div></div></div>","null","","","","","","","","","","","","","","","","","","","","","","","","","","",""
"html-keyboard-response","43","211278","0.0-8.0-43.0-0.0","69dfca6fe751b64c73aeac08","69e3dbe1909b093a52706ce7","0.5","desktop","0","0","0","","","","","","luck_game","null","<div id=""score-counter"">TOTAL SCORE: &pound;0.10</div><div class=""experiment-container""><div class=""center-zone""><div class=""cross""></div></div></div>","null","","","","","","","","","","","","","","","","","","","","","","","","","","",""
"html-keyboard-response","44","212284","0.0-8.0-44.0-0.0","69dfca6fe751b64c73aeac08","69e3dbe1909b093a52706ce7","0.5","desktop","0","0","0","","","","","","luck_game","null","<div id=""score-counter"">TOTAL SCORE: &pound;0.05</div><div class=""experiment-container""><div class=""center-zone""><div class=""cross""></div>
                <div style=""position: absolute; z-index: 10; display: flex; flex-direction: column; align-items: center; justify-content: center;"">
                    <div class=""lose-text"" style=""font-size: 48px; font-weight: bold; margin-bottom: 20px; text-shadow: 2px 2px 4px #000;"">LOSE</div>
                    <img src=""images/coin_no_reward.png"" class=""reward-img"" style=""background-color: black; border-radius: 50%;"">
                    <div class=""lose-text"" style=""font-size: 48px; font-weight: bold; margin-top: 20px; text-shadow: 2px 2px 4px #000;"">-0.05&pound;</div>
                </div></div></div>","null","","","","","","","","","","","","","","","","","","","","","","","","","","",""
"html-keyboard-response","45","212832","0.0-8.0-47.0","69dfca6fe751b64c73aeac08","69e3dbe1909b093a52706ce7","0.5","desktop","0","0","0","","","","","","luck_game","547","<div id=""score-counter"">TOTAL SCORE: &pound;0.05</div><div class=""experiment-container""><div class=""center-zone""><div class=""cross""></div><div class=""triangle-grid""><div class=""machine top-center blue-outline""></div><div class=""machine bottom-left green""></div><div class=""machine bottom-right red""></div></div></div></div>","arrowleft","","","","","gambling_choice","1","4","arrowleft","bottom-left","green","arrowup","top-center","blue","arrowup","top-center","blue","arrowright","bottom-right","red","0","0","0","0.05","-0.05","-0.05","true","false"
"html-keyboard-response","46","212935","0.0-8.0-48.0-0.0","69dfca6fe751b64c73aeac08","69e3dbe1909b093a52706ce7","0.5","desktop","0","0","0","","","","","","luck_game","null","<div id=""score-counter"">TOTAL SCORE: &pound;0.05</div><div class=""experiment-container""><div class=""center-zone""><div class=""cross""></div><div class=""triangle-grid""><div class=""machine top-center blue-outline""></div><div class=""machine bottom-left green""></div><div class=""machine bottom-right red""></div></div></div></div>","null","","","","","","","","","","","","","","","","","","","","","","","","","","",""
"html-keyboard-response","47","213436","0.0-8.0-49.0-0.0","69dfca6fe751b64c73aeac08","69e3dbe1909b093a52706ce7","0.5","desktop","0","0","0","","","","","","luck_game","null","<div id=""score-counter"">TOTAL SCORE: &pound;0.05</div><div class=""experiment-container""><div class=""center-zone""><div class=""cross""></div></div></div>","null","","","","","","","","","","","","","","","","","","","","","","","","","","",""
"html-keyboard-response","48","214446","0.0-8.0-50.0-0.0","69dfca6fe751b64c73aeac08","69e3dbe1909b093a52706ce7","0.5","desktop","0","0","0","","","","","","luck_game","null","<div id=""score-counter"">TOTAL SCORE: &pound;0.00</div><div class=""experiment-container""><div class=""center-zone""><div class=""cross""></div>
                <div style=""position: absolute; z-index: 10; display: flex; flex-direction: column; align-items: center; justify-content: center;"">
                    <div class=""lose-text"" style=""font-size: 48px; font-weight: bold; margin-bottom: 20px; text-shadow: 2px 2px 4px #000;"">LOSE</div>
                    <img src=""images/coin_no_reward.png"" class=""reward-img"" style=""background-color: black; border-radius: 50%;"">
                    <div class=""lose-text"" style=""font-size: 48px; font-weight: bold; margin-top: 20px; text-shadow: 2px 2px 4px #000;"">-0.05&pound;</div>
                </div></div></div>","null","","","","","","","","","","","","","","","","","","","","","","","","","","",""
"html-keyboard-response","49","214976","0.0-8.0-53.0","69dfca6fe751b64c73aeac08","69e3dbe1909b093a52706ce7","0.5","desktop","0","0","0","","","","","","luck_game","530","<div id=""score-counter"">TOTAL SCORE: &pound;0.00</div><div class=""experiment-container""><div class=""center-zone""><div class=""cross""></div><div class=""triangle-grid""><div class=""machine top-center blue""></div><div class=""machine bottom-left green""></div><div class=""machine bottom-right red-outline""></div></div></div></div>","arrowleft","","","","","gambling_choice","1","5","arrowleft","bottom-left","green","arrowleft","bottom-left","green","arrowright","bottom-right","red","arrowup","top-center","blue","0","1","0.05","0","0.05","-0.05","true","false"
"html-keyboard-response","50","215078","0.0-8.0-54.0-0.0","69dfca6fe751b64c73aeac08","69e3dbe1909b093a52706ce7","0.5","desktop","0","0","0","","","","","","luck_game","null","<div id=""score-counter"">TOTAL SCORE: &pound;0.00</div><div class=""experiment-container""><div class=""center-zone""><div class=""cross""></div><div class=""triangle-grid""><div class=""machine top-center blue""></div><div class=""machine bottom-left green""></div><div class=""machine bottom-right red-outline""></div></div></div></div>","null","","","","","","","","","","","","","","","","","","","","","","","","","","",""
"html-keyboard-response","51","215580","0.0-8.0-55.0-0.0","69dfca6fe751b64c73aeac08","69e3dbe1909b093a52706ce7","0.5","desktop","0","0","0","","","","","","luck_game","null","<div id=""score-counter"">TOTAL SCORE: &pound;0.00</div><div class=""experiment-container""><div class=""center-zone""><div class=""cross""></div></div></div>","null","","","","","","","","","","","","","","","","","","","","","","","","","","",""
"html-keyboard-response","52","216583","0.0-8.0-56.0-0.0","69dfca6fe751b64c73aeac08","69e3dbe1909b093a52706ce7","0.5","desktop","0","0","0","","","","","","luck_game","null","<div id=""score-counter"">TOTAL SCORE: &pound;0.05</div><div class=""experiment-container""><div class=""center-zone""><div class=""cross""></div>
                <div style=""position: absolute; z-index: 10; display: flex; flex-direction: column; align-items: center; justify-content: center;"">
                    <div class=""win-text"" style=""font-size: 48px; font-weight: bold; margin-bottom: 20px; text-shadow: 2px 2px 4px #000;"">WIN</div>
                    <img src=""images/coin_reward.png"" class=""reward-img"" style=""background-color: black; border-radius: 50%;"">
                    <div class=""win-text"" style=""font-size: 48px; font-weight: bold; margin-top: 20px; text-shadow: 2px 2px 4px #000;"">+0.05&pound;</div>
                </div></div></div>","null","","","","","","","","","","","","","","","","","","","","","","","","","","",""
"html-keyboard-response","53","217188","0.0-8.0-59.0","69dfca6fe751b64c73aeac08","69e3dbe1909b093a52706ce7","0.5","desktop","0","0","0","","","","","","luck_game","605","<div id=""score-counter"">TOTAL SCORE: &pound;0.05</div><div class=""experiment-container""><div class=""center-zone""><div class=""cross""></div><div class=""triangle-grid""><div class=""machine top-center blue""></div><div class=""machine bottom-left green""></div><div class=""machine bottom-right red-outline""></div></div></div></div>","arrowup","","","","","gambling_choice","1","6","arrowup","top-center","blue","arrowleft","bottom-left","green","arrowright","bottom-right","red","arrowright","bottom-right","red","1","0","0","0.05","-0.05","0.05","true","false"
"html-keyboard-response","54","217295","0.0-8.0-60.0-0.0","69dfca6fe751b64c73aeac08","69e3dbe1909b093a52706ce7","0.5","desktop","0","0","0","","","","","","luck_game","null","<div id=""score-counter"">TOTAL SCORE: &pound;0.05</div><div class=""experiment-container""><div class=""center-zone""><div class=""cross""></div><div class=""triangle-grid""><div class=""machine top-center blue""></div><div class=""machine bottom-left green""></div><div class=""machine bottom-right red-outline""></div></div></div></div>","null","","","","","","","","","","","","","","","","","","","","","","","","","","",""
"html-keyboard-response","55","217799","0.0-8.0-61.0-0.0","69dfca6fe751b64c73aeac08","69e3dbe1909b093a52706ce7","0.5","desktop","0","0","0","","","","","","luck_game","null","<div id=""score-counter"">TOTAL SCORE: &pound;0.05</div><div class=""experiment-container""><div class=""center-zone""><div class=""cross""></div></div></div>","null","","","","","","","","","","","","","","","","","","","","","","","","","","",""
"html-keyboard-response","56","218803","0.0-8.0-62.0-0.0","69dfca6fe751b64c73aeac08","69e3dbe1909b093a52706ce7","0.5","desktop","0","0","0","","","","","","luck_game","null","<div id=""score-counter"">TOTAL SCORE: &pound;0.00</div><div class=""experiment-container""><div class=""center-zone""><div class=""cross""></div>
                <div style=""position: absolute; z-index: 10; display: flex; flex-direction: column; align-items: center; justify-content: center;"">
                    <div class=""lose-text"" style=""font-size: 48px; font-weight: bold; margin-bottom: 20px; text-shadow: 2px 2px 4px #000;"">LOSE</div>
                    <img src=""images/coin_no_reward.png"" class=""reward-img"" style=""background-color: black; border-radius: 50%;"">
                    <div class=""lose-text"" style=""font-size: 48px; font-weight: bold; margin-top: 20px; text-shadow: 2px 2px 4px #000;"">-0.05&pound;</div>
                </div></div></div>","null","","","","","","","","","","","","","","","","","","","","","","","","","","",""
"html-keyboard-response","57","219355","0.0-8.0-65.0","69dfca6fe751b64c73aeac08","69e3dbe1909b093a52706ce7","0.5","desktop","0","0","0","","","","","","luck_game","552","<div id=""score-counter"">TOTAL SCORE: &pound;0.00</div><div class=""experiment-container""><div class=""center-zone""><div class=""cross""></div><div class=""triangle-grid""><div class=""machine top-center blue-outline""></div><div class=""machine bottom-left green""></div><div class=""machine bottom-right red""></div></div></div></div>","arrowright","","","","","gambling_choice","1","7","arrowright","bottom-right","red","arrowup","top-center","blue","arrowup","top-center","blue","arrowright","bottom-right","red","0","0","0","0","-0.05","-0.05","true","false"
"html-keyboard-response","58","219465","0.0-8.0-66.0-0.0","69dfca6fe751b64c73aeac08","69e3dbe1909b093a52706ce7","0.5","desktop","0","0","0","","","","","","luck_game","null","<div id=""score-counter"">TOTAL SCORE: &pound;0.00</div><div class=""experiment-container""><div class=""center-zone""><div class=""cross""></div><div class=""triangle-grid""><div class=""machine top-center blue-outline""></div><div class=""machine bottom-left green""></div><div class=""machine bottom-right red""></div></div></div></div>","null","","","","","","","","","","","","","","","","","","","","","","","","","","",""
"html-keyboard-response","59","219974","0.0-8.0-67.0-0.0","69dfca6fe751b64c73aeac08","69e3dbe1909b093a52706ce7","0.5","desktop","0","0","0","","","","","","luck_game","null","<div id=""score-counter"">TOTAL SCORE: &pound;0.00</div><div class=""experiment-container""><div class=""center-zone""><div class=""cross""></div></div></div>","null","","","","","","","","","","","","","","","","","","","","","","","","","","",""
"html-keyboard-response","60","220982","0.0-8.0-68.0-0.0","69dfca6fe751b64c73aeac08","69e3dbe1909b093a52706ce7","0.5","desktop","0","0","0","","","","","","luck_game","null","<div id=""score-counter"">TOTAL SCORE: &pound;0.00</div><div class=""experiment-container""><div class=""center-zone""><div class=""cross""></div>
                <div style=""position: absolute; z-index: 10; display: flex; flex-direction: column; align-items: center; justify-content: center;"">
                    <div class=""lose-text"" style=""font-size: 48px; font-weight: bold; margin-bottom: 20px; text-shadow: 2px 2px 4px #000;"">LOSE</div>
                    <img src=""images/coin_no_reward.png"" class=""reward-img"" style=""background-color: black; border-radius: 50%;"">
                    <div class=""lose-text"" style=""font-size: 48px; font-weight: bold; margin-top: 20px; text-shadow: 2px 2px 4px #000;"">-0.05&pound;</div>
                </div></div></div>","null","","","","","","","","","","","","","","","","","","","","","","","","","","",""
"html-keyboard-response","61","221583","0.0-8.0-71.0","69dfca6fe751b64c73aeac08","69e3dbe1909b093a52706ce7","0.5","desktop","0","0","0","","","","","","luck_game","600","<div id=""score-counter"">TOTAL SCORE: &pound;0.00</div><div class=""experiment-container""><div class=""center-zone""><div class=""cross""></div><div class=""triangle-grid""><div class=""machine top-center blue""></div><div class=""machine bottom-left green-outline""></div><div class=""machine bottom-right red""></div></div></div></div>","arrowup","","","","","gambling_choice","1","8","arrowup","top-center","blue","arrowright","bottom-right","red","arrowleft","bottom-left","green","arrowup","top-center","blue","0","1","0.05","0","0.05","-0.05","true","false"
"html-keyboard-response","62","221691","0.0-8.0-72.0-0.0","69dfca6fe751b64c73aeac08","69e3dbe1909b093a52706ce7","0.5","desktop","0","0","0","","","","","","luck_game","null","<div id=""score-counter"">TOTAL SCORE: &pound;0.00</div><div class=""experiment-container""><div class=""center-zone""><div class=""cross""></div><div class=""triangle-grid""><div class=""machine top-center blue""></div><div class=""machine bottom-left green-outline""></div><div class=""machine bottom-right red""></div></div></div></div>","null","","","","","","","","","","","","","","","","","","","","","","","","","","",""
"html-keyboard-response","63","222192","0.0-8.0-73.0-0.0","69dfca6fe751b64c73aeac08","69e3dbe1909b093a52706ce7","0.5","desktop","0","0","0","","","","","","luck_game","null","<div id=""score-counter"">TOTAL SCORE: &pound;0.00</div><div class=""experiment-container""><div class=""center-zone""><div class=""cross""></div></div></div>","null","","","","","","","","","","","","","","","","","","","","","","","","","","",""
"html-keyboard-response","64","223198","0.0-8.0-74.0-0.0","69dfca6fe751b64c73aeac08","69e3dbe1909b093a52706ce7","0.5","desktop","0","0","0","","","","","","luck_game","null","<div id=""score-counter"">TOTAL SCORE: &pound;0.05</div><div class=""experiment-container""><div class=""center-zone""><div class=""cross""></div>
                <div style=""position: absolute; z-index: 10; display: flex; flex-direction: column; align-items: center; justify-content: center;"">
                    <div class=""win-text"" style=""font-size: 48px; font-weight: bold; margin-bottom: 20px; text-shadow: 2px 2px 4px #000;"">WIN</div>
                    <img src=""images/coin_reward.png"" class=""reward-img"" style=""background-color: black; border-radius: 50%;"">
                    <div class=""win-text"" style=""font-size: 48px; font-weight: bold; margin-top: 20px; text-shadow: 2px 2px 4px #000;"">+0.05&pound;</div>
                </div></div></div>","null","","","","","","","","","","","","","","","","","","","","","","","","","","",""
"html-keyboard-response","65","223680","0.0-8.0-77.0","69dfca6fe751b64c73aeac08","69e3dbe1909b093a52706ce7","0.5","desktop","0","0","0","","","","","","luck_game","481","<div id=""score-counter"">TOTAL SCORE: &pound;0.05</div><div class=""experiment-container""><div class=""center-zone""><div class=""cross""></div><div class=""triangle-grid""><div class=""machine top-center blue""></div><div class=""machine bottom-left green""></div><div class=""machine bottom-right red-outline""></div></div></div></div>","arrowup","","","","","gambling_choice","1","9","arrowup","top-center","blue","arrowup","top-center","blue","arrowright","bottom-right","red","arrowleft","bottom-left","green","1","1","0.1","0.05","0.05","0.05","true","false"
"html-keyboard-response","66","223795","0.0-8.0-78.0-0.0","69dfca6fe751b64c73aeac08","69e3dbe1909b093a52706ce7","0.5","desktop","0","0","0","","","","","","luck_game","null","<div id=""score-counter"">TOTAL SCORE: &pound;0.05</div><div class=""experiment-container""><div class=""center-zone""><div class=""cross""></div><div class=""triangle-grid""><div class=""machine top-center blue""></div><div class=""machine bottom-left green""></div><div class=""machine bottom-right red-outline""></div></div></div></div>","null","","","","","","","","","","","","","","","","","","","","","","","","","","",""
"html-keyboard-response","67","224296","0.0-8.0-79.0-0.0","69dfca6fe751b64c73aeac08","69e3dbe1909b093a52706ce7","0.5","desktop","0","0","0","","","","","","luck_game","null","<div id=""score-counter"">TOTAL SCORE: &pound;0.05</div><div class=""experiment-container""><div class=""center-zone""><div class=""cross""></div></div></div>","null","","","","","","","","","","","","","","","","","","","","","","","","","","",""
"html-keyboard-response","68","225301","0.0-8.0-80.0-0.0","69dfca6fe751b64c73aeac08","69e3dbe1909b093a52706ce7","0.5","desktop","0","0","0","","","","","","luck_game","null","<div id=""score-counter"">TOTAL SCORE: &pound;0.10</div><div class=""experiment-container""><div class=""center-zone""><div class=""cross""></div>
                <div style=""position: absolute; z-index: 10; display: flex; flex-direction: column; align-items: center; justify-content: center;"">
                    <div class=""win-text"" style=""font-size: 48px; font-weight: bold; margin-bottom: 20px; text-shadow: 2px 2px 4px #000;"">WIN</div>
                    <img src=""images/coin_reward.png"" class=""reward-img"" style=""background-color: black; border-radius: 50%;"">
                    <div class=""win-text"" style=""font-size: 48px; font-weight: bold; margin-top: 20px; text-shadow: 2px 2px 4px #000;"">+0.05&pound;</div>
                </div></div></div>","null","","","","","","","","","","","","","","","","","","","","","","","","","","",""
"html-keyboard-response","69","225782","0.0-8.0-83.0","69dfca6fe751b64c73aeac08","69e3dbe1909b093a52706ce7","0.5","desktop","0","0","0","","","","","","luck_game","480","<div id=""score-counter"">TOTAL SCORE: &pound;0.10</div><div class=""experiment-container""><div class=""center-zone""><div class=""cross""></div><div class=""triangle-grid""><div class=""machine top-center blue""></div><div class=""machine bottom-left green""></div><div class=""machine bottom-right red-outline""></div></div></div></div>","arrowleft","","","","","gambling_choice","1","10","arrowleft","bottom-left","green","arrowup","top-center","blue","arrowright","bottom-right","red","arrowright","bottom-right","red","1","1","0.15","0.1","0.05","0.05","true","false"
"html-keyboard-response","70","225891","0.0-8.0-84.0-0.0","69dfca6fe751b64c73aeac08","69e3dbe1909b093a52706ce7","0.5","desktop","0","0","0","","","","","","luck_game","null","<div id=""score-counter"">TOTAL SCORE: &pound;0.10</div><div class=""experiment-container""><div class=""center-zone""><div class=""cross""></div><div class=""triangle-grid""><div class=""machine top-center blue""></div><div class=""machine bottom-left green""></div><div class=""machine bottom-right red-outline""></div></div></div></div>","null","","","","","","","","","","","","","","","","","","","","","","","","","","",""
"html-keyboard-response","71","226395","0.0-8.0-85.0-0.0","69dfca6fe751b64c73aeac08","69e3dbe1909b093a52706ce7","0.5","desktop","0","0","0","","","","","","luck_game","null","<div id=""score-counter"">TOTAL SCORE: &pound;0.10</div><div class=""experiment-container""><div class=""center-zone""><div class=""cross""></div></div></div>","null","","","","","","","","","","","","","","","","","","","","","","","","","","",""
"html-keyboard-response","72","227404","0.0-8.0-86.0-0.0","69dfca6fe751b64c73aeac08","69e3dbe1909b093a52706ce7","0.5","desktop","0","0","0","","","","","","luck_game","null","<div id=""score-counter"">TOTAL SCORE: &pound;0.15</div><div class=""experiment-container""><div class=""center-zone""><div class=""cross""></div>
                <div style=""position: absolute; z-index: 10; display: flex; flex-direction: column; align-items: center; justify-content: center;"">
                    <div class=""win-text"" style=""font-size: 48px; font-weight: bold; margin-bottom: 20px; text-shadow: 2px 2px 4px #000;"">WIN</div>
                    <img src=""images/coin_reward.png"" class=""reward-img"" style=""background-color: black; border-radius: 50%;"">
                    <div class=""win-text"" style=""font-size: 48px; font-weight: bold; margin-top: 20px; text-shadow: 2px 2px 4px #000;"">+0.05&pound;</div>
                </div></div></div>","null","","","","","","","","","","","","","","","","","","","","","","","","","","",""
"html-keyboard-response","73","227813","0.0-8.0-89.0","69dfca6fe751b64c73aeac08","69e3dbe1909b093a52706ce7","0.5","desktop","0","0","0","","","","","","luck_game","408","<div id=""score-counter"">TOTAL SCORE: &pound;0.15</div><div class=""experiment-container""><div class=""center-zone""><div class=""cross""></div><div class=""triangle-grid""><div class=""machine top-center blue""></div><div class=""machine bottom-left green""></div><div class=""machine bottom-right red-outline""></div></div></div></div>","arrowup","","","","","gambling_choice","1","11","arrowup","top-center","blue","arrowleft","bottom-left","green","arrowright","bottom-right","red","arrowright","bottom-right","red","1","1","0.2","0.15","0.05","0.05","true","false"
"html-keyboard-response","74","227920","0.0-8.0-90.0-0.0","69dfca6fe751b64c73aeac08","69e3dbe1909b093a52706ce7","0.5","desktop","0","0","0","","","","","","luck_game","null","<div id=""score-counter"">TOTAL SCORE: &pound;0.15</div><div class=""experiment-container""><div class=""center-zone""><div class=""cross""></div><div class=""triangle-grid""><div class=""machine top-center blue""></div><div class=""machine bottom-left green""></div><div class=""machine bottom-right red-outline""></div></div></div></div>","null","","","","","","","","","","","","","","","","","","","","","","","","","","",""
"html-keyboard-response","75","228428","0.0-8.0-91.0-0.0","69dfca6fe751b64c73aeac08","69e3dbe1909b093a52706ce7","0.5","desktop","0","0","0","","","","","","luck_game","null","<div id=""score-counter"">TOTAL SCORE: &pound;0.15</div><div class=""experiment-container""><div class=""center-zone""><div class=""cross""></div></div></div>","null","","","","","","","","","","","","","","","","","","","","","","","","","","",""
"html-keyboard-response","76","229430","0.0-8.0-92.0-0.0","69dfca6fe751b64c73aeac08","69e3dbe1909b093a52706ce7","0.5","desktop","0","0","0","","","","","","luck_game","null","<div id=""score-counter"">TOTAL SCORE: &pound;0.20</div><div class=""experiment-container""><div class=""center-zone""><div class=""cross""></div>
                <div style=""position: absolute; z-index: 10; display: flex; flex-direction: column; align-items: center; justify-content: center;"">
                    <div class=""win-text"" style=""font-size: 48px; font-weight: bold; margin-bottom: 20px; text-shadow: 2px 2px 4px #000;"">WIN</div>
                    <img src=""images/coin_reward.png"" class=""reward-img"" style=""background-color: black; border-radius: 50%;"">
                    <div class=""win-text"" style=""font-size: 48px; font-weight: bold; margin-top: 20px; text-shadow: 2px 2px 4px #000;"">+0.05&pound;</div>
                </div></div></div>","null","","","","","","","","","","","","","","","","","","","","","","","","","","",""
"html-keyboard-response","77","229842","0.0-8.0-95.0","69dfca6fe751b64c73aeac08","69e3dbe1909b093a52706ce7","0.5","desktop","0","0","0","","","","","","luck_game","412","<div id=""score-counter"">TOTAL SCORE: &pound;0.20</div><div class=""experiment-container""><div class=""center-zone""><div class=""cross""></div><div class=""triangle-grid""><div class=""machine top-center blue""></div><div class=""machine bottom-left green-outline""></div><div class=""machine bottom-right red""></div></div></div></div>","arrowright","","","","","gambling_choice","1","12","arrowright","bottom-right","red","arrowup","top-center","blue","arrowleft","bottom-left","green","arrowright","bottom-right","red","1","1","0.25","0.2","0.05","0.05","true","false"
"html-keyboard-response","78","229944","0.0-8.0-96.0-0.0","69dfca6fe751b64c73aeac08","69e3dbe1909b093a52706ce7","0.5","desktop","0","0","0","","","","","","luck_game","null","<div id=""score-counter"">TOTAL SCORE: &pound;0.20</div><div class=""experiment-container""><div class=""center-zone""><div class=""cross""></div><div class=""triangle-grid""><div class=""machine top-center blue""></div><div class=""machine bottom-left green-outline""></div><div class=""machine bottom-right red""></div></div></div></div>","null","","","","","","","","","","","","","","","","","","","","","","","","","","",""
"html-keyboard-response","79","230451","0.0-8.0-97.0-0.0","69dfca6fe751b64c73aeac08","69e3dbe1909b093a52706ce7","0.5","desktop","0","0","0","","","","","","luck_game","null","<div id=""score-counter"">TOTAL SCORE: &pound;0.20</div><div class=""experiment-container""><div class=""center-zone""><div class=""cross""></div></div></div>","null","","","","","","","","","","","","","","","","","","","","","","","","","","",""
"html-keyboard-response","80","231455","0.0-8.0-98.0-0.0","69dfca6fe751b64c73aeac08","69e3dbe1909b093a52706ce7","0.5","desktop","0","0","0","","","","","","luck_game","null","<div id=""score-counter"">TOTAL SCORE: &pound;0.25</div><div class=""experiment-container""><div class=""center-zone""><div class=""cross""></div>
                <div style=""position: absolute; z-index: 10; display: flex; flex-direction: column; align-items: center; justify-content: center;"">
                    <div class=""win-text"" style=""font-size: 48px; font-weight: bold; margin-bottom: 20px; text-shadow: 2px 2px 4px #000;"">WIN</div>
                    <img src=""images/coin_reward.png"" class=""reward-img"" style=""background-color: black; border-radius: 50%;"">
                    <div class=""win-text"" style=""font-size: 48px; font-weight: bold; margin-top: 20px; text-shadow: 2px 2px 4px #000;"">+0.05&pound;</div>
                </div></div></div>","null","","","","","","","","","","","","","","","","","","","","","","","","","","",""
"html-keyboard-response","81","232054","0.0-8.0-101.0","69dfca6fe751b64c73aeac08","69e3dbe1909b093a52706ce7","0.5","desktop","0","0","0","","","","","","luck_game","598","<div id=""score-counter"">TOTAL SCORE: &pound;0.25</div><div class=""experiment-container""><div class=""center-zone""><div class=""cross""></div><div class=""triangle-grid""><div class=""machine top-center blue""></div><div class=""machine bottom-left green""></div><div class=""machine bottom-right red-outline""></div></div></div></div>","arrowleft","","","","","gambling_choice","1","13","arrowleft","bottom-left","green","arrowright","bottom-right","red","arrowright","bottom-right","red","arrowleft","bottom-left","green","1","1","0.3","0.25","0.05","0.05","true","false"
"html-keyboard-response","82","232161","0.0-8.0-102.0-0.0","69dfca6fe751b64c73aeac08","69e3dbe1909b093a52706ce7","0.5","desktop","0","0","0","","","","","","luck_game","null","<div id=""score-counter"">TOTAL SCORE: &pound;0.25</div><div class=""experiment-container""><div class=""center-zone""><div class=""cross""></div><div class=""triangle-grid""><div class=""machine top-center blue""></div><div class=""machine bottom-left green""></div><div class=""machine bottom-right red-outline""></div></div></div></div>","null","","","","","","","","","","","","","","","","","","","","","","","","","","",""
"html-keyboard-response","83","232663","0.0-8.0-103.0-0.0","69dfca6fe751b64c73aeac08","69e3dbe1909b093a52706ce7","0.5","desktop","0","0","0","","","","","","luck_game","null","<div id=""score-counter"">TOTAL SCORE: &pound;0.25</div><div class=""experiment-container""><div class=""center-zone""><div class=""cross""></div></div></div>","null","","","","","","","","","","","","","","","","","","","","","","","","","","",""
"html-keyboard-response","84","233676","0.0-8.0-104.0-0.0","69dfca6fe751b64c73aeac08","69e3dbe1909b093a52706ce7","0.5","desktop","0","0","0","","","","","","luck_game","null","<div id=""score-counter"">TOTAL SCORE: &pound;0.30</div><div class=""experiment-container""><div class=""center-zone""><div class=""cross""></div>
                <div style=""position: absolute; z-index: 10; display: flex; flex-direction: column; align-items: center; justify-content: center;"">
                    <div class=""win-text"" style=""font-size: 48px; font-weight: bold; margin-bottom: 20px; text-shadow: 2px 2px 4px #000;"">WIN</div>
                    <img src=""images/coin_reward.png"" class=""reward-img"" style=""background-color: black; border-radius: 50%;"">
                    <div class=""win-text"" style=""font-size: 48px; font-weight: bold; margin-top: 20px; text-shadow: 2px 2px 4px #000;"">+0.05&pound;</div>
                </div></div></div>","null","","","","","","","","","","","","","","","","","","","","","","","","","","",""
"html-keyboard-response","85","234030","0.0-8.0-107.0","69dfca6fe751b64c73aeac08","69e3dbe1909b093a52706ce7","0.5","desktop","0","0","0","","","","","","luck_game","353","<div id=""score-counter"">TOTAL SCORE: &pound;0.30</div><div class=""experiment-container""><div class=""center-zone""><div class=""cross""></div><div class=""triangle-grid""><div class=""machine top-center blue""></div><div class=""machine bottom-left green""></div><div class=""machine bottom-right red-outline""></div></div></div></div>","arrowup","","","","","gambling_choice","1","14","arrowup","top-center","blue","arrowleft","bottom-left","green","arrowright","bottom-right","red","arrowright","bottom-right","red","1","0","0.25","0.3","-0.05","0.05","true","false"
"html-keyboard-response","86","234141","0.0-8.0-108.0-0.0","69dfca6fe751b64c73aeac08","69e3dbe1909b093a52706ce7","0.5","desktop","0","0","0","","","","","","luck_game","null","<div id=""score-counter"">TOTAL SCORE: &pound;0.30</div><div class=""experiment-container""><div class=""center-zone""><div class=""cross""></div><div class=""triangle-grid""><div class=""machine top-center blue""></div><div class=""machine bottom-left green""></div><div class=""machine bottom-right red-outline""></div></div></div></div>","null","","","","","","","","","","","","","","","","","","","","","","","","","","",""
"html-keyboard-response","87","234643","0.0-8.0-109.0-0.0","69dfca6fe751b64c73aeac08","69e3dbe1909b093a52706ce7","0.5","desktop","0","0","0","","","","","","luck_game","null","<div id=""score-counter"">TOTAL SCORE: &pound;0.30</div><div class=""experiment-container""><div class=""center-zone""><div class=""cross""></div></div></div>","null","","","","","","","","","","","","","","","","","","","","","","","","","","",""
"html-keyboard-response","88","235652","0.0-8.0-110.0-0.0","69dfca6fe751b64c73aeac08","69e3dbe1909b093a52706ce7","0.5","desktop","0","0","0","","","","","","luck_game","null","<div id=""score-counter"">TOTAL SCORE: &pound;0.25</div><div class=""experiment-container""><div class=""center-zone""><div class=""cross""></div>
                <div style=""position: absolute; z-index: 10; display: flex; flex-direction: column; align-items: center; justify-content: center;"">
                    <div class=""lose-text"" style=""font-size: 48px; font-weight: bold; margin-bottom: 20px; text-shadow: 2px 2px 4px #000;"">LOSE</div>
                    <img src=""images/coin_no_reward.png"" class=""reward-img"" style=""background-color: black; border-radius: 50%;"">
                    <div class=""lose-text"" style=""font-size: 48px; font-weight: bold; margin-top: 20px; text-shadow: 2px 2px 4px #000;"">-0.05&pound;</div>
                </div></div></div>","null","","","","","","","","","","","","","","","","","","","","","","","","","","",""
"html-keyboard-response","89","236244","0.0-8.0-113.0","69dfca6fe751b64c73aeac08","69e3dbe1909b093a52706ce7","0.5","desktop","0","0","0","","","","","","luck_game","591","<div id=""score-counter"">TOTAL SCORE: &pound;0.25</div><div class=""experiment-container""><div class=""center-zone""><div class=""cross""></div><div class=""triangle-grid""><div class=""machine top-center blue-outline""></div><div class=""machine bottom-left green""></div><div class=""machine bottom-right red""></div></div></div></div>","arrowleft","","","","","gambling_choice","1","15","arrowleft","bottom-left","green","arrowup","top-center","blue","arrowup","top-center","blue","arrowright","bottom-right","red","0","1","0.3","0.25","0.05","-0.05","true","false"
"html-keyboard-response","90","236351","0.0-8.0-114.0-0.0","69dfca6fe751b64c73aeac08","69e3dbe1909b093a52706ce7","0.5","desktop","0","0","0","","","","","","luck_game","null","<div id=""score-counter"">TOTAL SCORE: &pound;0.25</div><div class=""experiment-container""><div class=""center-zone""><div class=""cross""></div><div class=""triangle-grid""><div class=""machine top-center blue-outline""></div><div class=""machine bottom-left green""></div><div class=""machine bottom-right red""></div></div></div></div>","null","","","","","","","","","","","","","","","","","","","","","","","","","","",""
"html-keyboard-response","91","236856","0.0-8.0-115.0-0.0","69dfca6fe751b64c73aeac08","69e3dbe1909b093a52706ce7","0.5","desktop","0","0","0","","","","","","luck_game","null","<div id=""score-counter"">TOTAL SCORE: &pound;0.25</div><div class=""experiment-container""><div class=""center-zone""><div class=""cross""></div></div></div>","null","","","","","","","","","","","","","","","","","","","","","","","","","","",""
"html-keyboard-response","92","237860","0.0-8.0-116.0-0.0","69dfca6fe751b64c73aeac08","69e3dbe1909b093a52706ce7","0.5","desktop","0","0","0","","","","","","luck_game","null","<div id=""score-counter"">TOTAL SCORE: &pound;0.30</div><div class=""experiment-container""><div class=""center-zone""><div class=""cross""></div>
                <div style=""position: absolute; z-index: 10; display: flex; flex-direction: column; align-items: center; justify-content: center;"">
                    <div class=""win-text"" style=""font-size: 48px; font-weight: bold; margin-bottom: 20px; text-shadow: 2px 2px 4px #000;"">WIN</div>
                    <img src=""images/coin_reward.png"" class=""reward-img"" style=""background-color: black; border-radius: 50%;"">
                    <div class=""win-text"" style=""font-size: 48px; font-weight: bold; margin-top: 20px; text-shadow: 2px 2px 4px #000;"">+0.05&pound;</div>
                </div></div></div>","null","","","","","","","","","","","","","","","","","","","","","","","","","","",""
"html-keyboard-response","93","238413","0.0-8.0-119.0","69dfca6fe751b64c73aeac08","69e3dbe1909b093a52706ce7","0.5","desktop","0","0","0","","","","","","luck_game","552","<div id=""score-counter"">TOTAL SCORE: &pound;0.30</div><div class=""experiment-container""><div class=""center-zone""><div class=""cross""></div><div class=""triangle-grid""><div class=""machine top-center blue""></div><div class=""machine bottom-left green""></div><div class=""machine bottom-right red-outline""></div></div></div></div>","arrowup","","","","","gambling_choice","1","16","arrowup","top-center","blue","arrowleft","bottom-left","green","arrowright","bottom-right","red","arrowup","top-center","blue","1","1","0.35","0.3","0.05","0.05","true","false"
"html-keyboard-response","94","238520","0.0-8.0-120.0-0.0","69dfca6fe751b64c73aeac08","69e3dbe1909b093a52706ce7","0.5","desktop","0","0","0","","","","","","luck_game","null","<div id=""score-counter"">TOTAL SCORE: &pound;0.30</div><div class=""experiment-container""><div class=""center-zone""><div class=""cross""></div><div class=""triangle-grid""><div class=""machine top-center blue""></div><div class=""machine bottom-left green""></div><div class=""machine bottom-right red-outline""></div></div></div></div>","null","","","","","","","","","","","","","","","","","","","","","","","","","","",""
"html-keyboard-response","95","239025","0.0-8.0-121.0-0.0","69dfca6fe751b64c73aeac08","69e3dbe1909b093a52706ce7","0.5","desktop","0","0","0","","","","","","luck_game","null","<div id=""score-counter"">TOTAL SCORE: &pound;0.30</div><div class=""experiment-container""><div class=""center-zone""><div class=""cross""></div></div></div>","null","","","","","","","","","","","","","","","","","","","","","","","","","","",""
"html-keyboard-response","96","240029","0.0-8.0-122.0-0.0","69dfca6fe751b64c73aeac08","69e3dbe1909b093a52706ce7","0.5","desktop","0","0","0","","","","","","luck_game","null","<div id=""score-counter"">TOTAL SCORE: &pound;0.35</div><div class=""experiment-container""><div class=""center-zone""><div class=""cross""></div>
                <div style=""position: absolute; z-index: 10; display: flex; flex-direction: column; align-items: center; justify-content: center;"">
                    <div class=""win-text"" style=""font-size: 48px; font-weight: bold; margin-bottom: 20px; text-shadow: 2px 2px 4px #000;"">WIN</div>
                    <img src=""images/coin_reward.png"" class=""reward-img"" style=""background-color: black; border-radius: 50%;"">
                    <div class=""win-text"" style=""font-size: 48px; font-weight: bold; margin-top: 20px; text-shadow: 2px 2px 4px #000;"">+0.05&pound;</div>
                </div></div></div>","null","","","","","","","","","","","","","","","","","","","","","","","","","","",""
"html-keyboard-response","97","240548","0.0-8.0-125.0","69dfca6fe751b64c73aeac08","69e3dbe1909b093a52706ce7","0.5","desktop","0","0","0","","","","","","luck_game","518","<div id=""score-counter"">TOTAL SCORE: &pound;0.35</div><div class=""experiment-container""><div class=""center-zone""><div class=""cross""></div><div class=""triangle-grid""><div class=""machine top-center blue""></div><div class=""machine bottom-left green""></div><div class=""machine bottom-right red-outline""></div></div></div></div>","arrowleft","","","","","gambling_choice","1","17","arrowleft","bottom-left","green","arrowup","top-center","blue","arrowright","bottom-right","red","arrowright","bottom-right","red","1","1","0.4","0.35","0.05","0.05","true","false"
"html-keyboard-response","98","240654","0.0-8.0-126.0-0.0","69dfca6fe751b64c73aeac08","69e3dbe1909b093a52706ce7","0.5","desktop","0","0","0","","","","","","luck_game","null","<div id=""score-counter"">TOTAL SCORE: &pound;0.35</div><div class=""experiment-container""><div class=""center-zone""><div class=""cross""></div><div class=""triangle-grid""><div class=""machine top-center blue""></div><div class=""machine bottom-left green""></div><div class=""machine bottom-right red-outline""></div></div></div></div>","null","","","","","","","","","","","","","","","","","","","","","","","","","","",""
"html-keyboard-response","99","241156","0.0-8.0-127.0-0.0","69dfca6fe751b64c73aeac08","69e3dbe1909b093a52706ce7","0.5","desktop","0","0","0","","","","","","luck_game","null","<div id=""score-counter"">TOTAL SCORE: &pound;0.35</div><div class=""experiment-container""><div class=""center-zone""><div class=""cross""></div></div></div>","null","","","","","","","","","","","","","","","","","","","","","","","","","","",""
"html-keyboard-response","100","242168","0.0-8.0-128.0-0.0","69dfca6fe751b64c73aeac08","69e3dbe1909b093a52706ce7","0.5","desktop","0","0","0","","","","","","luck_game","null","<div id=""score-counter"">TOTAL SCORE: &pound;0.40</div><div class=""experiment-container""><div class=""center-zone""><div class=""cross""></div>
                <div style=""position: absolute; z-index: 10; display: flex; flex-direction: column; align-items: center; justify-content: center;"">
                    <div class=""win-text"" style=""font-size: 48px; font-weight: bold; margin-bottom: 20px; text-shadow: 2px 2px 4px #000;"">WIN</div>
                    <img src=""images/coin_reward.png"" class=""reward-img"" style=""background-color: black; border-radius: 50%;"">
                    <div class=""win-text"" style=""font-size: 48px; font-weight: bold; margin-top: 20px; text-shadow: 2px 2px 4px #000;"">+0.05&pound;</div>
                </div></div></div>","null","","","","","","","","","","","","","","","","","","","","","","","","","","",""
"html-keyboard-response","101","242714","0.0-8.0-131.0","69dfca6fe751b64c73aeac08","69e3dbe1909b093a52706ce7","0.5","desktop","0","0","0","","","","","","luck_game","546","<div id=""score-counter"">TOTAL SCORE: &pound;0.40</div><div class=""experiment-container""><div class=""center-zone""><div class=""cross""></div><div class=""triangle-grid""><div class=""machine top-center blue-outline""></div><div class=""machine bottom-left green""></div><div class=""machine bottom-right red""></div></div></div></div>","arrowright","","","","","gambling_choice","1","18","arrowright","bottom-right","red","arrowleft","bottom-left","green","arrowup","top-center","blue","arrowright","bottom-right","red","1","1","0.45","0.4","0.05","0.05","true","false"
"html-keyboard-response","102","242821","0.0-8.0-132.0-0.0","69dfca6fe751b64c73aeac08","69e3dbe1909b093a52706ce7","0.5","desktop","0","0","0","","","","","","luck_game","null","<div id=""score-counter"">TOTAL SCORE: &pound;0.40</div><div class=""experiment-container""><div class=""center-zone""><div class=""cross""></div><div class=""triangle-grid""><div class=""machine top-center blue-outline""></div><div class=""machine bottom-left green""></div><div class=""machine bottom-right red""></div></div></div></div>","null","","","","","","","","","","","","","","","","","","","","","","","","","","",""
"html-keyboard-response","103","243323","0.0-8.0-133.0-0.0","69dfca6fe751b64c73aeac08","69e3dbe1909b093a52706ce7","0.5","desktop","0","0","0","","","","","","luck_game","null","<div id=""score-counter"">TOTAL SCORE: &pound;0.40</div><div class=""experiment-container""><div class=""center-zone""><div class=""cross""></div></div></div>","null","","","","","","","","","","","","","","","","","","","","","","","","","","",""
"html-keyboard-response","104","244331","0.0-8.0-134.0-0.0","69dfca6fe751b64c73aeac08","69e3dbe1909b093a52706ce7","0.5","desktop","0","0","0","","","","","","luck_game","null","<div id=""score-counter"">TOTAL SCORE: &pound;0.45</div><div class=""experiment-container""><div class=""center-zone""><div class=""cross""></div>
                <div style=""position: absolute; z-index: 10; display: flex; flex-direction: column; align-items: center; justify-content: center;"">
                    <div class=""win-text"" style=""font-size: 48px; font-weight: bold; margin-bottom: 20px; text-shadow: 2px 2px 4px #000;"">WIN</div>
                    <img src=""images/coin_reward.png"" class=""reward-img"" style=""background-color: black; border-radius: 50%;"">
                    <div class=""win-text"" style=""font-size: 48px; font-weight: bold; margin-top: 20px; text-shadow: 2px 2px 4px #000;"">+0.05&pound;</div>
                </div></div></div>","null","","","","","","","","","","","","","","","","","","","","","","","","","","",""
"html-keyboard-response","105","244791","0.0-8.0-137.0","69dfca6fe751b64c73aeac08","69e3dbe1909b093a52706ce7","0.5","desktop","0","0","0","","","","","","luck_game","459","<div id=""score-counter"">TOTAL SCORE: &pound;0.45</div><div class=""experiment-container""><div class=""center-zone""><div class=""cross""></div><div class=""triangle-grid""><div class=""machine top-center blue""></div><div class=""machine bottom-left green-outline""></div><div class=""machine bottom-right red""></div></div></div></div>","arrowup","","","","","gambling_choice","1","19","arrowup","top-center","blue","arrowright","bottom-right","red","arrowleft","bottom-left","green","arrowup","top-center","blue","1","0","0.4","0.45","-0.05","0.05","true","false"
"html-keyboard-response","106","244898","0.0-8.0-138.0-0.0","69dfca6fe751b64c73aeac08","69e3dbe1909b093a52706ce7","0.5","desktop","0","0","0","","","","","","luck_game","null","<div id=""score-counter"">TOTAL SCORE: &pound;0.45</div><div class=""experiment-container""><div class=""center-zone""><div class=""cross""></div><div class=""triangle-grid""><div class=""machine top-center blue""></div><div class=""machine bottom-left green-outline""></div><div class=""machine bottom-right red""></div></div></div></div>","null","","","","","","","","","","","","","","","","","","","","","","","","","","",""
"html-keyboard-response","107","245406","0.0-8.0-139.0-0.0","69dfca6fe751b64c73aeac08","69e3dbe1909b093a52706ce7","0.5","desktop","0","0","0","","","","","","luck_game","null","<div id=""score-counter"">TOTAL SCORE: &pound;0.45</div><div class=""experiment-container""><div class=""center-zone""><div class=""cross""></div></div></div>","null","","","","","","","","","","","","","","","","","","","","","","","","","","",""
"html-keyboard-response","108","246417","0.0-8.0-140.0-0.0","69dfca6fe751b64c73aeac08","69e3dbe1909b093a52706ce7","0.5","desktop","0","0","0","","","","","","luck_game","null","<div id=""score-counter"">TOTAL SCORE: &pound;0.40</div><div class=""experiment-container""><div class=""center-zone""><div class=""cross""></div>
                <div style=""position: absolute; z-index: 10; display: flex; flex-direction: column; align-items: center; justify-content: center;"">
                    <div class=""lose-text"" style=""font-size: 48px; font-weight: bold; margin-bottom: 20px; text-shadow: 2px 2px 4px #000;"">LOSE</div>
                    <img src=""images/coin_no_reward.png"" class=""reward-img"" style=""background-color: black; border-radius: 50%;"">
                    <div class=""lose-text"" style=""font-size: 48px; font-weight: bold; margin-top: 20px; text-shadow: 2px 2px 4px #000;"">-0.05&pound;</div>
                </div></div></div>","null","","","","","","","","","","","","","","","","","","","","","","","","","","",""
"html-keyboard-response","109","247055","0.0-8.0-143.0","69dfca6fe751b64c73aeac08","69e3dbe1909b093a52706ce7","0.5","desktop","0","0","0","","","","","","luck_game","637","<div id=""score-counter"">TOTAL SCORE: &pound;0.40</div><div class=""experiment-container""><div class=""center-zone""><div class=""cross""></div><div class=""triangle-grid""><div class=""machine top-center blue-outline""></div><div class=""machine bottom-left green""></div><div class=""machine bottom-right red""></div></div></div></div>","arrowright","","","","","gambling_choice","1","20","arrowright","bottom-right","red","arrowup","top-center","blue","arrowup","top-center","blue","arrowleft","bottom-left","green","0","0","0.35","0.4","-0.05","-0.05","true","false"
"html-keyboard-response","110","247165","0.0-8.0-144.0-0.0","69dfca6fe751b64c73aeac08","69e3dbe1909b093a52706ce7","0.5","desktop","0","0","0","","","","","","luck_game","null","<div id=""score-counter"">TOTAL SCORE: &pound;0.40</div><div class=""experiment-container""><div class=""center-zone""><div class=""cross""></div><div class=""triangle-grid""><div class=""machine top-center blue-outline""></div><div class=""machine bottom-left green""></div><div class=""machine bottom-right red""></div></div></div></div>","null","","","","","","","","","","","","","","","","","","","","","","","","","","",""
"html-keyboard-response","111","247672","0.0-8.0-145.0-0.0","69dfca6fe751b64c73aeac08","69e3dbe1909b093a52706ce7","0.5","desktop","0","0","0","","","","","","luck_game","null","<div id=""score-counter"">TOTAL SCORE: &pound;0.40</div><div class=""experiment-container""><div class=""center-zone""><div class=""cross""></div></div></div>","null","","","","","","","","","","","","","","","","","","","","","","","","","","",""
"html-keyboard-response","112","248679","0.0-8.0-146.0-0.0","69dfca6fe751b64c73aeac08","69e3dbe1909b093a52706ce7","0.5","desktop","0","0","0","","","","","","luck_game","null","<div id=""score-counter"">TOTAL SCORE: &pound;0.35</div><div class=""experiment-container""><div class=""center-zone""><div class=""cross""></div>
                <div style=""position: absolute; z-index: 10; display: flex; flex-direction: column; align-items: center; justify-content: center;"">
                    <div class=""lose-text"" style=""font-size: 48px; font-weight: bold; margin-bottom: 20px; text-shadow: 2px 2px 4px #000;"">LOSE</div>
                    <img src=""images/coin_no_reward.png"" class=""reward-img"" style=""background-color: black; border-radius: 50%;"">
                    <div class=""lose-text"" style=""font-size: 48px; font-weight: bold; margin-top: 20px; text-shadow: 2px 2px 4px #000;"">-0.05&pound;</div>
                </div></div></div>","null","","","","","","","","","","","","","","","","","","","","","","","","","","",""
"html-keyboard-response","113","249328","0.0-8.0-149.0","69dfca6fe751b64c73aeac08","69e3dbe1909b093a52706ce7","0.5","desktop","0","0","0","","","","","","luck_game","649","<div id=""score-counter"">TOTAL SCORE: &pound;0.35</div><div class=""experiment-container""><div class=""center-zone""><div class=""cross""></div><div class=""triangle-grid""><div class=""machine top-center blue""></div><div class=""machine bottom-left green-outline""></div><div class=""machine bottom-right red""></div></div></div></div>","arrowup","","","","","gambling_choice","1","21","arrowup","top-center","blue","arrowright","bottom-right","red","arrowleft","bottom-left","green","arrowup","top-center","blue","0","1","0.4","0.35","0.05","-0.05","true","false"
"html-keyboard-response","114","249430","0.0-8.0-150.0-0.0","69dfca6fe751b64c73aeac08","69e3dbe1909b093a52706ce7","0.5","desktop","0","0","0","","","","","","luck_game","null","<div id=""score-counter"">TOTAL SCORE: &pound;0.35</div><div class=""experiment-container""><div class=""center-zone""><div class=""cross""></div><div class=""triangle-grid""><div class=""machine top-center blue""></div><div class=""machine bottom-left green-outline""></div><div class=""machine bottom-right red""></div></div></div></div>","null","","","","","","","","","","","","","","","","","","","","","","","","","","",""
"html-keyboard-response","115","249937","0.0-8.0-151.0-0.0","69dfca6fe751b64c73aeac08","69e3dbe1909b093a52706ce7","0.5","desktop","0","0","0","","","","","","luck_game","null","<div id=""score-counter"">TOTAL SCORE: &pound;0.35</div><div class=""experiment-container""><div class=""center-zone""><div class=""cross""></div></div></div>","null","","","","","","","","","","","","","","","","","","","","","","","","","","",""
"html-keyboard-response","116","250946","0.0-8.0-152.0-0.0","69dfca6fe751b64c73aeac08","69e3dbe1909b093a52706ce7","0.5","desktop","0","0","0","","","","","","luck_game","null","<div id=""score-counter"">TOTAL SCORE: &pound;0.40</div><div class=""experiment-container""><div class=""center-zone""><div class=""cross""></div>
                <div style=""position: absolute; z-index: 10; display: flex; flex-direction: column; align-items: center; justify-content: center;"">
                    <div class=""win-text"" style=""font-size: 48px; font-weight: bold; margin-bottom: 20px; text-shadow: 2px 2px 4px #000;"">WIN</div>
                    <img src=""images/coin_reward.png"" class=""reward-img"" style=""background-color: black; border-radius: 50%;"">
                    <div class=""win-text"" style=""font-size: 48px; font-weight: bold; margin-top: 20px; text-shadow: 2px 2px 4px #000;"">+0.05&pound;</div>
                </div></div></div>","null","","","","","","","","","","","","","","","","","","","","","","","","","","",""
"html-keyboard-response","117","251363","0.0-8.0-155.0","69dfca6fe751b64c73aeac08","69e3dbe1909b093a52706ce7","0.5","desktop","0","0","0","","","","","","luck_game","416","<div id=""score-counter"">TOTAL SCORE: &pound;0.40</div><div class=""experiment-container""><div class=""center-zone""><div class=""cross""></div><div class=""triangle-grid""><div class=""machine top-center blue""></div><div class=""machine bottom-left green""></div><div class=""machine bottom-right red-outline""></div></div></div></div>","arrowleft","","","","","gambling_choice","1","22","arrowleft","bottom-left","green","arrowup","top-center","blue","arrowright","bottom-right","red","arrowleft","bottom-left","green","1","0","0.35","0.4","-0.05","0.05","true","false"
"html-keyboard-response","118","251470","0.0-8.0-156.0-0.0","69dfca6fe751b64c73aeac08","69e3dbe1909b093a52706ce7","0.5","desktop","0","0","0","","","","","","luck_game","null","<div id=""score-counter"">TOTAL SCORE: &pound;0.40</div><div class=""experiment-container""><div class=""center-zone""><div class=""cross""></div><div class=""triangle-grid""><div class=""machine top-center blue""></div><div class=""machine bottom-left green""></div><div class=""machine bottom-right red-outline""></div></div></div></div>","null","","","","","","","","","","","","","","","","","","","","","","","","","","",""
"html-keyboard-response","119","251973","0.0-8.0-157.0-0.0","69dfca6fe751b64c73aeac08","69e3dbe1909b093a52706ce7","0.5","desktop","0","0","0","","","","","","luck_game","null","<div id=""score-counter"">TOTAL SCORE: &pound;0.40</div><div class=""experiment-container""><div class=""center-zone""><div class=""cross""></div></div></div>","null","","","","","","","","","","","","","","","","","","","","","","","","","","",""
"html-keyboard-response","120","252982","0.0-8.0-158.0-0.0","69dfca6fe751b64c73aeac08","69e3dbe1909b093a52706ce7","0.5","desktop","0","0","0","","","","","","luck_game","null","<div id=""score-counter"">TOTAL SCORE: &pound;0.35</div><div class=""experiment-container""><div class=""center-zone""><div class=""cross""></div>
                <div style=""position: absolute; z-index: 10; display: flex; flex-direction: column; align-items: center; justify-content: center;"">
                    <div class=""lose-text"" style=""font-size: 48px; font-weight: bold; margin-bottom: 20px; text-shadow: 2px 2px 4px #000;"">LOSE</div>
                    <img src=""images/coin_no_reward.png"" class=""reward-img"" style=""background-color: black; border-radius: 50%;"">
                    <div class=""lose-text"" style=""font-size: 48px; font-weight: bold; margin-top: 20px; text-shadow: 2px 2px 4px #000;"">-0.05&pound;</div>
                </div></div></div>","null","","","","","","","","","","","","","","","","","","","","","","","","","","",""
"html-keyboard-response","121","253419","0.0-8.0-161.0","69dfca6fe751b64c73aeac08","69e3dbe1909b093a52706ce7","0.5","desktop","0","0","0","","","","","","luck_game","436","<div id=""score-counter"">TOTAL SCORE: &pound;0.35</div><div class=""experiment-container""><div class=""center-zone""><div class=""cross""></div><div class=""triangle-grid""><div class=""machine top-center blue""></div><div class=""machine bottom-left green-outline""></div><div class=""machine bottom-right red""></div></div></div></div>","arrowup","","","","","gambling_choice","1","23","arrowup","top-center","blue","arrowleft","bottom-left","green","arrowleft","bottom-left","green","arrowright","bottom-right","red","0","0","0.3","0.35","-0.05","-0.05","true","false"
"html-keyboard-response","122","253523","0.0-8.0-162.0-0.0","69dfca6fe751b64c73aeac08","69e3dbe1909b093a52706ce7","0.5","desktop","0","0","0","","","","","","luck_game","null","<div id=""score-counter"">TOTAL SCORE: &pound;0.35</div><div class=""experiment-container""><div class=""center-zone""><div class=""cross""></div><div class=""triangle-grid""><div class=""machine top-center blue""></div><div class=""machine bottom-left green-outline""></div><div class=""machine bottom-right red""></div></div></div></div>","null","","","","","","","","","","","","","","","","","","","","","","","","","","",""
"html-keyboard-response","123","254031","0.0-8.0-163.0-0.0","69dfca6fe751b64c73aeac08","69e3dbe1909b093a52706ce7","0.5","desktop","0","0","0","","","","","","luck_game","null","<div id=""score-counter"">TOTAL SCORE: &pound;0.35</div><div class=""experiment-container""><div class=""center-zone""><div class=""cross""></div></div></div>","null","","","","","","","","","","","","","","","","","","","","","","","","","","",""
"html-keyboard-response","124","255036","0.0-8.0-164.0-0.0","69dfca6fe751b64c73aeac08","69e3dbe1909b093a52706ce7","0.5","desktop","0","0","0","","","","","","luck_game","null","<div id=""score-counter"">TOTAL SCORE: &pound;0.30</div><div class=""experiment-container""><div class=""center-zone""><div class=""cross""></div>
                <div style=""position: absolute; z-index: 10; display: flex; flex-direction: column; align-items: center; justify-content: center;"">
                    <div class=""lose-text"" style=""font-size: 48px; font-weight: bold; margin-bottom: 20px; text-shadow: 2px 2px 4px #000;"">LOSE</div>
                    <img src=""images/coin_no_reward.png"" class=""reward-img"" style=""background-color: black; border-radius: 50%;"">
                    <div class=""lose-text"" style=""font-size: 48px; font-weight: bold; margin-top: 20px; text-shadow: 2px 2px 4px #000;"">-0.05&pound;</div>
                </div></div></div>","null","","","","","","","","","","","","","","","","","","","","","","","","","","",""
"html-keyboard-response","125","255425","0.0-8.0-167.0","69dfca6fe751b64c73aeac08","69e3dbe1909b093a52706ce7","0.5","desktop","0","0","0","","","","","","luck_game","389","<div id=""score-counter"">TOTAL SCORE: &pound;0.30</div><div class=""experiment-container""><div class=""center-zone""><div class=""cross""></div><div class=""triangle-grid""><div class=""machine top-center blue""></div><div class=""machine bottom-left green-outline""></div><div class=""machine bottom-right red""></div></div></div></div>","arrowright","","","","","gambling_choice","1","24","arrowright","bottom-right","red","arrowup","top-center","blue","arrowleft","bottom-left","green","arrowleft","bottom-left","green","0","0","0.25","0.3","-0.05","-0.05","true","false"
"html-keyboard-response","126","255528","0.0-8.0-168.0-0.0","69dfca6fe751b64c73aeac08","69e3dbe1909b093a52706ce7","0.5","desktop","0","0","0","","","","","","luck_game","null","<div id=""score-counter"">TOTAL SCORE: &pound;0.30</div><div class=""experiment-container""><div class=""center-zone""><div class=""cross""></div><div class=""triangle-grid""><div class=""machine top-center blue""></div><div class=""machine bottom-left green-outline""></div><div class=""machine bottom-right red""></div></div></div></div>","null","","","","","","","","","","","","","","","","","","","","","","","","","","",""
"html-keyboard-response","127","256034","0.0-8.0-169.0-0.0","69dfca6fe751b64c73aeac08","69e3dbe1909b093a52706ce7","0.5","desktop","0","0","0","","","","","","luck_game","null","<div id=""score-counter"">TOTAL SCORE: &pound;0.30</div><div class=""experiment-container""><div class=""center-zone""><div class=""cross""></div></div></div>","null","","","","","","","","","","","","","","","","","","","","","","","","","","",""
"html-keyboard-response","128","257035","0.0-8.0-170.0-0.0","69dfca6fe751b64c73aeac08","69e3dbe1909b093a52706ce7","0.5","desktop","0","0","0","","","","","","luck_game","null","<div id=""score-counter"">TOTAL SCORE: &pound;0.25</div><div class=""experiment-container""><div class=""center-zone""><div class=""cross""></div>
                <div style=""position: absolute; z-index: 10; display: flex; flex-direction: column; align-items: center; justify-content: center;"">
                    <div class=""lose-text"" style=""font-size: 48px; font-weight: bold; margin-bottom: 20px; text-shadow: 2px 2px 4px #000;"">LOSE</div>
                    <img src=""images/coin_no_reward.png"" class=""reward-img"" style=""background-color: black; border-radius: 50%;"">
                    <div class=""lose-text"" style=""font-size: 48px; font-weight: bold; margin-top: 20px; text-shadow: 2px 2px 4px #000;"">-0.05&pound;</div>
                </div></div></div>","null","","","","","","","","","","","","","","","","","","","","","","","","","","",""
"html-keyboard-response","129","257553","0.0-8.0-173.0","69dfca6fe751b64c73aeac08","69e3dbe1909b093a52706ce7","0.5","desktop","0","0","0","","","","","","luck_game","517","<div id=""score-counter"">TOTAL SCORE: &pound;0.25</div><div class=""experiment-container""><div class=""center-zone""><div class=""cross""></div><div class=""triangle-grid""><div class=""machine top-center blue""></div><div class=""machine bottom-left green-outline""></div><div class=""machine bottom-right red""></div></div></div></div>","arrowup","","","","","gambling_choice","1","25","arrowup","top-center","blue","arrowright","bottom-right","red","arrowleft","bottom-left","green","arrowleft","bottom-left","green","0","0","0.2","0.25","-0.05","-0.05","true","false"
"html-keyboard-response","130","257667","0.0-8.0-174.0-0.0","69dfca6fe751b64c73aeac08","69e3dbe1909b093a52706ce7","0.5","desktop","0","0","0","","","","","","luck_game","null","<div id=""score-counter"">TOTAL SCORE: &pound;0.25</div><div class=""experiment-container""><div class=""center-zone""><div class=""cross""></div><div class=""triangle-grid""><div class=""machine top-center blue""></div><div class=""machine bottom-left green-outline""></div><div class=""machine bottom-right red""></div></div></div></div>","null","","","","","","","","","","","","","","","","","","","","","","","","","","",""
"html-keyboard-response","131","258177","0.0-8.0-175.0-0.0","69dfca6fe751b64c73aeac08","69e3dbe1909b093a52706ce7","0.5","desktop","0","0","0","","","","","","luck_game","null","<div id=""score-counter"">TOTAL SCORE: &pound;0.25</div><div class=""experiment-container""><div class=""center-zone""><div class=""cross""></div></div></div>","null","","","","","","","","","","","","","","","","","","","","","","","","","","",""
"html-keyboard-response","132","259184","0.0-8.0-176.0-0.0","69dfca6fe751b64c73aeac08","69e3dbe1909b093a52706ce7","0.5","desktop","0","0","0","","","","","","luck_game","null","<div id=""score-counter"">TOTAL SCORE: &pound;0.20</div><div class=""experiment-container""><div class=""center-zone""><div class=""cross""></div>
                <div style=""position: absolute; z-index: 10; display: flex; flex-direction: column; align-items: center; justify-content: center;"">
                    <div class=""lose-text"" style=""font-size: 48px; font-weight: bold; margin-bottom: 20px; text-shadow: 2px 2px 4px #000;"">LOSE</div>
                    <img src=""images/coin_no_reward.png"" class=""reward-img"" style=""background-color: black; border-radius: 50%;"">
                    <div class=""lose-text"" style=""font-size: 48px; font-weight: bold; margin-top: 20px; text-shadow: 2px 2px 4px #000;"">-0.05&pound;</div>
                </div></div></div>","null","","","","","","","","","","","","","","","","","","","","","","","","","","",""
"html-keyboard-response","133","268945","0.0-8.0-179.0","69dfca6fe751b64c73aeac08","69e3dbe1909b093a52706ce7","0.5","desktop","0","0","0","","","","","","luck_game","9760","
            <div class=""experiment-container"">
                <div style=""text-align: center; font-family: sans-serif;"">
                    <h2 style=""color: #3498db; font-size: 40px; margin-bottom: 20px;"">Rest phase.</h2>
                    <p style=""font-size: 24px; color: white;"">Take as much time as needed.</p>
                    <p style=""font-size: 24px; color: white; margin-top: 40px;"">When ready, press <strong>Space</strong> to continue.</p>
                </div>
            </div>"," ","","","","","rest_break","","","","","","","","","","","","","","","","","","","","","",""
"html-keyboard-response","134","269447","0.0-8.0-180.0","69dfca6fe751b64c73aeac08","69e3dbe1909b093a52706ce7","0.5","desktop","0","0","0","","","","","","luck_game","501","<div id=""score-counter"">TOTAL SCORE: &pound;0.20</div><div class=""experiment-container""><div class=""center-zone""><div class=""cross""></div><div class=""triangle-grid""><div class=""machine top-center blue""></div><div class=""machine bottom-left green""></div><div class=""machine bottom-right red-outline""></div></div></div></div>","arrowup","","","","","gambling_choice","2","1","arrowup","top-center","blue","arrowup","top-center","blue","arrowright","bottom-right","red","arrowleft","bottom-left","green","0","1","0.25","0.2","0.05","-0.05","true","false"
"html-keyboard-response","135","269548","0.0-8.0-181.0-0.0","69dfca6fe751b64c73aeac08","69e3dbe1909b093a52706ce7","0.5","desktop","0","0","0","","","","","","luck_game","null","<div id=""score-counter"">TOTAL SCORE: &pound;0.20</div><div class=""experiment-container""><div class=""center-zone""><div class=""cross""></div><div class=""triangle-grid""><div class=""machine top-center blue""></div><div class=""machine bottom-left green""></div><div class=""machine bottom-right red-outline""></div></div></div></div>","null","","","","","","","","","","","","","","","","","","","","","","","","","","",""
"html-keyboard-response","136","270055","0.0-8.0-182.0-0.0","69dfca6fe751b64c73aeac08","69e3dbe1909b093a52706ce7","0.5","desktop","0","0","0","","","","","","luck_game","null","<div id=""score-counter"">TOTAL SCORE: &pound;0.20</div><div class=""experiment-container""><div class=""center-zone""><div class=""cross""></div></div></div>","null","","","","","","","","","","","","","","","","","","","","","","","","","","",""
"html-keyboard-response","137","271065","0.0-8.0-183.0-0.0","69dfca6fe751b64c73aeac08","69e3dbe1909b093a52706ce7","0.5","desktop","0","0","0","","","","","","luck_game","null","<div id=""score-counter"">TOTAL SCORE: &pound;0.25</div><div class=""experiment-container""><div class=""center-zone""><div class=""cross""></div>
                <div style=""position: absolute; z-index: 10; display: flex; flex-direction: column; align-items: center; justify-content: center;"">
                    <div class=""win-text"" style=""font-size: 48px; font-weight: bold; margin-bottom: 20px; text-shadow: 2px 2px 4px #000;"">WIN</div>
                    <img src=""images/coin_reward.png"" class=""reward-img"" style=""background-color: black; border-radius: 50%;"">
                    <div class=""win-text"" style=""font-size: 48px; font-weight: bold; margin-top: 20px; text-shadow: 2px 2px 4px #000;"">+0.05&pound;</div>
                </div></div></div>","null","","","","","","","","","","","","","","","","","","","","","","","","","","",""
"html-keyboard-response","138","271717","0.0-8.0-186.0","69dfca6fe751b64c73aeac08","69e3dbe1909b093a52706ce7","0.5","desktop","0","0","0","","","","","","luck_game","651","<div id=""score-counter"">TOTAL SCORE: &pound;0.25</div><div class=""experiment-container""><div class=""center-zone""><div class=""cross""></div><div class=""triangle-grid""><div class=""machine top-center blue-outline""></div><div class=""machine bottom-left green""></div><div class=""machine bottom-right red""></div></div></div></div>","arrowright","","","","","gambling_choice","2","2","arrowright","bottom-right","red","arrowup","top-center","blue","arrowup","top-center","blue","arrowright","bottom-right","red","1","1","0.3","0.25","0.05","0.05","true","false"
"html-keyboard-response","139","271823","0.0-8.0-187.0-0.0","69dfca6fe751b64c73aeac08","69e3dbe1909b093a52706ce7","0.5","desktop","0","0","0","","","","","","luck_game","null","<div id=""score-counter"">TOTAL SCORE: &pound;0.25</div><div class=""experiment-container""><div class=""center-zone""><div class=""cross""></div><div class=""triangle-grid""><div class=""machine top-center blue-outline""></div><div class=""machine bottom-left green""></div><div class=""machine bottom-right red""></div></div></div></div>","null","","","","","","","","","","","","","","","","","","","","","","","","","","",""
"html-keyboard-response","140","272327","0.0-8.0-188.0-0.0","69dfca6fe751b64c73aeac08","69e3dbe1909b093a52706ce7","0.5","desktop","0","0","0","","","","","","luck_game","null","<div id=""score-counter"">TOTAL SCORE: &pound;0.25</div><div class=""experiment-container""><div class=""center-zone""><div class=""cross""></div></div></div>","null","","","","","","","","","","","","","","","","","","","","","","","","","","",""
"html-keyboard-response","141","273328","0.0-8.0-189.0-0.0","69dfca6fe751b64c73aeac08","69e3dbe1909b093a52706ce7","0.5","desktop","0","0","0","","","","","","luck_game","null","<div id=""score-counter"">TOTAL SCORE: &pound;0.30</div><div class=""experiment-container""><div class=""center-zone""><div class=""cross""></div>
                <div style=""position: absolute; z-index: 10; display: flex; flex-direction: column; align-items: center; justify-content: center;"">
                    <div class=""win-text"" style=""font-size: 48px; font-weight: bold; margin-bottom: 20px; text-shadow: 2px 2px 4px #000;"">WIN</div>
                    <img src=""images/coin_reward.png"" class=""reward-img"" style=""background-color: black; border-radius: 50%;"">
                    <div class=""win-text"" style=""font-size: 48px; font-weight: bold; margin-top: 20px; text-shadow: 2px 2px 4px #000;"">+0.05&pound;</div>
                </div></div></div>","null","","","","","","","","","","","","","","","","","","","","","","","","","","",""
"html-keyboard-response","142","273799","0.0-8.0-192.0","69dfca6fe751b64c73aeac08","69e3dbe1909b093a52706ce7","0.5","desktop","0","0","0","","","","","","luck_game","470","<div id=""score-counter"">TOTAL SCORE: &pound;0.30</div><div class=""experiment-container""><div class=""center-zone""><div class=""cross""></div><div class=""triangle-grid""><div class=""machine top-center blue-outline""></div><div class=""machine bottom-left green""></div><div class=""machine bottom-right red""></div></div></div></div>","arrowleft","","","","","gambling_choice","2","3","arrowleft","bottom-left","green","arrowright","bottom-right","red","arrowup","top-center","blue","arrowup","top-center","blue","1","0","0.25","0.3","-0.05","0.05","true","false"
"html-keyboard-response","143","273903","0.0-8.0-193.0-0.0","69dfca6fe751b64c73aeac08","69e3dbe1909b093a52706ce7","0.5","desktop","0","0","0","","","","","","luck_game","null","<div id=""score-counter"">TOTAL SCORE: &pound;0.30</div><div class=""experiment-container""><div class=""center-zone""><div class=""cross""></div><div class=""triangle-grid""><div class=""machine top-center blue-outline""></div><div class=""machine bottom-left green""></div><div class=""machine bottom-right red""></div></div></div></div>","null","","","","","","","","","","","","","","","","","","","","","","","","","","",""
"html-keyboard-response","144","274411","0.0-8.0-194.0-0.0","69dfca6fe751b64c73aeac08","69e3dbe1909b093a52706ce7","0.5","desktop","0","0","0","","","","","","luck_game","null","<div id=""score-counter"">TOTAL SCORE: &pound;0.30</div><div class=""experiment-container""><div class=""center-zone""><div class=""cross""></div></div></div>","null","","","","","","","","","","","","","","","","","","","","","","","","","","",""
"html-keyboard-response","145","275428","0.0-8.0-195.0-0.0","69dfca6fe751b64c73aeac08","69e3dbe1909b093a52706ce7","0.5","desktop","0","0","0","","","","","","luck_game","null","<div id=""score-counter"">TOTAL SCORE: &pound;0.25</div><div class=""experiment-container""><div class=""center-zone""><div class=""cross""></div>
                <div style=""position: absolute; z-index: 10; display: flex; flex-direction: column; align-items: center; justify-content: center;"">
                    <div class=""lose-text"" style=""font-size: 48px; font-weight: bold; margin-bottom: 20px; text-shadow: 2px 2px 4px #000;"">LOSE</div>
                    <img src=""images/coin_no_reward.png"" class=""reward-img"" style=""background-color: black; border-radius: 50%;"">
                    <div class=""lose-text"" style=""font-size: 48px; font-weight: bold; margin-top: 20px; text-shadow: 2px 2px 4px #000;"">-0.05&pound;</div>
                </div></div></div>","null","","","","","","","","","","","","","","","","","","","","","","","","","","",""
"html-keyboard-response","146","275946","0.0-8.0-198.0","69dfca6fe751b64c73aeac08","69e3dbe1909b093a52706ce7","0.5","desktop","0","0","0","","","","","","luck_game","517","<div id=""score-counter"">TOTAL SCORE: &pound;0.25</div><div class=""experiment-container""><div class=""center-zone""><div class=""cross""></div><div class=""triangle-grid""><div class=""machine top-center blue-outline""></div><div class=""machine bottom-left green""></div><div class=""machine bottom-right red""></div></div></div></div>","arrowright","","","","","gambling_choice","2","4","arrowright","bottom-right","red","arrowleft","bottom-left","green","arrowup","top-center","blue","arrowup","top-center","blue","0","1","0.3","0.25","0.05","-0.05","true","false"
