"trial_type","trial_index","time_elapsed","internal_node_id","subject_id","study_id","device_type","blur_count","fullscreen_exit_count","failed_attention_checks","success","timeout","failed_images","failed_audio","failed_video","phase","value","rt","stimulus","response","view_history","question_order","trial_name","block_type","trial_num","set_size","correct_response","accuracy","mapping","condition","prompt","flipped","attention","expected_answer","category","question_index","task"
"pavlovia","0","2158","0.0-0.0","667bd577710d52a05ac09036","not_provided","desktop","0","0","0","","","","","","","","","","","","","","","","","","","","","","","","","","",""
"preload","1","3471","0.0-2.0","667bd577710d52a05ac09036","not_provided","desktop","0","0","0","true","false","[]","[]","[]","","","","","","","","","","","","","","","","","","","","","",""
"html-keyboard-response","2","53255","0.0-3.0-0.0","667bd577710d52a05ac09036","not_provided","desktop","0","0","0","","","","","","captcha","","","","","","","","","","","","","","","","","","","","",""
"fullscreen","3","61596","0.0-4.0","667bd577710d52a05ac09036","not_provided","desktop","0","0","0","true","","","","","setup","","","","","","","","","","","","","","","","","","","","",""
"call-function","4","61598","0.0-5.0-0.0","667bd577710d52a05ac09036","not_provided","desktop","0","0","0","","","","","","working_memory","","","","","","","","","","","","","","","","","","","","",""
"html-keyboard-response","5","128983","0.0-5.0-1.0","667bd577710d52a05ac09036","not_provided","desktop","0","0","0","","","","","","working_memory","","67383","<div style=""text-align:center;font-family:sans-serif;""><p>Welcome to the luck game experiment!</p><p>This two-day experiment takes part in a study aimed at developing better clinical treatments.</p><p>We appreciate your participation and require your full concentration.</p><br><p>This is a two-day study. Payment (£6/hour) is only given upon completing both parts today and tomorrow.</p><p>You must finish the second part for compensation. After today, you'll receive an invitation for tomorrow's session.</p><p>Please ensure you can attend both sessions before proceeding. Otherwise, you may exit now.</p><p>If you have any questions, please contact us via prolific.</p><br><p>Please stay attentive and in fullscreen mode to ensure payment.</p><p>Thank you for participating!</p><br><p id=""continue-prompt"" style=""visibility:hidden;""><b>Press any key to continue.</b></p></div>","j","","","","","","","","","","","","","","","","",""
"instructions","6","475590","0.0-5.0-2.0-0.0","667bd577710d52a05ac09036","not_provided","desktop","0","0","0","","","","","","working_memory","","346605","","","[{""page_index"":0,""viewing_time"":2277},{""page_index"":1,""viewing_time"":4331},{""page_index"":2,""viewing_time"":33690},{""page_index"":3,""viewing_time"":20265},{""page_index"":4,""viewing_time"":14280},{""page_index"":5,""viewing_time"":5107},{""page_index"":6,""viewing_time"":258454},{""page_index"":7,""viewing_time"":6145},{""page_index"":8,""viewing_time"":2057}]","","","","","","","","","","","","","","","",""
"survey-multi-choice","7","532377","0.0-5.0-2.0-1.0","667bd577710d52a05ac09036","not_provided","desktop","0","0","0","","","","","","working_memory","","56783","","{""set_size"":""4 or 8"",""steps"":""True"",""choose_square"":""Press the 'k' or 's' key."",""remember"":""The colors and locations of the 'memory' squares"",""task"":""To tell if the 'test' square is in the same color as the square previously appearing in this location""}","","[0,1,2,3,4]","test_squares_quiz","","","","","","","","","","","","","",""
"html-keyboard-response","8","539745","0.0-5.0-3.0-0.0","667bd577710d52a05ac09036","not_provided","desktop","0","0","0","","","","","","working_memory","","7366","<p>We will now start some practice trials.<br><b>The practice trials will also include some trials in which you will need to remember only one square to make sure you understood the instructions.</b><br>You may already want to be ready with your fingers on '<b>s</b>' and '<b>k</b>'.<br><img class=""wm-example-img"" src=""images/examples/keyboard.png""><br><b style=""font-size:1.2em;"">&lsquo;K&rsquo; = SAME &nbsp;&nbsp;&nbsp; &lsquo;S&rsquo; = DIFFERENT</b><br><br><u>Please try to be as accurate as possible.</u><br><br><b>Press any key to begin</b></p>","g","","","","","","","","","","","","","","","","",""
"html-keyboard-response","9","541751","0.0-5.0-3.0-1.0-0.0","667bd577710d52a05ac09036","not_provided","desktop","0","0","0","","","","","","working_memory","","null","<div class=""fixation"">+</div>","null","","","","","","","","","","","","","","","","",""
"html-keyboard-response","10","541976","0.0-5.0-3.0-1.0-1.0","667bd577710d52a05ac09036","not_provided","desktop","0","0","0","","","","","","working_memory","","null","<img class='upper1' src=images/squares/magenta.png><div class=""fixation"">+</div>","null","","","memory","practice","0","1","","","","","","","","","","",""
"html-keyboard-response","11","542890","0.0-5.0-3.0-1.0-2.0","667bd577710d52a05ac09036","not_provided","desktop","0","0","0","","","","","","working_memory","","null","<div class=""fixation"">+</div>","null","","","","","","","","","","","","","","","","",""
"html-keyboard-response","12","544433","0.0-5.0-3.0-1.0-3.0","667bd577710d52a05ac09036","not_provided","desktop","0","0","0","","","","","","working_memory","","1540","<img class='upper1' src=images/squares/magenta.png><div class=""fixation"">+</div>","k","","","test","practice","0","1","k","true","","","","","","","","",""
"html-keyboard-response","13","544952","0.0-5.0-3.0-1.0-4.0","667bd577710d52a05ac09036","not_provided","desktop","0","0","0","","","","","","working_memory","","null","<div class=""fixation"">Correct</div>","null","","","","","","","","","","","","","","","","",""
"html-keyboard-response","14","545979","0.0-5.0-3.0-1.0-0.1","667bd577710d52a05ac09036","not_provided","desktop","0","0","0","","","","","","working_memory","","null","<div class=""fixation"">+</div>","null","","","","","","","","","","","","","","","","",""
"html-keyboard-response","15","546195","0.0-5.0-3.0-1.0-1.1","667bd577710d52a05ac09036","not_provided","desktop","0","0","0","","","","","","working_memory","","null","<img class='upper1' src=images/squares/brown.png><div class=""fixation"">+</div>","null","","","memory","practice","1","1","","","","","","","","","","",""
"html-keyboard-response","16","547112","0.0-5.0-3.0-1.0-2.1","667bd577710d52a05ac09036","not_provided","desktop","0","0","0","","","","","","working_memory","","null","<div class=""fixation"">+</div>","null","","","","","","","","","","","","","","","","",""
"html-keyboard-response","17","547899","0.0-5.0-3.0-1.0-3.1","667bd577710d52a05ac09036","not_provided","desktop","0","0","0","","","","","","working_memory","","786","<img class='upper1' src=images/squares/brown.png><div class=""fixation"">+</div>","k","","","test","practice","1","1","k","true","","","","","","","","",""
"html-keyboard-response","18","548414","0.0-5.0-3.0-1.0-4.1","667bd577710d52a05ac09036","not_provided","desktop","0","0","0","","","","","","working_memory","","null","<div class=""fixation"">Correct</div>","null","","","","","","","","","","","","","","","","",""
"html-keyboard-response","19","549430","0.0-5.0-3.0-1.0-0.2","667bd577710d52a05ac09036","not_provided","desktop","0","0","0","","","","","","working_memory","","null","<div class=""fixation"">+</div>","null","","","","","","","","","","","","","","","","",""
"html-keyboard-response","20","549642","0.0-5.0-3.0-1.0-1.2","667bd577710d52a05ac09036","not_provided","desktop","0","0","0","","","","","","working_memory","","null","<img class='b' src=images/squares/black.png><img class='d' src=images/squares/green.png><img class='i' src=images/squares/brown.png><img class='j' src=images/squares/blue.png><div class=""fixation"">+</div>","null","","","memory","practice","2","4","","","","","","","","","","",""
"html-keyboard-response","21","550549","0.0-5.0-3.0-1.0-2.2","667bd577710d52a05ac09036","not_provided","desktop","0","0","0","","","","","","working_memory","","null","<div class=""fixation"">+</div>","null","","","","","","","","","","","","","","","","",""
"html-keyboard-response","22","551577","0.0-5.0-3.0-1.0-3.2","667bd577710d52a05ac09036","not_provided","desktop","0","0","0","","","","","","working_memory","","1027","<img class='b' src=images/squares/cyan.png><div class=""fixation"">+</div>","s","","","test","practice","2","4","s","true","","","","","","","","",""
"html-keyboard-response","23","552089","0.0-5.0-3.0-1.0-4.2","667bd577710d52a05ac09036","not_provided","desktop","0","0","0","","","","","","working_memory","","null","<div class=""fixation"">Correct</div>","null","","","","","","","","","","","","","","","","",""
"html-keyboard-response","24","553091","0.0-5.0-3.0-1.0-0.3","667bd577710d52a05ac09036","not_provided","desktop","0","0","0","","","","","","working_memory","","null","<div class=""fixation"">+</div>","null","","","","","","","","","","","","","","","","",""
"html-keyboard-response","25","553306","0.0-5.0-3.0-1.0-1.3","667bd577710d52a05ac09036","not_provided","desktop","0","0","0","","","","","","working_memory","","null","<img class='a' src=images/squares/magenta.png><img class='e' src=images/squares/black.png><img class='h' src=images/squares/yellow.png><img class='k' src=images/squares/green.png><div class=""fixation"">+</div>","null","","","memory","practice","3","4","","","","","","","","","","",""
"html-keyboard-response","26","554208","0.0-5.0-3.0-1.0-2.3","667bd577710d52a05ac09036","not_provided","desktop","0","0","0","","","","","","working_memory","","null","<div class=""fixation"">+</div>","null","","","","","","","","","","","","","","","","",""
"html-keyboard-response","27","555019","0.0-5.0-3.0-1.0-3.3","667bd577710d52a05ac09036","not_provided","desktop","0","0","0","","","","","","working_memory","","810","<img class='a' src=images/squares/magenta.png><div class=""fixation"">+</div>","s","","","test","practice","3","4","k","false","","","","","","","","",""
"html-keyboard-response","28","555525","0.0-5.0-3.0-1.0-4.3","667bd577710d52a05ac09036","not_provided","desktop","0","0","0","","","","","","working_memory","","null","<div class=""fixation"">Incorrect</div>","null","","","","","","","","","","","","","","","","",""
"html-keyboard-response","29","556542","0.0-5.0-3.0-1.0-0.4","667bd577710d52a05ac09036","not_provided","desktop","0","0","0","","","","","","working_memory","","null","<div class=""fixation"">+</div>","null","","","","","","","","","","","","","","","","",""
"html-keyboard-response","30","556752","0.0-5.0-3.0-1.0-1.4","667bd577710d52a05ac09036","not_provided","desktop","0","0","0","","","","","","working_memory","","null","<img class='b' src=images/squares/blue.png><img class='f' src=images/squares/red.png><img class='h' src=images/squares/magenta.png><img class='k' src=images/squares/orange.png><div class=""fixation"">+</div>","null","","","memory","practice","4","4","","","","","","","","","","",""
"html-keyboard-response","31","557658","0.0-5.0-3.0-1.0-2.4","667bd577710d52a05ac09036","not_provided","desktop","0","0","0","","","","","","working_memory","","null","<div class=""fixation"">+</div>","null","","","","","","","","","","","","","","","","",""
"html-keyboard-response","32","558397","0.0-5.0-3.0-1.0-3.4","667bd577710d52a05ac09036","not_provided","desktop","0","0","0","","","","","","working_memory","","738","<img class='f' src=images/squares/red.png><div class=""fixation"">+</div>","k","","","test","practice","4","4","k","true","","","","","","","","",""
"html-keyboard-response","33","558898","0.0-5.0-3.0-1.0-4.4","667bd577710d52a05ac09036","not_provided","desktop","0","0","0","","","","","","working_memory","","null","<div class=""fixation"">Correct</div>","null","","","","","","","","","","","","","","","","",""
"html-keyboard-response","34","559915","0.0-5.0-3.0-1.0-0.5","667bd577710d52a05ac09036","not_provided","desktop","0","0","0","","","","","","working_memory","","null","<div class=""fixation"">+</div>","null","","","","","","","","","","","","","","","","",""
"html-keyboard-response","35","560130","0.0-5.0-3.0-1.0-1.5","667bd577710d52a05ac09036","not_provided","desktop","0","0","0","","","","","","working_memory","","null","<img class='upper1' src=images/squares/orange.png><div class=""fixation"">+</div>","null","","","memory","practice","5","1","","","","","","","","","","",""
"html-keyboard-response","36","561032","0.0-5.0-3.0-1.0-2.5","667bd577710d52a05ac09036","not_provided","desktop","0","0","0","","","","","","working_memory","","null","<div class=""fixation"">+</div>","null","","","","","","","","","","","","","","","","",""
"html-keyboard-response","37","562136","0.0-5.0-3.0-1.0-3.5","667bd577710d52a05ac09036","not_provided","desktop","0","0","0","","","","","","working_memory","","1102","<img class='upper1' src=images/squares/magenta.png><div class=""fixation"">+</div>","s","","","test","practice","5","1","s","true","","","","","","","","",""
"html-keyboard-response","38","562650","0.0-5.0-3.0-1.0-4.5","667bd577710d52a05ac09036","not_provided","desktop","0","0","0","","","","","","working_memory","","null","<div class=""fixation"">Correct</div>","null","","","","","","","","","","","","","","","","",""
"html-keyboard-response","39","563652","0.0-5.0-3.0-1.0-0.6","667bd577710d52a05ac09036","not_provided","desktop","0","0","0","","","","","","working_memory","","null","<div class=""fixation"">+</div>","null","","","","","","","","","","","","","","","","",""
"html-keyboard-response","40","563861","0.0-5.0-3.0-1.0-1.6","667bd577710d52a05ac09036","not_provided","desktop","0","0","0","","","","","","working_memory","","null","<img class='b' src=images/squares/blue.png><img class='a' src=images/squares/orange.png><img class='d' src=images/squares/cyan.png><img class='f' src=images/squares/red.png><img class='g' src=images/squares/magenta.png><img class='h' src=images/squares/yellow.png><img class='j' src=images/squares/black.png><img class='l' src=images/squares/green.png><div class=""fixation"">+</div>","null","","","memory","practice","6","8","","","","","","","","","","",""
"html-keyboard-response","41","564769","0.0-5.0-3.0-1.0-2.6","667bd577710d52a05ac09036","not_provided","desktop","0","0","0","","","","","","working_memory","","null","<div class=""fixation"">+</div>","null","","","","","","","","","","","","","","","","",""
"html-keyboard-response","42","565995","0.0-5.0-3.0-1.0-3.6","667bd577710d52a05ac09036","not_provided","desktop","0","0","0","","","","","","working_memory","","1224","<img class='h' src=images/squares/brown.png><div class=""fixation"">+</div>","k","","","test","practice","6","8","s","false","","","","","","","","",""
"html-keyboard-response","43","566509","0.0-5.0-3.0-1.0-4.6","667bd577710d52a05ac09036","not_provided","desktop","0","0","0","","","","","","working_memory","","null","<div class=""fixation"">Incorrect</div>","null","","","","","","","","","","","","","","","","",""
"html-keyboard-response","44","567510","0.0-5.0-3.0-1.0-0.7","667bd577710d52a05ac09036","not_provided","desktop","0","0","0","","","","","","working_memory","","null","<div class=""fixation"">+</div>","null","","","","","","","","","","","","","","","","",""
"html-keyboard-response","45","567725","0.0-5.0-3.0-1.0-1.7","667bd577710d52a05ac09036","not_provided","desktop","0","0","0","","","","","","working_memory","","null","<img class='a' src=images/squares/magenta.png><img class='c' src=images/squares/blue.png><img class='d' src=images/squares/yellow.png><img class='e' src=images/squares/orange.png><img class='h' src=images/squares/red.png><img class='i' src=images/squares/cyan.png><img class='j' src=images/squares/brown.png><img class='l' src=images/squares/black.png><div class=""fixation"">+</div>","null","","","memory","practice","7","8","","","","","","","","","","",""
"html-keyboard-response","46","568628","0.0-5.0-3.0-1.0-2.7","667bd577710d52a05ac09036","not_provided","desktop","0","0","0","","","","","","working_memory","","null","<div class=""fixation"">+</div>","null","","","","","","","","","","","","","","","","",""
"html-keyboard-response","47","570003","0.0-5.0-3.0-1.0-3.7","667bd577710d52a05ac09036","not_provided","desktop","0","0","0","","","","","","working_memory","","1375","<img class='e' src=images/squares/orange.png><div class=""fixation"">+</div>","s","","","test","practice","7","8","k","false","","","","","","","","",""
"html-keyboard-response","48","570514","0.0-5.0-3.0-1.0-4.7","667bd577710d52a05ac09036","not_provided","desktop","0","0","0","","","","","","working_memory","","null","<div class=""fixation"">Incorrect</div>","null","","","","","","","","","","","","","","","","",""
"html-keyboard-response","49","571516","0.0-5.0-3.0-1.0-0.8","667bd577710d52a05ac09036","not_provided","desktop","0","0","0","","","","","","working_memory","","null","<div class=""fixation"">+</div>","null","","","","","","","","","","","","","","","","",""
"html-keyboard-response","50","571720","0.0-5.0-3.0-1.0-1.8","667bd577710d52a05ac09036","not_provided","desktop","0","0","0","","","","","","working_memory","","null","<img class='b' src=images/squares/blue.png><img class='e' src=images/squares/yellow.png><img class='h' src=images/squares/green.png><img class='k' src=images/squares/orange.png><div class=""fixation"">+</div>","null","","","memory","practice","8","4","","","","","","","","","","",""
"html-keyboard-response","51","572633","0.0-5.0-3.0-1.0-2.8","667bd577710d52a05ac09036","not_provided","desktop","0","0","0","","","","","","working_memory","","null","<div class=""fixation"">+</div>","null","","","","","","","","","","","","","","","","",""
"html-keyboard-response","52","574161","0.0-5.0-3.0-1.0-3.8","667bd577710d52a05ac09036","not_provided","desktop","0","0","0","","","","","","working_memory","","1527","<img class='e' src=images/squares/black.png><div class=""fixation"">+</div>","s","","","test","practice","8","4","s","true","","","","","","","","",""
"html-keyboard-response","53","574667","0.0-5.0-3.0-1.0-4.8","667bd577710d52a05ac09036","not_provided","desktop","0","0","0","","","","","","working_memory","","null","<div class=""fixation"">Correct</div>","null","","","","","","","","","","","","","","","","",""
"html-keyboard-response","54","575669","0.0-5.0-3.0-1.0-0.9","667bd577710d52a05ac09036","not_provided","desktop","0","0","0","","","","","","working_memory","","null","<div class=""fixation"">+</div>","null","","","","","","","","","","","","","","","","",""
"html-keyboard-response","55","575883","0.0-5.0-3.0-1.0-1.9","667bd577710d52a05ac09036","not_provided","desktop","0","0","0","","","","","","working_memory","","null","<img class='c' src=images/squares/brown.png><img class='a' src=images/squares/red.png><img class='f' src=images/squares/orange.png><img class='d' src=images/squares/magenta.png><img class='i' src=images/squares/yellow.png><img class='h' src=images/squares/green.png><img class='l' src=images/squares/cyan.png><img class='k' src=images/squares/blue.png><div class=""fixation"">+</div>","null","","","memory","practice","9","8","","","","","","","","","","",""
"html-keyboard-response","56","576786","0.0-5.0-3.0-1.0-2.9","667bd577710d52a05ac09036","not_provided","desktop","0","0","0","","","","","","working_memory","","null","<div class=""fixation"">+</div>","null","","","","","","","","","","","","","","","","",""
"html-keyboard-response","57","578137","0.0-5.0-3.0-1.0-3.9","667bd577710d52a05ac09036","not_provided","desktop","0","0","0","","","","","","working_memory","","1349","<img class='f' src=images/squares/black.png><div class=""fixation"">+</div>","s","","","test","practice","9","8","s","true","","","","","","","","",""
"html-keyboard-response","58","578642","0.0-5.0-3.0-1.0-4.9","667bd577710d52a05ac09036","not_provided","desktop","0","0","0","","","","","","working_memory","","null","<div class=""fixation"">Correct</div>","null","","","","","","","","","","","","","","","","",""
"html-keyboard-response","59","579643","0.0-5.0-3.0-1.0-0.10","667bd577710d52a05ac09036","not_provided","desktop","0","0","0","","","","","","working_memory","","null","<div class=""fixation"">+</div>","null","","","","","","","","","","","","","","","","",""
"html-keyboard-response","60","579861","0.0-5.0-3.0-1.0-1.10","667bd577710d52a05ac09036","not_provided","desktop","0","0","0","","","","","","working_memory","","null","<img class='a' src=images/squares/magenta.png><img class='f' src=images/squares/red.png><img class='i' src=images/squares/cyan.png><img class='k' src=images/squares/green.png><div class=""fixation"">+</div>","null","","","memory","practice","10","4","","","","","","","","","","",""
"html-keyboard-response","61","580776","0.0-5.0-3.0-1.0-2.10","667bd577710d52a05ac09036","not_provided","desktop","0","0","0","","","","","","working_memory","","null","<div class=""fixation"">+</div>","null","","","","","","","","","","","","","","","","",""
"html-keyboard-response","62","581682","0.0-5.0-3.0-1.0-3.10","667bd577710d52a05ac09036","not_provided","desktop","0","0","0","","","","","","working_memory","","904","<img class='i' src=images/squares/black.png><div class=""fixation"">+</div>","s","","","test","practice","10","4","s","true","","","","","","","","",""
"html-keyboard-response","63","582193","0.0-5.0-3.0-1.0-4.10","667bd577710d52a05ac09036","not_provided","desktop","0","0","0","","","","","","working_memory","","null","<div class=""fixation"">Correct</div>","null","","","","","","","","","","","","","","","","",""
"html-keyboard-response","64","583195","0.0-5.0-3.0-1.0-0.11","667bd577710d52a05ac09036","not_provided","desktop","0","0","0","","","","","","working_memory","","null","<div class=""fixation"">+</div>","null","","","","","","","","","","","","","","","","",""
"html-keyboard-response","65","583409","0.0-5.0-3.0-1.0-1.11","667bd577710d52a05ac09036","not_provided","desktop","0","0","0","","","","","","working_memory","","null","<img class='a' src=images/squares/brown.png><img class='b' src=images/squares/green.png><img class='d' src=images/squares/blue.png><img class='f' src=images/squares/magenta.png><img class='h' src=images/squares/yellow.png><img class='g' src=images/squares/black.png><img class='j' src=images/squares/cyan.png><img class='k' src=images/squares/red.png><div class=""fixation"">+</div>","null","","","memory","practice","11","8","","","","","","","","","","",""
"html-keyboard-response","66","584314","0.0-5.0-3.0-1.0-2.11","667bd577710d52a05ac09036","not_provided","desktop","0","0","0","","","","","","working_memory","","null","<div class=""fixation"">+</div>","null","","","","","","","","","","","","","","","","",""
"html-keyboard-response","67","585432","0.0-5.0-3.0-1.0-3.11","667bd577710d52a05ac09036","not_provided","desktop","0","0","0","","","","","","working_memory","","1116","<img class='g' src=images/squares/black.png><div class=""fixation"">+</div>","s","","","test","practice","11","8","k","false","","","","","","","","",""
"html-keyboard-response","68","585936","0.0-5.0-3.0-1.0-4.11","667bd577710d52a05ac09036","not_provided","desktop","0","0","0","","","","","","working_memory","","null","<div class=""fixation"">Incorrect</div>","null","","","","","","","","","","","","","","","","",""
"html-keyboard-response","69","586963","0.0-5.0-3.0-1.0-0.12","667bd577710d52a05ac09036","not_provided","desktop","0","0","0","","","","","","working_memory","","null","<div class=""fixation"">+</div>","null","","","","","","","","","","","","","","","","",""
"html-keyboard-response","70","587166","0.0-5.0-3.0-1.0-1.12","667bd577710d52a05ac09036","not_provided","desktop","0","0","0","","","","","","working_memory","","null","<img class='c' src=images/squares/blue.png><img class='a' src=images/squares/orange.png><img class='f' src=images/squares/green.png><img class='d' src=images/squares/red.png><img class='i' src=images/squares/brown.png><img class='h' src=images/squares/magenta.png><img class='l' src=images/squares/black.png><img class='j' src=images/squares/cyan.png><div class=""fixation"">+</div>","null","","","memory","practice","12","8","","","","","","","","","","",""
"html-keyboard-response","71","588072","0.0-5.0-3.0-1.0-2.12","667bd577710d52a05ac09036","not_provided","desktop","0","0","0","","","","","","working_memory","","null","<div class=""fixation"">+</div>","null","","","","","","","","","","","","","","","","",""
"html-keyboard-response","72","588904","0.0-5.0-3.0-1.0-3.12","667bd577710d52a05ac09036","not_provided","desktop","0","0","0","","","","","","working_memory","","831","<img class='j' src=images/squares/yellow.png><div class=""fixation"">+</div>","k","","","test","practice","12","8","s","false","","","","","","","","",""
"html-keyboard-response","73","589406","0.0-5.0-3.0-1.0-4.12","667bd577710d52a05ac09036","not_provided","desktop","0","0","0","","","","","","working_memory","","null","<div class=""fixation"">Incorrect</div>","null","","","","","","","","","","","","","","","","",""
"html-keyboard-response","74","590407","0.0-5.0-3.0-1.0-0.13","667bd577710d52a05ac09036","not_provided","desktop","0","0","0","","","","","","working_memory","","null","<div class=""fixation"">+</div>","null","","","","","","","","","","","","","","","","",""
"html-keyboard-response","75","590619","0.0-5.0-3.0-1.0-1.13","667bd577710d52a05ac09036","not_provided","desktop","0","0","0","","","","","","working_memory","","null","<img class='upper1' src=images/squares/blue.png><div class=""fixation"">+</div>","null","","","memory","practice","13","1","","","","","","","","","","",""
"html-keyboard-response","76","591525","0.0-5.0-3.0-1.0-2.13","667bd577710d52a05ac09036","not_provided","desktop","0","0","0","","","","","","working_memory","","null","<div class=""fixation"">+</div>","null","","","","","","","","","","","","","","","","",""
"html-keyboard-response","77","592344","0.0-5.0-3.0-1.0-3.13","667bd577710d52a05ac09036","not_provided","desktop","0","0","0","","","","","","working_memory","","818","<img class='upper1' src=images/squares/blue.png><div class=""fixation"">+</div>","k","","","test","practice","13","1","k","true","","","","","","","","",""
"html-keyboard-response","78","592849","0.0-5.0-3.0-1.0-4.13","667bd577710d52a05ac09036","not_provided","desktop","0","0","0","","","","","","working_memory","","null","<div class=""fixation"">Correct</div>","null","","","","","","","","","","","","","","","","",""
"html-keyboard-response","79","593850","0.0-5.0-3.0-1.0-0.14","667bd577710d52a05ac09036","not_provided","desktop","0","0","0","","","","","","working_memory","","null","<div class=""fixation"">+</div>","null","","","","","","","","","","","","","","","","",""
"html-keyboard-response","80","594066","0.0-5.0-3.0-1.0-1.14","667bd577710d52a05ac09036","not_provided","desktop","0","0","0","","","","","","working_memory","","null","<img class='c' src=images/squares/black.png><img class='e' src=images/squares/orange.png><img class='h' src=images/squares/cyan.png><img class='l' src=images/squares/magenta.png><div class=""fixation"">+</div>","null","","","memory","practice","14","4","","","","","","","","","","",""
"html-keyboard-response","81","594978","0.0-5.0-3.0-1.0-2.14","667bd577710d52a05ac09036","not_provided","desktop","0","0","0","","","","","","working_memory","","null","<div class=""fixation"">+</div>","null","","","","","","","","","","","","","","","","",""
"html-keyboard-response","82","595806","0.0-5.0-3.0-1.0-3.14","667bd577710d52a05ac09036","not_provided","desktop","0","0","0","","","","","","working_memory","","827","<img class='l' src=images/squares/magenta.png><div class=""fixation"">+</div>","k","","","test","practice","14","4","k","true","","","","","","","","",""
"html-keyboard-response","83","596316","0.0-5.0-3.0-1.0-4.14","667bd577710d52a05ac09036","not_provided","desktop","0","0","0","","","","","","working_memory","","null","<div class=""fixation"">Correct</div>","null","","","","","","","","","","","","","","","","",""
"html-keyboard-response","84","604016","0.0-5.0-4.0","667bd577710d52a05ac09036","not_provided","desktop","0","0","0","","","","","","working_memory","","7697","<div style=""text-align:center;font-family:sans-serif;""><p>Good job! You have finished the practice.</p><p>We will now start the real experiment.</p><p>Please try to be as accurate as possible.</p><p><b><u>Note: random guessing may risk your payment.</u></b></p><br><p><b>Press any key to begin.</b></p></div>"," ","","","","","","","","","","","","","","","","",""
"html-keyboard-response","85","605024","0.0-5.0-5.0-0.0","667bd577710d52a05ac09036","not_provided","desktop","0","0","0","","","","","","working_memory","","null","<div class=""fixation"">+</div>","null","","","","","","","","","","","","","","","","",""
"html-keyboard-response","86","605236","0.0-5.0-5.0-1.0","667bd577710d52a05ac09036","not_provided","desktop","0","0","0","","","","","","working_memory","","null","<img class='c' src=images/squares/magenta.png><img class='f' src=images/squares/green.png><img class='g' src=images/squares/brown.png><img class='l' src=images/squares/black.png><div class=""fixation"">+</div>","null","","","memory","exp","0","","","","","","","","","","","",""
"html-keyboard-response","87","606146","0.0-5.0-5.0-2.0","667bd577710d52a05ac09036","not_provided","desktop","0","0","0","","","","","","working_memory","","null","<div class=""fixation"">+</div>","null","","","","","","","","","","","","","","","","",""
"html-keyboard-response","88","607041","0.0-5.0-5.0-3.0","667bd577710d52a05ac09036","not_provided","desktop","0","0","0","","","","","","working_memory","","893","<img class='f' src=images/squares/red.png><div class=""fixation"">+</div>","s","","","test_squares","exp","0","4","s","true","ks","d","","","","","","",""
"html-keyboard-response","89","607549","0.0-5.0-5.0-4.0","667bd577710d52a05ac09036","not_provided","desktop","0","0","0","","","","","","working_memory","","null","<div class=""fixation"">Correct</div>","null","","","","","","","","","","","","","","","","",""
"html-keyboard-response","90","608551","0.0-5.0-5.0-0.1","667bd577710d52a05ac09036","not_provided","desktop","0","0","0","","","","","","working_memory","","null","<div class=""fixation"">+</div>","null","","","","","","","","","","","","","","","","",""
"html-keyboard-response","91","608759","0.0-5.0-5.0-1.1","667bd577710d52a05ac09036","not_provided","desktop","0","0","0","","","","","","working_memory","","null","<img class='a' src=images/squares/cyan.png><img class='c' src=images/squares/yellow.png><img class='d' src=images/squares/green.png><img class='f' src=images/squares/magenta.png><img class='g' src=images/squares/orange.png><img class='h' src=images/squares/blue.png><img class='l' src=images/squares/brown.png><img class='j' src=images/squares/black.png><div class=""fixation"">+</div>","null","","","memory","exp","1","","","","","","","","","","","",""
"html-keyboard-response","92","609663","0.0-5.0-5.0-2.1","667bd577710d52a05ac09036","not_provided","desktop","0","0","0","","","","","","working_memory","","null","<div class=""fixation"">+</div>","null","","","","","","","","","","","","","","","","",""
"html-keyboard-response","93","610569","0.0-5.0-5.0-3.1","667bd577710d52a05ac09036","not_provided","desktop","0","0","0","","","","","","working_memory","","904","<img class='h' src=images/squares/blue.png><div class=""fixation"">+</div>","k","","","test_squares","exp","1","8","k","true","ks","s","","","","","","",""
"html-keyboard-response","94","611082","0.0-5.0-5.0-4.1","667bd577710d52a05ac09036","not_provided","desktop","0","0","0","","","","","","working_memory","","null","<div class=""fixation"">Correct</div>","null","","","","","","","","","","","","","","","","",""
"html-keyboard-response","95","612084","0.0-5.0-5.0-0.2","667bd577710d52a05ac09036","not_provided","desktop","0","0","0","","","","","","working_memory","","null","<div class=""fixation"">+</div>","null","","","","","","","","","","","","","","","","",""
"html-keyboard-response","96","612297","0.0-5.0-5.0-1.2","667bd577710d52a05ac09036","not_provided","desktop","0","0","0","","","","","","working_memory","","null","<img class='b' src=images/squares/blue.png><img class='a' src=images/squares/magenta.png><img class='e' src=images/squares/cyan.png><img class='f' src=images/squares/green.png><img class='i' src=images/squares/yellow.png><img class='h' src=images/squares/orange.png><img class='l' src=images/squares/red.png><img class='j' src=images/squares/black.png><div class=""fixation"">+</div>","null","","","memory","exp","2","","","","","","","","","","","",""
"html-keyboard-response","97","613203","0.0-5.0-5.0-2.2","667bd577710d52a05ac09036","not_provided","desktop","0","0","0","","","","","","working_memory","","null","<div class=""fixation"">+</div>","null","","","","","","","","","","","","","","","","",""
"html-keyboard-response","98","614158","0.0-5.0-5.0-3.2","667bd577710d52a05ac09036","not_provided","desktop","0","0","0","","","","","","working_memory","","953","<img class='j' src=images/squares/brown.png><div class=""fixation"">+</div>","s","","","test_squares","exp","2","8","s","true","ks","d","","","","","","",""
"html-keyboard-response","99","614673","0.0-5.0-5.0-4.2","667bd577710d52a05ac09036","not_provided","desktop","0","0","0","","","","","","working_memory","","null","<div class=""fixation"">Correct</div>","null","","","","","","","","","","","","","","","","",""
"html-keyboard-response","100","615675","0.0-5.0-5.0-0.3","667bd577710d52a05ac09036","not_provided","desktop","0","0","0","","","","","","working_memory","","null","<div class=""fixation"">+</div>","null","","","","","","","","","","","","","","","","",""
"html-keyboard-response","101","615878","0.0-5.0-5.0-1.3","667bd577710d52a05ac09036","not_provided","desktop","0","0","0","","","","","","working_memory","","null","<img class='a' src=images/squares/yellow.png><img class='b' src=images/squares/cyan.png><img class='d' src=images/squares/black.png><img class='e' src=images/squares/orange.png><img class='i' src=images/squares/magenta.png><img class='g' src=images/squares/blue.png><img class='k' src=images/squares/brown.png><img class='j' src=images/squares/green.png><div class=""fixation"">+</div>","null","","","memory","exp","3","","","","","","","","","","","",""
"html-keyboard-response","102","616794","0.0-5.0-5.0-2.3","667bd577710d52a05ac09036","not_provided","desktop","0","0","0","","","","","","working_memory","","null","<div class=""fixation"">+</div>","null","","","","","","","","","","","","","","","","",""
"html-keyboard-response","103","617631","0.0-5.0-5.0-3.3","667bd577710d52a05ac09036","not_provided","desktop","0","0","0","","","","","","working_memory","","837","<img class='i' src=images/squares/red.png><div class=""fixation"">+</div>","s","","","test_squares","exp","3","8","s","true","ks","d","","","","","","",""
"html-keyboard-response","104","618134","0.0-5.0-5.0-4.3","667bd577710d52a05ac09036","not_provided","desktop","0","0","0","","","","","","working_memory","","null","<div class=""fixation"">Correct</div>","null","","","","","","","","","","","","","","","","",""
"html-keyboard-response","105","619138","0.0-5.0-5.0-0.4","667bd577710d52a05ac09036","not_provided","desktop","0","0","0","","","","","","working_memory","","null","<div class=""fixation"">+</div>","null","","","","","","","","","","","","","","","","",""
"html-keyboard-response","106","619339","0.0-5.0-5.0-1.4","667bd577710d52a05ac09036","not_provided","desktop","0","0","0","","","","","","working_memory","","null","<img class='a' src=images/squares/magenta.png><img class='d' src=images/squares/green.png><img class='h' src=images/squares/brown.png><img class='k' src=images/squares/black.png><div class=""fixation"">+</div>","null","","","memory","exp","4","","","","","","","","","","","",""
"html-keyboard-response","107","620258","0.0-5.0-5.0-2.4","667bd577710d52a05ac09036","not_provided","desktop","0","0","0","","","","","","working_memory","","null","<div class=""fixation"">+</div>","null","","","","","","","","","","","","","","","","",""
"html-keyboard-response","108","621245","0.0-5.0-5.0-3.4","667bd577710d52a05ac09036","not_provided","desktop","0","0","0","","","","","","working_memory","","986","<img class='d' src=images/squares/blue.png><div class=""fixation"">+</div>","s","","","test_squares","exp","4","4","s","true","ks","d","","","","","","",""
"html-keyboard-response","109","621760","0.0-5.0-5.0-4.4","667bd577710d52a05ac09036","not_provided","desktop","0","0","0","","","","","","working_memory","","null","<div class=""fixation"">Correct</div>","null","","","","","","","","","","","","","","","","",""
"html-keyboard-response","110","622762","0.0-5.0-5.0-0.5","667bd577710d52a05ac09036","not_provided","desktop","0","0","0","","","","","","working_memory","","null","<div class=""fixation"">+</div>","null","","","","","","","","","","","","","","","","",""
"html-keyboard-response","111","622971","0.0-5.0-5.0-1.5","667bd577710d52a05ac09036","not_provided","desktop","0","0","0","","","","","","working_memory","","null","<img class='a' src=images/squares/red.png><img class='c' src=images/squares/blue.png><img class='d' src=images/squares/orange.png><img class='e' src=images/squares/black.png><img class='g' src=images/squares/magenta.png><img class='h' src=images/squares/cyan.png><img class='k' src=images/squares/green.png><img class='l' src=images/squares/yellow.png><div class=""fixation"">+</div>","null","","","memory","exp","5","","","","","","","","","","","",""
"html-keyboard-response","112","623875","0.0-5.0-5.0-2.5","667bd577710d52a05ac09036","not_provided","desktop","0","0","0","","","","","","working_memory","","null","<div class=""fixation"">+</div>","null","","","","","","","","","","","","","","","","",""
"html-keyboard-response","113","624684","0.0-5.0-5.0-3.5","667bd577710d52a05ac09036","not_provided","desktop","0","0","0","","","","","","working_memory","","807","<img class='a' src=images/squares/red.png><div class=""fixation"">+</div>","k","","","test_squares","exp","5","8","k","true","ks","s","","","","","","",""
"html-keyboard-response","114","625198","0.0-5.0-5.0-4.5","667bd577710d52a05ac09036","not_provided","desktop","0","0","0","","","","","","working_memory","","null","<div class=""fixation"">Correct</div>","null","","","","","","","","","","","","","","","","",""
"html-keyboard-response","115","626199","0.0-5.0-5.0-0.6","667bd577710d52a05ac09036","not_provided","desktop","0","0","0","","","","","","working_memory","","null","<div class=""fixation"">+</div>","null","","","","","","","","","","","","","","","","",""
"html-keyboard-response","116","626417","0.0-5.0-5.0-1.6","667bd577710d52a05ac09036","not_provided","desktop","0","0","0","","","","","","working_memory","","null","<img class='b' src=images/squares/cyan.png><img class='d' src=images/squares/red.png><img class='g' src=images/squares/brown.png><img class='l' src=images/squares/orange.png><div class=""fixation"">+</div>","null","","","memory","exp","6","","","","","","","","","","","",""
"html-keyboard-response","117","627333","0.0-5.0-5.0-2.6","667bd577710d52a05ac09036","not_provided","desktop","0","0","0","","","","","","working_memory","","null","<div class=""fixation"">+</div>","null","","","","","","","","","","","","","","","","",""
"html-keyboard-response","118","628187","0.0-5.0-5.0-3.6","667bd577710d52a05ac09036","not_provided","desktop","0","0","0","","","","","","working_memory","","852","<img class='l' src=images/squares/green.png><div class=""fixation"">+</div>","s","","","test_squares","exp","6","4","s","true","ks","d","","","","","","",""
"html-keyboard-response","119","628689","0.0-5.0-5.0-4.6","667bd577710d52a05ac09036","not_provided","desktop","0","0","0","","","","","","working_memory","","null","<div class=""fixation"">Correct</div>","null","","","","","","","","","","","","","","","","",""
"html-keyboard-response","120","629691","0.0-5.0-5.0-0.7","667bd577710d52a05ac09036","not_provided","desktop","0","0","0","","","","","","working_memory","","null","<div class=""fixation"">+</div>","null","","","","","","","","","","","","","","","","",""
"html-keyboard-response","121","629897","0.0-5.0-5.0-1.7","667bd577710d52a05ac09036","not_provided","desktop","0","0","0","","","","","","working_memory","","null","<img class='c' src=images/squares/magenta.png><img class='a' src=images/squares/black.png><img class='f' src=images/squares/orange.png><img class='d' src=images/squares/cyan.png><img class='i' src=images/squares/blue.png><img class='h' src=images/squares/brown.png><img class='l' src=images/squares/yellow.png><img class='k' src=images/squares/red.png><div class=""fixation"">+</div>","null","","","memory","exp","7","","","","","","","","","","","",""
"html-keyboard-response","122","630807","0.0-5.0-5.0-2.7","667bd577710d52a05ac09036","not_provided","desktop","0","0","0","","","","","","working_memory","","null","<div class=""fixation"">+</div>","null","","","","","","","","","","","","","","","","",""
"html-keyboard-response","123","631542","0.0-5.0-5.0-3.7","667bd577710d52a05ac09036","not_provided","desktop","0","0","0","","","","","","working_memory","","734","<img class='c' src=images/squares/green.png><div class=""fixation"">+</div>","k","","","test_squares","exp","7","8","s","false","ks","d","","","","","","",""
"html-keyboard-response","124","632056","0.0-5.0-5.0-4.7","667bd577710d52a05ac09036","not_provided","desktop","0","0","0","","","","","","working_memory","","null","<div class=""fixation"">Incorrect</div>","null","","","","","","","","","","","","","","","","",""
"html-keyboard-response","125","633079","0.0-5.0-5.0-0.8","667bd577710d52a05ac09036","not_provided","desktop","0","0","0","","","","","","working_memory","","null","<div class=""fixation"">+</div>","null","","","","","","","","","","","","","","","","",""
"html-keyboard-response","126","633295","0.0-5.0-5.0-1.8","667bd577710d52a05ac09036","not_provided","desktop","0","0","0","","","","","","working_memory","","null","<img class='a' src=images/squares/brown.png><img class='d' src=images/squares/green.png><img class='g' src=images/squares/orange.png><img class='l' src=images/squares/red.png><div class=""fixation"">+</div>","null","","","memory","exp","8","","","","","","","","","","","",""
"html-keyboard-response","127","634212","0.0-5.0-5.0-2.8","667bd577710d52a05ac09036","not_provided","desktop","0","0","0","","","","","","working_memory","","null","<div class=""fixation"">+</div>","null","","","","","","","","","","","","","","","","",""
"html-keyboard-response","128","634812","0.0-5.0-5.0-3.8","667bd577710d52a05ac09036","not_provided","desktop","0","0","0","","","","","","working_memory","","599","<img class='d' src=images/squares/green.png><div class=""fixation"">+</div>","k","","","test_squares","exp","8","4","k","true","ks","s","","","","","","",""
"html-keyboard-response","129","635314","0.0-5.0-5.0-4.8","667bd577710d52a05ac09036","not_provided","desktop","0","0","0","","","","","","working_memory","","null","<div class=""fixation"">Correct</div>","null","","","","","","","","","","","","","","","","",""
"html-keyboard-response","130","636316","0.0-5.0-5.0-0.9","667bd577710d52a05ac09036","not_provided","desktop","0","0","0","","","","","","working_memory","","null","<div class=""fixation"">+</div>","null","","","","","","","","","","","","","","","","",""
"html-keyboard-response","131","636524","0.0-5.0-5.0-1.9","667bd577710d52a05ac09036","not_provided","desktop","0","0","0","","","","","","working_memory","","null","<img class='c' src=images/squares/green.png><img class='d' src=images/squares/blue.png><img class='i' src=images/squares/cyan.png><img class='l' src=images/squares/brown.png><div class=""fixation"">+</div>","null","","","memory","exp","9","","","","","","","","","","","",""
"html-keyboard-response","132","637438","0.0-5.0-5.0-2.9","667bd577710d52a05ac09036","not_provided","desktop","0","0","0","","","","","","working_memory","","null","<div class=""fixation"">+</div>","null","","","","","","","","","","","","","","","","",""
"html-keyboard-response","133","638189","0.0-5.0-5.0-3.9","667bd577710d52a05ac09036","not_provided","desktop","0","0","0","","","","","","working_memory","","750","<img class='i' src=images/squares/cyan.png><div class=""fixation"">+</div>","k","","","test_squares","exp","9","4","k","true","ks","s","","","","","","",""
"html-keyboard-response","134","638699","0.0-5.0-5.0-4.9","667bd577710d52a05ac09036","not_provided","desktop","0","0","0","","","","","","working_memory","","null","<div class=""fixation"">Correct</div>","null","","","","","","","","","","","","","","","","",""
"html-keyboard-response","135","639716","0.0-5.0-5.0-0.10","667bd577710d52a05ac09036","not_provided","desktop","0","0","0","","","","","","working_memory","","null","<div class=""fixation"">+</div>","null","","","","","","","","","","","","","","","","",""
"html-keyboard-response","136","639921","0.0-5.0-5.0-1.10","667bd577710d52a05ac09036","not_provided","desktop","0","0","0","","","","","","working_memory","","null","<img class='a' src=images/squares/blue.png><img class='c' src=images/squares/green.png><img class='e' src=images/squares/orange.png><img class='d' src=images/squares/yellow.png><img class='h' src=images/squares/magenta.png><img class='g' src=images/squares/brown.png><img class='j' src=images/squares/red.png><img class='k' src=images/squares/black.png><div class=""fixation"">+</div>","null","","","memory","exp","10","","","","","","","","","","","",""
"html-keyboard-response","137","640834","0.0-5.0-5.0-2.10","667bd577710d52a05ac09036","not_provided","desktop","0","0","0","","","","","","working_memory","","null","<div class=""fixation"">+</div>","null","","","","","","","","","","","","","","","","",""
"html-keyboard-response","138","641869","0.0-5.0-5.0-3.10","667bd577710d52a05ac09036","not_provided","desktop","0","0","0","","","","","","working_memory","","1033","<img class='e' src=images/squares/orange.png><div class=""fixation"">+</div>","s","","","test_squares","exp","10","8","k","false","ks","s","","","","","","",""
"html-keyboard-response","139","642390","0.0-5.0-5.0-4.10","667bd577710d52a05ac09036","not_provided","desktop","0","0","0","","","","","","working_memory","","null","<div class=""fixation"">Incorrect</div>","null","","","","","","","","","","","","","","","","",""
"html-keyboard-response","140","643393","0.0-5.0-5.0-0.11","667bd577710d52a05ac09036","not_provided","desktop","0","0","0","","","","","","working_memory","","null","<div class=""fixation"">+</div>","null","","","","","","","","","","","","","","","","",""
"html-keyboard-response","141","643600","0.0-5.0-5.0-1.11","667bd577710d52a05ac09036","not_provided","desktop","0","0","0","","","","","","working_memory","","null","<img class='c' src=images/squares/brown.png><img class='e' src=images/squares/green.png><img class='i' src=images/squares/red.png><img class='k' src=images/squares/yellow.png><div class=""fixation"">+</div>","null","","","memory","exp","11","","","","","","","","","","","",""
"html-keyboard-response","142","644510","0.0-5.0-5.0-2.11","667bd577710d52a05ac09036","not_provided","desktop","0","0","0","","","","","","working_memory","","null","<div class=""fixation"">+</div>","null","","","","","","","","","","","","","","","","",""
"html-keyboard-response","143","645441","0.0-5.0-5.0-3.11","667bd577710d52a05ac09036","not_provided","desktop","0","0","0","","","","","","working_memory","","929","<img class='k' src=images/squares/black.png><div class=""fixation"">+</div>","k","","","test_squares","exp","11","4","s","false","ks","d","","","","","","",""
"html-keyboard-response","144","645952","0.0-5.0-5.0-4.11","667bd577710d52a05ac09036","not_provided","desktop","0","0","0","","","","","","working_memory","","null","<div class=""fixation"">Incorrect</div>","null","","","","","","","","","","","","","","","","",""
"html-keyboard-response","145","646978","0.0-5.0-5.0-0.12","667bd577710d52a05ac09036","not_provided","desktop","0","0","0","","","","","","working_memory","","null","<div class=""fixation"">+</div>","null","","","","","","","","","","","","","","","","",""
"html-keyboard-response","146","647198","0.0-5.0-5.0-1.12","667bd577710d52a05ac09036","not_provided","desktop","0","0","0","","","","","","working_memory","","null","<img class='c' src=images/squares/brown.png><img class='d' src=images/squares/red.png><img class='h' src=images/squares/cyan.png><img class='j' src=images/squares/magenta.png><div class=""fixation"">+</div>","null","","","memory","exp","12","","","","","","","","","","","",""
"html-keyboard-response","147","648099","0.0-5.0-5.0-2.12","667bd577710d52a05ac09036","not_provided","desktop","0","0","0","","","","","","working_memory","","null","<div class=""fixation"">+</div>","null","","","","","","","","","","","","","","","","",""
"html-keyboard-response","148","648730","0.0-5.0-5.0-3.12","667bd577710d52a05ac09036","not_provided","desktop","0","0","0","","","","","","working_memory","","628","<img class='c' src=images/squares/brown.png><div class=""fixation"">+</div>","k","","","test_squares","exp","12","4","k","true","ks","s","","","","","","",""
"html-keyboard-response","149","649232","0.0-5.0-5.0-4.12","667bd577710d52a05ac09036","not_provided","desktop","0","0","0","","","","","","working_memory","","null","<div class=""fixation"">Correct</div>","null","","","","","","","","","","","","","","","","",""
"html-keyboard-response","150","650234","0.0-5.0-5.0-0.13","667bd577710d52a05ac09036","not_provided","desktop","0","0","0","","","","","","working_memory","","null","<div class=""fixation"">+</div>","null","","","","","","","","","","","","","","","","",""
"html-keyboard-response","151","650443","0.0-5.0-5.0-1.13","667bd577710d52a05ac09036","not_provided","desktop","0","0","0","","","","","","working_memory","","null","<img class='b' src=images/squares/green.png><img class='a' src=images/squares/cyan.png><img class='d' src=images/squares/blue.png><img class='e' src=images/squares/black.png><img class='h' src=images/squares/magenta.png><img class='i' src=images/squares/yellow.png><img class='j' src=images/squares/brown.png><img class='l' src=images/squares/orange.png><div class=""fixation"">+</div>","null","","","memory","exp","13","","","","","","","","","","","",""
"html-keyboard-response","152","651353","0.0-5.0-5.0-2.13","667bd577710d52a05ac09036","not_provided","desktop","0","0","0","","","","","","working_memory","","null","<div class=""fixation"">+</div>","null","","","","","","","","","","","","","","","","",""
"html-keyboard-response","153","652097","0.0-5.0-5.0-3.13","667bd577710d52a05ac09036","not_provided","desktop","0","0","0","","","","","","working_memory","","743","<img class='a' src=images/squares/red.png><div class=""fixation"">+</div>","k","","","test_squares","exp","13","8","s","false","ks","d","","","","","","",""
"html-keyboard-response","154","652608","0.0-5.0-5.0-4.13","667bd577710d52a05ac09036","not_provided","desktop","0","0","0","","","","","","working_memory","","null","<div class=""fixation"">Incorrect</div>","null","","","","","","","","","","","","","","","","",""
"html-keyboard-response","155","653609","0.0-5.0-5.0-0.14","667bd577710d52a05ac09036","not_provided","desktop","0","0","0","","","","","","working_memory","","null","<div class=""fixation"">+</div>","null","","","","","","","","","","","","","","","","",""
"html-keyboard-response","156","653825","0.0-5.0-5.0-1.14","667bd577710d52a05ac09036","not_provided","desktop","0","0","0","","","","","","working_memory","","null","<img class='b' src=images/squares/yellow.png><img class='d' src=images/squares/orange.png><img class='g' src=images/squares/blue.png><img class='k' src=images/squares/cyan.png><div class=""fixation"">+</div>","null","","","memory","exp","14","","","","","","","","","","","",""
"html-keyboard-response","157","654726","0.0-5.0-5.0-2.14","667bd577710d52a05ac09036","not_provided","desktop","0","0","0","","","","","","working_memory","","null","<div class=""fixation"">+</div>","null","","","","","","","","","","","","","","","","",""
"html-keyboard-response","158","655377","0.0-5.0-5.0-3.14","667bd577710d52a05ac09036","not_provided","desktop","0","0","0","","","","","","working_memory","","650","<img class='g' src=images/squares/blue.png><div class=""fixation"">+</div>","s","","","test_squares","exp","14","4","k","false","ks","s","","","","","","",""
"html-keyboard-response","159","655891","0.0-5.0-5.0-4.14","667bd577710d52a05ac09036","not_provided","desktop","0","0","0","","","","","","working_memory","","null","<div class=""fixation"">Incorrect</div>","null","","","","","","","","","","","","","","","","",""
"html-keyboard-response","160","656892","0.0-5.0-5.0-0.15","667bd577710d52a05ac09036","not_provided","desktop","0","0","0","","","","","","working_memory","","null","<div class=""fixation"">+</div>","null","","","","","","","","","","","","","","","","",""
"html-keyboard-response","161","657115","0.0-5.0-5.0-1.15","667bd577710d52a05ac09036","not_provided","desktop","0","0","0","","","","","","working_memory","","null","<img class='a' src=images/squares/orange.png><img class='d' src=images/squares/blue.png><img class='h' src=images/squares/green.png><img class='j' src=images/squares/black.png><div class=""fixation"">+</div>","null","","","memory","exp","15","","","","","","","","","","","",""
"html-keyboard-response","162","658031","0.0-5.0-5.0-2.15","667bd577710d52a05ac09036","not_provided","desktop","0","0","0","","","","","","working_memory","","null","<div class=""fixation"">+</div>","null","","","","","","","","","","","","","","","","",""
"html-keyboard-response","163","658894","0.0-5.0-5.0-3.15","667bd577710d52a05ac09036","not_provided","desktop","0","0","0","","","","","","working_memory","","862","<img class='a' src=images/squares/yellow.png><div class=""fixation"">+</div>","k","","","test_squares","exp","15","4","s","false","ks","d","","","","","","",""
"html-keyboard-response","164","659395","0.0-5.0-5.0-4.15","667bd577710d52a05ac09036","not_provided","desktop","0","0","0","","","","","","working_memory","","null","<div class=""fixation"">Incorrect</div>","null","","","","","","","","","","","","","","","","",""
"html-keyboard-response","165","660397","0.0-5.0-5.0-0.16","667bd577710d52a05ac09036","not_provided","desktop","0","0","0","","","","","","working_memory","","null","<div class=""fixation"">+</div>","null","","","","","","","","","","","","","","","","",""
"html-keyboard-response","166","660601","0.0-5.0-5.0-1.16","667bd577710d52a05ac09036","not_provided","desktop","0","0","0","","","","","","working_memory","","null","<img class='a' src=images/squares/yellow.png><img class='d' src=images/squares/green.png><img class='h' src=images/squares/cyan.png><img class='l' src=images/squares/black.png><div class=""fixation"">+</div>","null","","","memory","exp","16","","","","","","","","","","","",""
"html-keyboard-response","167","661522","0.0-5.0-5.0-2.16","667bd577710d52a05ac09036","not_provided","desktop","0","0","0","","","","","","working_memory","","null","<div class=""fixation"">+</div>","null","","","","","","","","","","","","","","","","",""
"html-keyboard-response","168","662249","0.0-5.0-5.0-3.16","667bd577710d52a05ac09036","not_provided","desktop","0","0","0","","","","","","working_memory","","726","<img class='l' src=images/squares/red.png><div class=""fixation"">+</div>","s","","","test_squares","exp","16","4","s","true","ks","d","","","","","","",""
"html-keyboard-response","169","662755","0.0-5.0-5.0-4.16","667bd577710d52a05ac09036","not_provided","desktop","0","0","0","","","","","","working_memory","","null","<div class=""fixation"">Correct</div>","null","","","","","","","","","","","","","","","","",""
"html-keyboard-response","170","663772","0.0-5.0-5.0-0.17","667bd577710d52a05ac09036","not_provided","desktop","0","0","0","","","","","","working_memory","","null","<div class=""fixation"">+</div>","null","","","","","","","","","","","","","","","","",""
"html-keyboard-response","171","663976","0.0-5.0-5.0-1.17","667bd577710d52a05ac09036","not_provided","desktop","0","0","0","","","","","","working_memory","","null","<img class='c' src=images/squares/orange.png><img class='f' src=images/squares/green.png><img class='g' src=images/squares/red.png><img class='j' src=images/squares/magenta.png><div class=""fixation"">+</div>","null","","","memory","exp","17","","","","","","","","","","","",""
"html-keyboard-response","172","664890","0.0-5.0-5.0-2.17","667bd577710d52a05ac09036","not_provided","desktop","0","0","0","","","","","","working_memory","","null","<div class=""fixation"">+</div>","null","","","","","","","","","","","","","","","","",""
"html-keyboard-response","173","665676","0.0-5.0-5.0-3.17","667bd577710d52a05ac09036","not_provided","desktop","0","0","0","","","","","","working_memory","","784","<img class='f' src=images/squares/yellow.png><div class=""fixation"">+</div>","s","","","test_squares","exp","17","4","s","true","ks","d","","","","","","",""
"html-keyboard-response","174","666193","0.0-5.0-5.0-4.17","667bd577710d52a05ac09036","not_provided","desktop","0","0","0","","","","","","working_memory","","null","<div class=""fixation"">Correct</div>","null","","","","","","","","","","","","","","","","",""
"html-keyboard-response","175","667195","0.0-5.0-5.0-0.18","667bd577710d52a05ac09036","not_provided","desktop","0","0","0","","","","","","working_memory","","null","<div class=""fixation"">+</div>","null","","","","","","","","","","","","","","","","",""
"html-keyboard-response","176","667410","0.0-5.0-5.0-1.18","667bd577710d52a05ac09036","not_provided","desktop","0","0","0","","","","","","working_memory","","null","<img class='b' src=images/squares/cyan.png><img class='c' src=images/squares/green.png><img class='d' src=images/squares/yellow.png><img class='f' src=images/squares/magenta.png><img class='h' src=images/squares/orange.png><img class='g' src=images/squares/brown.png><img class='l' src=images/squares/red.png><img class='j' src=images/squares/blue.png><div class=""fixation"">+</div>","null","","","memory","exp","18","","","","","","","","","","","",""
"html-keyboard-response","177","668312","0.0-5.0-5.0-2.18","667bd577710d52a05ac09036","not_provided","desktop","0","0","0","","","","","","working_memory","","null","<div class=""fixation"">+</div>","null","","","","","","","","","","","","","","","","",""
"html-keyboard-response","178","669225","0.0-5.0-5.0-3.18","667bd577710d52a05ac09036","not_provided","desktop","0","0","0","","","","","","working_memory","","911","<img class='b' src=images/squares/cyan.png><div class=""fixation"">+</div>","s","","","test_squares","exp","18","8","k","false","ks","s","","","","","","",""
"html-keyboard-response","179","669737","0.0-5.0-5.0-4.18","667bd577710d52a05ac09036","not_provided","desktop","0","0","0","","","","","","working_memory","","null","<div class=""fixation"">Incorrect</div>","null","","","","","","","","","","","","","","","","",""
"html-keyboard-response","180","670755","0.0-5.0-5.0-0.19","667bd577710d52a05ac09036","not_provided","desktop","0","0","0","","","","","","working_memory","","null","<div class=""fixation"">+</div>","null","","","","","","","","","","","","","","","","",""
"html-keyboard-response","181","670965","0.0-5.0-5.0-1.19","667bd577710d52a05ac09036","not_provided","desktop","0","0","0","","","","","","working_memory","","null","<img class='c' src=images/squares/yellow.png><img class='a' src=images/squares/red.png><img class='e' src=images/squares/blue.png><img class='f' src=images/squares/cyan.png><img class='h' src=images/squares/magenta.png><img class='i' src=images/squares/black.png><img class='l' src=images/squares/brown.png><img class='j' src=images/squares/green.png><div class=""fixation"">+</div>","null","","","memory","exp","19","","","","","","","","","","","",""
"html-keyboard-response","182","671872","0.0-5.0-5.0-2.19","667bd577710d52a05ac09036","not_provided","desktop","0","0","0","","","","","","working_memory","","null","<div class=""fixation"">+</div>","null","","","","","","","","","","","","","","","","",""
"html-keyboard-response","183","672514","0.0-5.0-5.0-3.19","667bd577710d52a05ac09036","not_provided","desktop","0","0","0","","","","","","working_memory","","640","<img class='e' src=images/squares/blue.png><div class=""fixation"">+</div>","k","","","test_squares","exp","19","8","k","true","ks","s","","","","","","",""
"html-keyboard-response","184","673025","0.0-5.0-5.0-4.19","667bd577710d52a05ac09036","not_provided","desktop","0","0","0","","","","","","working_memory","","null","<div class=""fixation"">Correct</div>","null","","","","","","","","","","","","","","","","",""
"html-keyboard-response","185","674044","0.0-5.0-5.0-0.20","667bd577710d52a05ac09036","not_provided","desktop","0","0","0","","","","","","working_memory","","null","<div class=""fixation"">+</div>","null","","","","","","","","","","","","","","","","",""
"html-keyboard-response","186","674253","0.0-5.0-5.0-1.20","667bd577710d52a05ac09036","not_provided","desktop","0","0","0","","","","","","working_memory","","null","<img class='b' src=images/squares/magenta.png><img class='a' src=images/squares/black.png><img class='e' src=images/squares/green.png><img class='f' src=images/squares/red.png><img class='i' src=images/squares/cyan.png><img class='h' src=images/squares/blue.png><img class='k' src=images/squares/brown.png><img class='j' src=images/squares/orange.png><div class=""fixation"">+</div>","null","","","memory","exp","20","","","","","","","","","","","",""
"html-keyboard-response","187","675162","0.0-5.0-5.0-2.20","667bd577710d52a05ac09036","not_provided","desktop","0","0","0","","","","","","working_memory","","null","<div class=""fixation"">+</div>","null","","","","","","","","","","","","","","","","",""
"html-keyboard-response","188","676294","0.0-5.0-5.0-3.20","667bd577710d52a05ac09036","not_provided","desktop","0","0","0","","","","","","working_memory","","1131","<img class='e' src=images/squares/yellow.png><div class=""fixation"">+</div>","k","","","test_squares","exp","20","8","s","false","ks","d","","","","","","",""
"html-keyboard-response","189","676795","0.0-5.0-5.0-4.20","667bd577710d52a05ac09036","not_provided","desktop","0","0","0","","","","","","working_memory","","null","<div class=""fixation"">Incorrect</div>","null","","","","","","","","","","","","","","","","",""
"html-keyboard-response","190","677798","0.0-5.0-5.0-0.21","667bd577710d52a05ac09036","not_provided","desktop","0","0","0","","","","","","working_memory","","null","<div class=""fixation"">+</div>","null","","","","","","","","","","","","","","","","",""
"html-keyboard-response","191","678000","0.0-5.0-5.0-1.21","667bd577710d52a05ac09036","not_provided","desktop","0","0","0","","","","","","working_memory","","null","<img class='a' src=images/squares/brown.png><img class='e' src=images/squares/magenta.png><img class='h' src=images/squares/black.png><img class='l' src=images/squares/blue.png><div class=""fixation"">+</div>","null","","","memory","exp","21","","","","","","","","","","","",""
"html-keyboard-response","192","678915","0.0-5.0-5.0-2.21","667bd577710d52a05ac09036","not_provided","desktop","0","0","0","","","","","","working_memory","","null","<div class=""fixation"">+</div>","null","","","","","","","","","","","","","","","","",""
"html-keyboard-response","193","679594","0.0-5.0-5.0-3.21","667bd577710d52a05ac09036","not_provided","desktop","0","0","0","","","","","","working_memory","","678","<img class='a' src=images/squares/green.png><div class=""fixation"">+</div>","s","","","test_squares","exp","21","4","s","true","ks","d","","","","","","",""
"html-keyboard-response","194","680102","0.0-5.0-5.0-4.21","667bd577710d52a05ac09036","not_provided","desktop","0","0","0","","","","","","working_memory","","null","<div class=""fixation"">Correct</div>","null","","","","","","","","","","","","","","","","",""
"html-keyboard-response","195","681104","0.0-5.0-5.0-0.22","667bd577710d52a05ac09036","not_provided","desktop","0","0","0","","","","","","working_memory","","null","<div class=""fixation"">+</div>","null","","","","","","","","","","","","","","","","",""
"html-keyboard-response","196","681313","0.0-5.0-5.0-1.22","667bd577710d52a05ac09036","not_provided","desktop","0","0","0","","","","","","working_memory","","null","<img class='a' src=images/squares/green.png><img class='d' src=images/squares/orange.png><img class='h' src=images/squares/yellow.png><img class='l' src=images/squares/brown.png><div class=""fixation"">+</div>","null","","","memory","exp","22","","","","","","","","","","","",""
"html-keyboard-response","197","682221","0.0-5.0-5.0-2.22","667bd577710d52a05ac09036","not_provided","desktop","0","0","0","","","","","","working_memory","","null","<div class=""fixation"">+</div>","null","","","","","","","","","","","","","","","","",""
"html-keyboard-response","198","683100","0.0-5.0-5.0-3.22","667bd577710d52a05ac09036","not_provided","desktop","0","0","0","","","","","","working_memory","","877","<img class='a' src=images/squares/cyan.png><div class=""fixation"">+</div>","k","","","test_squares","exp","22","4","s","false","ks","d","","","","","","",""
"html-keyboard-response","199","683608","0.0-5.0-5.0-4.22","667bd577710d52a05ac09036","not_provided","desktop","0","0","0","","","","","","working_memory","","null","<div class=""fixation"">Incorrect</div>","null","","","","","","","","","","","","","","","","",""
"html-keyboard-response","200","684625","0.0-5.0-5.0-0.23","667bd577710d52a05ac09036","not_provided","desktop","0","0","0","","","","","","working_memory","","null","<div class=""fixation"">+</div>","null","","","","","","","","","","","","","","","","",""
"html-keyboard-response","201","684827","0.0-5.0-5.0-1.23","667bd577710d52a05ac09036","not_provided","desktop","0","0","0","","","","","","working_memory","","null","<img class='b' src=images/squares/red.png><img class='e' src=images/squares/orange.png><img class='i' src=images/squares/brown.png><img class='k' src=images/squares/yellow.png><div class=""fixation"">+</div>","null","","","memory","exp","23","","","","","","","","","","","",""
"html-keyboard-response","202","685742","0.0-5.0-5.0-2.23","667bd577710d52a05ac09036","not_provided","desktop","0","0","0","","","","","","working_memory","","null","<div class=""fixation"">+</div>","null","","","","","","","","","","","","","","","","",""
"html-keyboard-response","203","687348","0.0-5.0-5.0-3.23","667bd577710d52a05ac09036","not_provided","desktop","0","0","0","","","","","","working_memory","","1605","<img class='b' src=images/squares/black.png><div class=""fixation"">+</div>","s","","","test_squares","exp","23","4","s","true","ks","d","","","","","","",""
"html-keyboard-response","204","687869","0.0-5.0-5.0-4.23","667bd577710d52a05ac09036","not_provided","desktop","0","0","0","","","","","","working_memory","","null","<div class=""fixation"">Correct</div>","null","","","","","","","","","","","","","","","","",""
"html-keyboard-response","205","688870","0.0-5.0-5.0-0.24","667bd577710d52a05ac09036","not_provided","desktop","0","0","0","","","","","","working_memory","","null","<div class=""fixation"">+</div>","null","","","","","","","","","","","","","","","","",""
"html-keyboard-response","206","689074","0.0-5.0-5.0-1.24","667bd577710d52a05ac09036","not_provided","desktop","0","0","0","","","","","","working_memory","","null","<img class='a' src=images/squares/orange.png><img class='f' src=images/squares/black.png><img class='h' src=images/squares/brown.png><img class='k' src=images/squares/yellow.png><div class=""fixation"">+</div>","null","","","memory","exp","24","","","","","","","","","","","",""
"html-keyboard-response","207","689980","0.0-5.0-5.0-2.24","667bd577710d52a05ac09036","not_provided","desktop","0","0","0","","","","","","working_memory","","null","<div class=""fixation"">+</div>","null","","","","","","","","","","","","","","","","",""
"html-keyboard-response","208","690670","0.0-5.0-5.0-3.24","667bd577710d52a05ac09036","not_provided","desktop","0","0","0","","","","","","working_memory","","688","<img class='k' src=images/squares/yellow.png><div class=""fixation"">+</div>","s","","","test_squares","exp","24","4","k","false","ks","s","","","","","","",""
"html-keyboard-response","209","691176","0.0-5.0-5.0-4.24","667bd577710d52a05ac09036","not_provided","desktop","0","0","0","","","","","","working_memory","","null","<div class=""fixation"">Incorrect</div>","null","","","","","","","","","","","","","","","","",""
"html-keyboard-response","210","692178","0.0-5.0-5.0-0.25","667bd577710d52a05ac09036","not_provided","desktop","0","0","0","","","","","","working_memory","","null","<div class=""fixation"">+</div>","null","","","","","","","","","","","","","","","","",""
"html-keyboard-response","211","692385","0.0-5.0-5.0-1.25","667bd577710d52a05ac09036","not_provided","desktop","0","0","0","","","","","","working_memory","","null","<img class='a' src=images/squares/cyan.png><img class='f' src=images/squares/green.png><img class='h' src=images/squares/black.png><img class='l' src=images/squares/orange.png><div class=""fixation"">+</div>","null","","","memory","exp","25","","","","","","","","","","","",""
"html-keyboard-response","212","693295","0.0-5.0-5.0-2.25","667bd577710d52a05ac09036","not_provided","desktop","0","0","0","","","","","","working_memory","","null","<div class=""fixation"">+</div>","null","","","","","","","","","","","","","","","","",""
"html-keyboard-response","213","694249","0.0-5.0-5.0-3.25","667bd577710d52a05ac09036","not_provided","desktop","0","0","0","","","","","","working_memory","","953","<img class='f' src=images/squares/green.png><div class=""fixation"">+</div>","s","","","test_squares","exp","25","4","k","false","ks","s","","","","","","",""
"html-keyboard-response","214","694760","0.0-5.0-5.0-4.25","667bd577710d52a05ac09036","not_provided","desktop","0","0","0","","","","","","working_memory","","null","<div class=""fixation"">Incorrect</div>","null","","","","","","","","","","","","","","","","",""
"html-keyboard-response","215","695761","0.0-5.0-5.0-0.26","667bd577710d52a05ac09036","not_provided","desktop","0","0","0","","","","","","working_memory","","null","<div class=""fixation"">+</div>","null","","","","","","","","","","","","","","","","",""
"html-keyboard-response","216","695967","0.0-5.0-5.0-1.26","667bd577710d52a05ac09036","not_provided","desktop","0","0","0","","","","","","working_memory","","null","<img class='a' src=images/squares/orange.png><img class='e' src=images/squares/black.png><img class='h' src=images/squares/green.png><img class='j' src=images/squares/brown.png><div class=""fixation"">+</div>","null","","","memory","exp","26","","","","","","","","","","","",""
"html-keyboard-response","217","696885","0.0-5.0-5.0-2.26","667bd577710d52a05ac09036","not_provided","desktop","0","0","0","","","","","","working_memory","","null","<div class=""fixation"">+</div>","null","","","","","","","","","","","","","","","","",""
"html-keyboard-response","218","697534","0.0-5.0-5.0-3.26","667bd577710d52a05ac09036","not_provided","desktop","0","0","0","","","","","","working_memory","","648","<img class='e' src=images/squares/red.png><div class=""fixation"">+</div>","s","","","test_squares","exp","26","4","s","true","ks","d","","","","","","",""
"html-keyboard-response","219","698049","0.0-5.0-5.0-4.26","667bd577710d52a05ac09036","not_provided","desktop","0","0","0","","","","","","working_memory","","null","<div class=""fixation"">Correct</div>","null","","","","","","","","","","","","","","","","",""
"html-keyboard-response","220","699064","0.0-5.0-5.0-0.27","667bd577710d52a05ac09036","not_provided","desktop","0","0","0","","","","","","working_memory","","null","<div class=""fixation"">+</div>","null","","","","","","","","","","","","","","","","",""
"html-keyboard-response","221","699290","0.0-5.0-5.0-1.27","667bd577710d52a05ac09036","not_provided","desktop","0","0","0","","","","","","working_memory","","null","<img class='c' src=images/squares/brown.png><img class='e' src=images/squares/green.png><img class='h' src=images/squares/orange.png><img class='j' src=images/squares/magenta.png><div class=""fixation"">+</div>","null","","","memory","exp","27","","","","","","","","","","","",""
"html-keyboard-response","222","700206","0.0-5.0-5.0-2.27","667bd577710d52a05ac09036","not_provided","desktop","0","0","0","","","","","","working_memory","","null","<div class=""fixation"">+</div>","null","","","","","","","","","","","","","","","","",""
"html-keyboard-response","223","700970","0.0-5.0-5.0-3.27","667bd577710d52a05ac09036","not_provided","desktop","0","0","0","","","","","","working_memory","","763","<img class='j' src=images/squares/yellow.png><div class=""fixation"">+</div>","s","","","test_squares","exp","27","4","s","true","ks","d","","","","","","",""
"html-keyboard-response","224","701471","0.0-5.0-5.0-4.27","667bd577710d52a05ac09036","not_provided","desktop","0","0","0","","","","","","working_memory","","null","<div class=""fixation"">Correct</div>","null","","","","","","","","","","","","","","","","",""
"html-keyboard-response","225","702472","0.0-5.0-5.0-0.28","667bd577710d52a05ac09036","not_provided","desktop","0","0","0","","","","","","working_memory","","null","<div class=""fixation"">+</div>","null","","","","","","","","","","","","","","","","",""
"html-keyboard-response","226","702675","0.0-5.0-5.0-1.28","667bd577710d52a05ac09036","not_provided","desktop","0","0","0","","","","","","working_memory","","null","<img class='c' src=images/squares/magenta.png><img class='d' src=images/squares/blue.png><img class='h' src=images/squares/cyan.png><img class='k' src=images/squares/red.png><div class=""fixation"">+</div>","null","","","memory","exp","28","","","","","","","","","","","",""
"html-keyboard-response","227","703596","0.0-5.0-5.0-2.28","667bd577710d52a05ac09036","not_provided","desktop","0","0","0","","","","","","working_memory","","null","<div class=""fixation"">+</div>","null","","","","","","","","","","","","","","","","",""
"html-keyboard-response","228","704576","0.0-5.0-5.0-3.28","667bd577710d52a05ac09036","not_provided","desktop","0","0","0","","","","","","working_memory","","979","<img class='k' src=images/squares/orange.png><div class=""fixation"">+</div>","s","","","test_squares","exp","28","4","s","true","ks","d","","","","","","",""
"html-keyboard-response","229","705098","0.0-5.0-5.0-4.28","667bd577710d52a05ac09036","not_provided","desktop","0","0","0","","","","","","working_memory","","null","<div class=""fixation"">Correct</div>","null","","","","","","","","","","","","","","","","",""
"html-keyboard-response","230","706101","0.0-5.0-5.0-0.29","667bd577710d52a05ac09036","not_provided","desktop","0","0","0","","","","","","working_memory","","null","<div class=""fixation"">+</div>","null","","","","","","","","","","","","","","","","",""
"html-keyboard-response","231","706305","0.0-5.0-5.0-1.29","667bd577710d52a05ac09036","not_provided","desktop","0","0","0","","","","","","working_memory","","null","<img class='b' src=images/squares/orange.png><img class='e' src=images/squares/brown.png><img class='g' src=images/squares/black.png><img class='l' src=images/squares/magenta.png><div class=""fixation"">+</div>","null","","","memory","exp","29","","","","","","","","","","","",""
"html-keyboard-response","232","707218","0.0-5.0-5.0-2.29","667bd577710d52a05ac09036","not_provided","desktop","0","0","0","","","","","","working_memory","","null","<div class=""fixation"">+</div>","null","","","","","","","","","","","","","","","","",""
"html-keyboard-response","233","708003","0.0-5.0-5.0-3.29","667bd577710d52a05ac09036","not_provided","desktop","0","0","0","","","","","","working_memory","","783","<img class='b' src=images/squares/orange.png><div class=""fixation"">+</div>","k","","","test_squares","exp","29","4","k","true","ks","s","","","","","","",""
"html-keyboard-response","234","708505","0.0-5.0-5.0-4.29","667bd577710d52a05ac09036","not_provided","desktop","0","0","0","","","","","","working_memory","","null","<div class=""fixation"">Correct</div>","null","","","","","","","","","","","","","","","","",""
"html-keyboard-response","235","709507","0.0-5.0-5.0-0.30","667bd577710d52a05ac09036","not_provided","desktop","0","0","0","","","","","","working_memory","","null","<div class=""fixation"">+</div>","null","","","","","","","","","","","","","","","","",""
"html-keyboard-response","236","709718","0.0-5.0-5.0-1.30","667bd577710d52a05ac09036","not_provided","desktop","0","0","0","","","","","","working_memory","","null","<img class='a' src=images/squares/orange.png><img class='d' src=images/squares/yellow.png><img class='h' src=images/squares/green.png><img class='j' src=images/squares/brown.png><div class=""fixation"">+</div>","null","","","memory","exp","30","","","","","","","","","","","",""
"html-keyboard-response","237","710624","0.0-5.0-5.0-2.30","667bd577710d52a05ac09036","not_provided","desktop","0","0","0","","","","","","working_memory","","null","<div class=""fixation"">+</div>","null","","","","","","","","","","","","","","","","",""
"html-keyboard-response","238","711648","0.0-5.0-5.0-3.30","667bd577710d52a05ac09036","not_provided","desktop","0","0","0","","","","","","working_memory","","1022","<img class='h' src=images/squares/green.png><div class=""fixation"">+</div>","s","","","test_squares","exp","30","4","k","false","ks","s","","","","","","",""
"html-keyboard-response","239","712158","0.0-5.0-5.0-4.30","667bd577710d52a05ac09036","not_provided","desktop","0","0","0","","","","","","working_memory","","null","<div class=""fixation"">Incorrect</div>","null","","","","","","","","","","","","","","","","",""
"html-keyboard-response","240","713160","0.0-5.0-5.0-0.31","667bd577710d52a05ac09036","not_provided","desktop","0","0","0","","","","","","working_memory","","null","<div class=""fixation"">+</div>","null","","","","","","","","","","","","","","","","",""
"html-keyboard-response","241","713365","0.0-5.0-5.0-1.31","667bd577710d52a05ac09036","not_provided","desktop","0","0","0","","","","","","working_memory","","null","<img class='c' src=images/squares/magenta.png><img class='e' src=images/squares/red.png><img class='h' src=images/squares/cyan.png><img class='l' src=images/squares/black.png><div class=""fixation"">+</div>","null","","","memory","exp","31","","","","","","","","","","","",""
"html-keyboard-response","242","714278","0.0-5.0-5.0-2.31","667bd577710d52a05ac09036","not_provided","desktop","0","0","0","","","","","","working_memory","","null","<div class=""fixation"">+</div>","null","","","","","","","","","","","","","","","","",""
"html-keyboard-response","243","715189","0.0-5.0-5.0-3.31","667bd577710d52a05ac09036","not_provided","desktop","0","0","0","","","","","","working_memory","","910","<img class='c' src=images/squares/magenta.png><div class=""fixation"">+</div>","s","","","test_squares","exp","31","4","k","false","ks","s","","","","","","",""
"html-keyboard-response","244","715696","0.0-5.0-5.0-4.31","667bd577710d52a05ac09036","not_provided","desktop","0","0","0","","","","","","working_memory","","null","<div class=""fixation"">Incorrect</div>","null","","","","","","","","","","","","","","","","",""
"html-keyboard-response","245","716698","0.0-5.0-5.0-0.32","667bd577710d52a05ac09036","not_provided","desktop","0","0","0","","","","","","working_memory","","null","<div class=""fixation"">+</div>","null","","","","","","","","","","","","","","","","",""
"html-keyboard-response","246","716905","0.0-5.0-5.0-1.32","667bd577710d52a05ac09036","not_provided","desktop","0","0","0","","","","","","working_memory","","null","<img class='c' src=images/squares/red.png><img class='b' src=images/squares/green.png><img class='d' src=images/squares/yellow.png><img class='f' src=images/squares/magenta.png><img class='g' src=images/squares/brown.png><img class='i' src=images/squares/orange.png><img class='j' src=images/squares/cyan.png><img class='k' src=images/squares/black.png><div class=""fixation"">+</div>","null","","","memory","exp","32","","","","","","","","","","","",""
"html-keyboard-response","247","717822","0.0-5.0-5.0-2.32","667bd577710d52a05ac09036","not_provided","desktop","0","0","0","","","","","","working_memory","","null","<div class=""fixation"">+</div>","null","","","","","","","","","","","","","","","","",""
"html-keyboard-response","248","718512","0.0-5.0-5.0-3.32","667bd577710d52a05ac09036","not_provided","desktop","0","0","0","","","","","","working_memory","","688","<img class='c' src=images/squares/red.png><div class=""fixation"">+</div>","k","","","test_squares","exp","32","8","k","true","ks","s","","","","","","",""
"html-keyboard-response","249","719025","0.0-5.0-5.0-4.32","667bd577710d52a05ac09036","not_provided","desktop","0","0","0","","","","","","working_memory","","null","<div class=""fixation"">Correct</div>","null","","","","","","","","","","","","","","","","",""
"html-keyboard-response","250","720026","0.0-5.0-5.0-0.33","667bd577710d52a05ac09036","not_provided","desktop","0","0","0","","","","","","working_memory","","null","<div class=""fixation"">+</div>","null","","","","","","","","","","","","","","","","",""
"html-keyboard-response","251","720243","0.0-5.0-5.0-1.33","667bd577710d52a05ac09036","not_provided","desktop","0","0","0","","","","","","working_memory","","null","<img class='c' src=images/squares/yellow.png><img class='a' src=images/squares/red.png><img class='d' src=images/squares/cyan.png><img class='f' src=images/squares/brown.png><img class='i' src=images/squares/black.png><img class='g' src=images/squares/orange.png><img class='k' src=images/squares/green.png><img class='j' src=images/squares/blue.png><div class=""fixation"">+</div>","null","","","memory","exp","33","","","","","","","","","","","",""
"html-keyboard-response","252","721144","0.0-5.0-5.0-2.33","667bd577710d52a05ac09036","not_provided","desktop","0","0","0","","","","","","working_memory","","null","<div class=""fixation"">+</div>","null","","","","","","","","","","","","","","","","",""
"html-keyboard-response","253","721955","0.0-5.0-5.0-3.33","667bd577710d52a05ac09036","not_provided","desktop","0","0","0","","","","","","working_memory","","808","<img class='g' src=images/squares/orange.png><div class=""fixation"">+</div>","k","","","test_squares","exp","33","8","k","true","ks","s","","","","","","",""
"html-keyboard-response","254","722462","0.0-5.0-5.0-4.33","667bd577710d52a05ac09036","not_provided","desktop","0","0","0","","","","","","working_memory","","null","<div class=""fixation"">Correct</div>","null","","","","","","","","","","","","","","","","",""
"html-keyboard-response","255","723463","0.0-5.0-5.0-0.34","667bd577710d52a05ac09036","not_provided","desktop","0","0","0","","","","","","working_memory","","null","<div class=""fixation"">+</div>","null","","","","","","","","","","","","","","","","",""
"html-keyboard-response","256","723671","0.0-5.0-5.0-1.34","667bd577710d52a05ac09036","not_provided","desktop","0","0","0","","","","","","working_memory","","null","<img class='a' src=images/squares/red.png><img class='f' src=images/squares/orange.png><img class='g' src=images/squares/blue.png><img class='k' src=images/squares/cyan.png><div class=""fixation"">+</div>","null","","","memory","exp","34","","","","","","","","","","","",""
"html-keyboard-response","257","724581","0.0-5.0-5.0-2.34","667bd577710d52a05ac09036","not_provided","desktop","0","0","0","","","","","","working_memory","","null","<div class=""fixation"">+</div>","null","","","","","","","","","","","","","","","","",""
"html-keyboard-response","258","725077","0.0-5.0-5.0-3.34","667bd577710d52a05ac09036","not_provided","desktop","0","0","0","","","","","","working_memory","","495","<img class='g' src=images/squares/blue.png><div class=""fixation"">+</div>","k","","","test_squares","exp","34","4","k","true","ks","s","","","","","","",""
"html-keyboard-response","259","725582","0.0-5.0-5.0-4.34","667bd577710d52a05ac09036","not_provided","desktop","0","0","0","","","","","","working_memory","","null","<div class=""fixation"">Correct</div>","null","","","","","","","","","","","","","","","","",""
"html-keyboard-response","260","726584","0.0-5.0-5.0-0.35","667bd577710d52a05ac09036","not_provided","desktop","0","0","0","","","","","","working_memory","","null","<div class=""fixation"">+</div>","null","","","","","","","","","","","","","","","","",""
"html-keyboard-response","261","726803","0.0-5.0-5.0-1.35","667bd577710d52a05ac09036","not_provided","desktop","0","0","0","","","","","","working_memory","","null","<img class='c' src=images/squares/cyan.png><img class='a' src=images/squares/magenta.png><img class='d' src=images/squares/black.png><img class='e' src=images/squares/yellow.png><img class='h' src=images/squares/orange.png><img class='g' src=images/squares/blue.png><img class='l' src=images/squares/green.png><img class='j' src=images/squares/brown.png><div class=""fixation"">+</div>","null","","","memory","exp","35","","","","","","","","","","","",""
"html-keyboard-response","262","727717","0.0-5.0-5.0-2.35","667bd577710d52a05ac09036","not_provided","desktop","0","0","0","","","","","","working_memory","","null","<div class=""fixation"">+</div>","null","","","","","","","","","","","","","","","","",""
"html-keyboard-response","263","728445","0.0-5.0-5.0-3.35","667bd577710d52a05ac09036","not_provided","desktop","0","0","0","","","","","","working_memory","","726","<img class='a' src=images/squares/magenta.png><div class=""fixation"">+</div>","k","","","test_squares","exp","35","8","k","true","ks","s","","","","","","",""
"html-keyboard-response","264","728962","0.0-5.0-5.0-4.35","667bd577710d52a05ac09036","not_provided","desktop","0","0","0","","","","","","working_memory","","null","<div class=""fixation"">Correct</div>","null","","","","","","","","","","","","","","","","",""
"html-keyboard-response","265","729978","0.0-5.0-5.0-0.36","667bd577710d52a05ac09036","not_provided","desktop","0","0","0","","","","","","working_memory","","null","<div class=""fixation"">+</div>","null","","","","","","","","","","","","","","","","",""
"html-keyboard-response","266","730182","0.0-5.0-5.0-1.36","667bd577710d52a05ac09036","not_provided","desktop","0","0","0","","","","","","working_memory","","null","<img class='b' src=images/squares/black.png><img class='a' src=images/squares/yellow.png><img class='e' src=images/squares/magenta.png><img class='f' src=images/squares/brown.png><img class='h' src=images/squares/red.png><img class='i' src=images/squares/cyan.png><img class='j' src=images/squares/green.png><img class='k' src=images/squares/blue.png><div class=""fixation"">+</div>","null","","","memory","exp","36","","","","","","","","","","","",""
"html-keyboard-response","267","731092","0.0-5.0-5.0-2.36","667bd577710d52a05ac09036","not_provided","desktop","0","0","0","","","","","","working_memory","","null","<div class=""fixation"">+</div>","null","","","","","","","","","","","","","","","","",""
"html-keyboard-response","268","731558","0.0-5.0-5.0-3.36","667bd577710d52a05ac09036","not_provided","desktop","0","0","0","","","","","","working_memory","","464","<img class='j' src=images/squares/orange.png><div class=""fixation"">+</div>","k","","","test_squares","exp","36","8","s","false","ks","d","","","","","","",""
"html-keyboard-response","269","732062","0.0-5.0-5.0-4.36","667bd577710d52a05ac09036","not_provided","desktop","0","0","0","","","","","","working_memory","","null","<div class=""fixation"">Incorrect</div>","null","","","","","","","","","","","","","","","","",""
"html-keyboard-response","270","733078","0.0-5.0-5.0-0.37","667bd577710d52a05ac09036","not_provided","desktop","0","0","0","","","","","","working_memory","","null","<div class=""fixation"">+</div>","null","","","","","","","","","","","","","","","","",""
"html-keyboard-response","271","733295","0.0-5.0-5.0-1.37","667bd577710d52a05ac09036","not_provided","desktop","0","0","0","","","","","","working_memory","","null","<img class='a' src=images/squares/cyan.png><img class='b' src=images/squares/magenta.png><img class='d' src=images/squares/orange.png><img class='e' src=images/squares/yellow.png><img class='h' src=images/squares/black.png><img class='i' src=images/squares/red.png><img class='k' src=images/squares/blue.png><img class='j' src=images/squares/brown.png><div class=""fixation"">+</div>","null","","","memory","exp","37","","","","","","","","","","","",""
"html-keyboard-response","272","734211","0.0-5.0-5.0-2.37","667bd577710d52a05ac09036","not_provided","desktop","0","0","0","","","","","","working_memory","","null","<div class=""fixation"">+</div>","null","","","","","","","","","","","","","","","","",""
"html-keyboard-response","273","734711","0.0-5.0-5.0-3.37","667bd577710d52a05ac09036","not_provided","desktop","0","0","0","","","","","","working_memory","","498","<img class='i' src=images/squares/red.png><div class=""fixation"">+</div>","k","","","test_squares","exp","37","8","k","true","ks","s","","","","","","",""
"html-keyboard-response","274","735213","0.0-5.0-5.0-4.37","667bd577710d52a05ac09036","not_provided","desktop","0","0","0","","","","","","working_memory","","null","<div class=""fixation"">Correct</div>","null","","","","","","","","","","","","","","","","",""
"html-keyboard-response","275","736216","0.0-5.0-5.0-0.38","667bd577710d52a05ac09036","not_provided","desktop","0","0","0","","","","","","working_memory","","null","<div class=""fixation"">+</div>","null","","","","","","","","","","","","","","","","",""
"html-keyboard-response","276","736425","0.0-5.0-5.0-1.38","667bd577710d52a05ac09036","not_provided","desktop","0","0","0","","","","","","working_memory","","null","<img class='c' src=images/squares/red.png><img class='a' src=images/squares/blue.png><img class='f' src=images/squares/brown.png><img class='e' src=images/squares/green.png><img class='g' src=images/squares/magenta.png><img class='i' src=images/squares/orange.png><img class='j' src=images/squares/black.png><img class='l' src=images/squares/yellow.png><div class=""fixation"">+</div>","null","","","memory","exp","38","","","","","","","","","","","",""
"html-keyboard-response","277","737333","0.0-5.0-5.0-2.38","667bd577710d52a05ac09036","not_provided","desktop","0","0","0","","","","","","working_memory","","null","<div class=""fixation"">+</div>","null","","","","","","","","","","","","","","","","",""
"html-keyboard-response","278","738120","0.0-5.0-5.0-3.38","667bd577710d52a05ac09036","not_provided","desktop","0","0","0","","","","","","working_memory","","785","<img class='e' src=images/squares/green.png><div class=""fixation"">+</div>","k","","","test_squares","exp","38","8","k","true","ks","s","","","","","","",""
"html-keyboard-response","279","738636","0.0-5.0-5.0-4.38","667bd577710d52a05ac09036","not_provided","desktop","0","0","0","","","","","","working_memory","","null","<div class=""fixation"">Correct</div>","null","","","","","","","","","","","","","","","","",""
"html-keyboard-response","280","739639","0.0-5.0-5.0-0.39","667bd577710d52a05ac09036","not_provided","desktop","0","0","0","","","","","","working_memory","","null","<div class=""fixation"">+</div>","null","","","","","","","","","","","","","","","","",""
"html-keyboard-response","281","739855","0.0-5.0-5.0-1.39","667bd577710d52a05ac09036","not_provided","desktop","0","0","0","","","","","","working_memory","","null","<img class='b' src=images/squares/black.png><img class='e' src=images/squares/red.png><img class='h' src=images/squares/magenta.png><img class='j' src=images/squares/brown.png><div class=""fixation"">+</div>","null","","","memory","exp","39","","","","","","","","","","","",""
"html-keyboard-response","282","740762","0.0-5.0-5.0-2.39","667bd577710d52a05ac09036","not_provided","desktop","0","0","0","","","","","","working_memory","","null","<div class=""fixation"">+</div>","null","","","","","","","","","","","","","","","","",""
"html-keyboard-response","283","741459","0.0-5.0-5.0-3.39","667bd577710d52a05ac09036","not_provided","desktop","0","0","0","","","","","","working_memory","","695","<img class='j' src=images/squares/brown.png><div class=""fixation"">+</div>","k","","","test_squares","exp","39","4","k","true","ks","s","","","","","","",""
"html-keyboard-response","284","741975","0.0-5.0-5.0-4.39","667bd577710d52a05ac09036","not_provided","desktop","0","0","0","","","","","","working_memory","","null","<div class=""fixation"">Correct</div>","null","","","","","","","","","","","","","","","","",""
"html-keyboard-response","285","742991","0.0-5.0-5.0-0.40","667bd577710d52a05ac09036","not_provided","desktop","0","0","0","","","","","","working_memory","","null","<div class=""fixation"">+</div>","null","","","","","","","","","","","","","","","","",""
"html-keyboard-response","286","743201","0.0-5.0-5.0-1.40","667bd577710d52a05ac09036","not_provided","desktop","0","0","0","","","","","","working_memory","","null","<img class='c' src=images/squares/magenta.png><img class='b' src=images/squares/cyan.png><img class='e' src=images/squares/yellow.png><img class='d' src=images/squares/black.png><img class='g' src=images/squares/brown.png><img class='i' src=images/squares/green.png><img class='l' src=images/squares/blue.png><img class='j' src=images/squares/red.png><div class=""fixation"">+</div>","null","","","memory","exp","40","","","","","","","","","","","",""
"html-keyboard-response","287","744114","0.0-5.0-5.0-2.40","667bd577710d52a05ac09036","not_provided","desktop","0","0","0","","","","","","working_memory","","null","<div class=""fixation"">+</div>","null","","","","","","","","","","","","","","","","",""
"html-keyboard-response","288","744675","0.0-5.0-5.0-3.40","667bd577710d52a05ac09036","not_provided","desktop","0","0","0","","","","","","working_memory","","560","<img class='g' src=images/squares/brown.png><div class=""fixation"">+</div>","k","","","test_squares","exp","40","8","k","true","ks","s","","","","","","",""
"html-keyboard-response","289","745185","0.0-5.0-5.0-4.40","667bd577710d52a05ac09036","not_provided","desktop","0","0","0","","","","","","working_memory","","null","<div class=""fixation"">Correct</div>","null","","","","","","","","","","","","","","","","",""
"html-keyboard-response","290","746187","0.0-5.0-5.0-0.41","667bd577710d52a05ac09036","not_provided","desktop","0","0","0","","","","","","working_memory","","null","<div class=""fixation"">+</div>","null","","","","","","","","","","","","","","","","",""
"html-keyboard-response","291","746399","0.0-5.0-5.0-1.41","667bd577710d52a05ac09036","not_provided","desktop","0","0","0","","","","","","working_memory","","null","<img class='b' src=images/squares/yellow.png><img class='f' src=images/squares/cyan.png><img class='i' src=images/squares/magenta.png><img class='l' src=images/squares/green.png><div class=""fixation"">+</div>","null","","","memory","exp","41","","","","","","","","","","","",""
"html-keyboard-response","292","747304","0.0-5.0-5.0-2.41","667bd577710d52a05ac09036","not_provided","desktop","0","0","0","","","","","","working_memory","","null","<div class=""fixation"">+</div>","null","","","","","","","","","","","","","","","","",""
"html-keyboard-response","293","747820","0.0-5.0-5.0-3.41","667bd577710d52a05ac09036","not_provided","desktop","0","0","0","","","","","","working_memory","","514","<img class='l' src=images/squares/green.png><div class=""fixation"">+</div>","k","","","test_squares","exp","41","4","k","true","ks","s","","","","","","",""
"html-keyboard-response","294","748322","0.0-5.0-5.0-4.41","667bd577710d52a05ac09036","not_provided","desktop","0","0","0","","","","","","working_memory","","null","<div class=""fixation"">Correct</div>","null","","","","","","","","","","","","","","","","",""
"html-keyboard-response","295","749323","0.0-5.0-5.0-0.42","667bd577710d52a05ac09036","not_provided","desktop","0","0","0","","","","","","working_memory","","null","<div class=""fixation"">+</div>","null","","","","","","","","","","","","","","","","",""
"html-keyboard-response","296","749529","0.0-5.0-5.0-1.42","667bd577710d52a05ac09036","not_provided","desktop","0","0","0","","","","","","working_memory","","null","<img class='b' src=images/squares/black.png><img class='f' src=images/squares/yellow.png><img class='g' src=images/squares/green.png><img class='l' src=images/squares/cyan.png><div class=""fixation"">+</div>","null","","","memory","exp","42","","","","","","","","","","","",""
"html-keyboard-response","297","750441","0.0-5.0-5.0-2.42","667bd577710d52a05ac09036","not_provided","desktop","0","0","0","","","","","","working_memory","","null","<div class=""fixation"">+</div>","null","","","","","","","","","","","","","","","","",""
"html-keyboard-response","298","751033","0.0-5.0-5.0-3.42","667bd577710d52a05ac09036","not_provided","desktop","0","0","0","","","","","","working_memory","","591","<img class='b' src=images/squares/red.png><div class=""fixation"">+</div>","k","","","test_squares","exp","42","4","s","false","ks","d","","","","","","",""
"html-keyboard-response","299","751545","0.0-5.0-5.0-4.42","667bd577710d52a05ac09036","not_provided","desktop","0","0","0","","","","","","working_memory","","null","<div class=""fixation"">Incorrect</div>","null","","","","","","","","","","","","","","","","",""
"html-keyboard-response","300","752547","0.0-5.0-5.0-0.43","667bd577710d52a05ac09036","not_provided","desktop","0","0","0","","","","","","working_memory","","null","<div class=""fixation"">+</div>","null","","","","","","","","","","","","","","","","",""
"html-keyboard-response","301","752760","0.0-5.0-5.0-1.43","667bd577710d52a05ac09036","not_provided","desktop","0","0","0","","","","","","working_memory","","null","<img class='b' src=images/squares/blue.png><img class='c' src=images/squares/magenta.png><img class='f' src=images/squares/orange.png><img class='e' src=images/squares/black.png><img class='g' src=images/squares/green.png><img class='h' src=images/squares/brown.png><img class='j' src=images/squares/cyan.png><img class='k' src=images/squares/red.png><div class=""fixation"">+</div>","null","","","memory","exp","43","","","","","","","","","","","",""
"html-keyboard-response","302","753666","0.0-5.0-5.0-2.43","667bd577710d52a05ac09036","not_provided","desktop","0","0","0","","","","","","working_memory","","null","<div class=""fixation"">+</div>","null","","","","","","","","","","","","","","","","",""
"html-keyboard-response","303","754232","0.0-5.0-5.0-3.43","667bd577710d52a05ac09036","not_provided","desktop","0","0","0","","","","","","working_memory","","565","<img class='j' src=images/squares/yellow.png><div class=""fixation"">+</div>","s","","","test_squares","exp","43","8","s","true","ks","d","","","","","","",""
"html-keyboard-response","304","754737","0.0-5.0-5.0-4.43","667bd577710d52a05ac09036","not_provided","desktop","0","0","0","","","","","","working_memory","","null","<div class=""fixation"">Correct</div>","null","","","","","","","","","","","","","","","","",""
