"trial_type","trial_index","time_elapsed","internal_node_id","subject_id","study_id","device_type","blur_count","fullscreen_exit_count","failed_attention_checks","success","timeout","failed_images","failed_audio","failed_video","phase","value","rt","stimulus","response","view_history","question_order","trial_name","block_type","trial_num","set_size","correct_response","accuracy","mapping","condition","prompt","flipped","attention","expected_answer","category","question_index","task"
"pavlovia","0","706","0.0-0.0","69318afe3bbdec5adc573ab3","not_provided","desktop","0","0","0","","","","","","","","","","","","","","","","","","","","","","","","","","",""
"preload","1","787","0.0-2.0","69318afe3bbdec5adc573ab3","not_provided","desktop","0","0","0","true","false","[]","[]","[]","","","","","","","","","","","","","","","","","","","","","",""
"html-keyboard-response","2","12358","0.0-3.0-0.0","69318afe3bbdec5adc573ab3","not_provided","desktop","0","0","0","","","","","","captcha","","","","","","","","","","","","","","","","","","","","",""
"fullscreen","3","156846","0.0-4.0","69318afe3bbdec5adc573ab3","not_provided","desktop","0","0","0","true","","","","","setup","","","","","","","","","","","","","","","","","","","","",""
"call-function","4","156847","0.0-5.0-0.0","69318afe3bbdec5adc573ab3","not_provided","desktop","0","0","0","","","","","","working_memory","","","","","","","","","","","","","","","","","","","","",""
"html-keyboard-response","5","179385","0.0-5.0-1.0","69318afe3bbdec5adc573ab3","not_provided","desktop","0","0","0","","","","","","working_memory","","22537","<div style=""text-align:center;font-family:sans-serif;""><p>Welcome to the luck game experiment!</p><p>This two-day experiment takes part in a study aimed at developing better clinical treatments.</p><p>We appreciate your participation and require your full concentration.</p><br><p>This is a two-day study. Payment (£6/hour) is only given upon completing both parts today and tomorrow.</p><p>You must finish the second part for compensation. After today, you'll receive an invitation for tomorrow's session.</p><p>Please ensure you can attend both sessions before proceeding. Otherwise, you may exit now.</p><p>If you have any questions, please contact us via prolific.</p><br><p>Please stay attentive and in fullscreen mode to ensure payment.</p><p>Thank you for participating!</p><br><p id=""continue-prompt"" style=""visibility:hidden;""><b>Press any key to continue.</b></p></div>","enter","","","","","","","","","","","","","","","","",""
"instructions","6","417126","0.0-5.0-2.0-0.0","69318afe3bbdec5adc573ab3","not_provided","desktop","2","1","0","","","","","","working_memory","","237740","","","[{""page_index"":0,""viewing_time"":3476},{""page_index"":1,""viewing_time"":1624},{""page_index"":2,""viewing_time"":9120},{""page_index"":3,""viewing_time"":7161},{""page_index"":4,""viewing_time"":29327},{""page_index"":5,""viewing_time"":16265},{""page_index"":4,""viewing_time"":287},{""page_index"":3,""viewing_time"":1744},{""page_index"":4,""viewing_time"":1856},{""page_index"":5,""viewing_time"":5480},{""page_index"":4,""viewing_time"":29736},{""page_index"":5,""viewing_time"":53329},{""page_index"":6,""viewing_time"":11288},{""page_index"":5,""viewing_time"":1688},{""page_index"":6,""viewing_time"":8064},{""page_index"":5,""viewing_time"":744},{""page_index"":6,""viewing_time"":10168},{""page_index"":7,""viewing_time"":6576},{""page_index"":8,""viewing_time"":8680},{""page_index"":7,""viewing_time"":832},{""page_index"":6,""viewing_time"":27360},{""page_index"":7,""viewing_time"":1080},{""page_index"":8,""viewing_time"":1856}]","","","","","","","","","","","","","","","",""
"survey-multi-choice","7","459682","0.0-5.0-2.0-1.0","69318afe3bbdec5adc573ab3","not_provided","desktop","2","1","0","","","","","","working_memory","","42377","","{""set_size"":""4 or 8"",""steps"":""True"",""choose_square"":""Press the 's' or 'k' key."",""remember"":""The colors and locations of the 'memory' squares"",""task"":""To tell if the 'test' square is in the same color as the square previously appearing in this location""}","","[0,1,2,3,4]","test_squares_quiz","","","","","","","","","","","","","",""
"html-keyboard-response","8","478078","0.0-5.0-3.0-0.0","69318afe3bbdec5adc573ab3","not_provided","desktop","2","1","0","","","","","","working_memory","","17890","<p>We will now start some practice trials.<br><b>The practice trials will also include some trials in which you will need to remember only one square to make sure you understood the instructions.</b><br>You may already want to be ready with your fingers on '<b>s</b>' and '<b>k</b>'.<br><img class=""wm-example-img"" src=""images/examples/keyboard.png""><br><b style=""font-size:1.2em;"">&lsquo;S&rsquo; = SAME &nbsp;&nbsp;&nbsp; &lsquo;K&rsquo; = DIFFERENT</b><br><br><u>Please try to be as accurate as possible.</u><br><br><b>Press any key to begin</b></p>","enter","","","","","","","","","","","","","","","","",""
"html-keyboard-response","9","480101","0.0-5.0-3.0-1.0-0.0","69318afe3bbdec5adc573ab3","not_provided","desktop","2","1","0","","","","","","working_memory","","null","<div class=""fixation"">+</div>","null","","","","","","","","","","","","","","","","",""
"html-keyboard-response","10","480365","0.0-5.0-3.0-1.0-1.0","69318afe3bbdec5adc573ab3","not_provided","desktop","2","1","0","","","","","","working_memory","","null","<img class='lower2' src=images/squares/black.png><div class=""fixation"">+</div>","null","","","memory","practice","0","1","","","","","","","","","","",""
"html-keyboard-response","11","481270","0.0-5.0-3.0-1.0-2.0","69318afe3bbdec5adc573ab3","not_provided","desktop","2","1","0","","","","","","working_memory","","null","<div class=""fixation"">+</div>","null","","","","","","","","","","","","","","","","",""
"html-keyboard-response","12","487281","0.0-5.0-3.0-1.0-3.0","69318afe3bbdec5adc573ab3","not_provided","desktop","2","1","0","","","","","","working_memory","","null","<img class='lower2' src=images/squares/red.png><div class=""fixation"">+</div>","null","","","test","practice","0","1","k","null","","","","","","","","",""
"html-keyboard-response","13","487790","0.0-5.0-3.0-1.0-4.0","69318afe3bbdec5adc573ab3","not_provided","desktop","2","1","0","","","","","","working_memory","","null","<div class=""fixation"">Please respond faster</div>","null","","","","","","","","","","","","","","","","",""
"html-keyboard-response","14","488798","0.0-5.0-3.0-1.0-0.1","69318afe3bbdec5adc573ab3","not_provided","desktop","2","1","0","","","","","","working_memory","","null","<div class=""fixation"">+</div>","null","","","","","","","","","","","","","","","","",""
"html-keyboard-response","15","489014","0.0-5.0-3.0-1.0-1.1","69318afe3bbdec5adc573ab3","not_provided","desktop","2","1","0","","","","","","working_memory","","null","<img class='a' src=images/squares/blue.png><img class='b' src=images/squares/yellow.png><img class='f' src=images/squares/red.png><img class='e' src=images/squares/cyan.png><img class='h' src=images/squares/brown.png><img class='g' src=images/squares/magenta.png><img class='j' src=images/squares/black.png><img class='k' src=images/squares/orange.png><div class=""fixation"">+</div>","null","","","memory","practice","1","8","","","","","","","","","","",""
"html-keyboard-response","16","489919","0.0-5.0-3.0-1.0-2.1","69318afe3bbdec5adc573ab3","not_provided","desktop","2","1","0","","","","","","working_memory","","null","<div class=""fixation"">+</div>","null","","","","","","","","","","","","","","","","",""
"html-keyboard-response","17","491854","0.0-5.0-3.0-1.0-3.1","69318afe3bbdec5adc573ab3","not_provided","desktop","2","1","0","","","","","","working_memory","","1934","<img class='h' src=images/squares/green.png><div class=""fixation"">+</div>","s","","","test","practice","1","8","k","false","","","","","","","","",""
"html-keyboard-response","18","492361","0.0-5.0-3.0-1.0-4.1","69318afe3bbdec5adc573ab3","not_provided","desktop","2","1","0","","","","","","working_memory","","null","<div class=""fixation"">Incorrect</div>","null","","","","","","","","","","","","","","","","",""
"html-keyboard-response","19","493377","0.0-5.0-3.0-1.0-0.2","69318afe3bbdec5adc573ab3","not_provided","desktop","2","1","0","","","","","","working_memory","","null","<div class=""fixation"">+</div>","null","","","","","","","","","","","","","","","","",""
"html-keyboard-response","20","493580","0.0-5.0-3.0-1.0-1.2","69318afe3bbdec5adc573ab3","not_provided","desktop","2","1","0","","","","","","working_memory","","null","<img class='b' src=images/squares/brown.png><img class='e' src=images/squares/yellow.png><img class='h' src=images/squares/orange.png><img class='l' src=images/squares/black.png><div class=""fixation"">+</div>","null","","","memory","practice","2","4","","","","","","","","","","",""
"html-keyboard-response","21","494484","0.0-5.0-3.0-1.0-2.2","69318afe3bbdec5adc573ab3","not_provided","desktop","2","1","0","","","","","","working_memory","","null","<div class=""fixation"">+</div>","null","","","","","","","","","","","","","","","","",""
"html-keyboard-response","22","495597","0.0-5.0-3.0-1.0-3.2","69318afe3bbdec5adc573ab3","not_provided","desktop","2","1","0","","","","","","working_memory","","1113","<img class='h' src=images/squares/orange.png><div class=""fixation"">+</div>","s","","","test","practice","2","4","s","true","","","","","","","","",""
"html-keyboard-response","23","496106","0.0-5.0-3.0-1.0-4.2","69318afe3bbdec5adc573ab3","not_provided","desktop","2","1","0","","","","","","working_memory","","null","<div class=""fixation"">Correct</div>","null","","","","","","","","","","","","","","","","",""
"html-keyboard-response","24","497119","0.0-5.0-3.0-1.0-0.3","69318afe3bbdec5adc573ab3","not_provided","desktop","2","1","0","","","","","","working_memory","","null","<div class=""fixation"">+</div>","null","","","","","","","","","","","","","","","","",""
"html-keyboard-response","25","497323","0.0-5.0-3.0-1.0-1.3","69318afe3bbdec5adc573ab3","not_provided","desktop","2","1","0","","","","","","working_memory","","null","<img class='b' src=images/squares/cyan.png><img class='c' src=images/squares/yellow.png><img class='e' src=images/squares/blue.png><img class='f' src=images/squares/magenta.png><img class='g' src=images/squares/red.png><img class='i' src=images/squares/green.png><img class='k' src=images/squares/orange.png><img class='j' src=images/squares/black.png><div class=""fixation"">+</div>","null","","","memory","practice","3","8","","","","","","","","","","",""
"html-keyboard-response","26","498225","0.0-5.0-3.0-1.0-2.3","69318afe3bbdec5adc573ab3","not_provided","desktop","2","1","0","","","","","","working_memory","","null","<div class=""fixation"">+</div>","null","","","","","","","","","","","","","","","","",""
"html-keyboard-response","27","499165","0.0-5.0-3.0-1.0-3.3","69318afe3bbdec5adc573ab3","not_provided","desktop","2","1","0","","","","","","working_memory","","939","<img class='j' src=images/squares/black.png><div class=""fixation"">+</div>","s","","","test","practice","3","8","s","true","","","","","","","","",""
"html-keyboard-response","28","499676","0.0-5.0-3.0-1.0-4.3","69318afe3bbdec5adc573ab3","not_provided","desktop","2","1","0","","","","","","working_memory","","null","<div class=""fixation"">Correct</div>","null","","","","","","","","","","","","","","","","",""
"html-keyboard-response","29","500688","0.0-5.0-3.0-1.0-0.4","69318afe3bbdec5adc573ab3","not_provided","desktop","2","1","0","","","","","","working_memory","","null","<div class=""fixation"">+</div>","null","","","","","","","","","","","","","","","","",""
"html-keyboard-response","30","500904","0.0-5.0-3.0-1.0-1.4","69318afe3bbdec5adc573ab3","not_provided","desktop","2","1","0","","","","","","working_memory","","null","<img class='a' src=images/squares/cyan.png><img class='f' src=images/squares/brown.png><img class='i' src=images/squares/green.png><img class='k' src=images/squares/red.png><div class=""fixation"">+</div>","null","","","memory","practice","4","4","","","","","","","","","","",""
"html-keyboard-response","31","501809","0.0-5.0-3.0-1.0-2.4","69318afe3bbdec5adc573ab3","not_provided","desktop","2","1","0","","","","","","working_memory","","null","<div class=""fixation"">+</div>","null","","","","","","","","","","","","","","","","",""
"html-keyboard-response","32","502614","0.0-5.0-3.0-1.0-3.4","69318afe3bbdec5adc573ab3","not_provided","desktop","2","1","0","","","","","","working_memory","","805","<img class='k' src=images/squares/red.png><div class=""fixation"">+</div>","s","","","test","practice","4","4","s","true","","","","","","","","",""
"html-keyboard-response","33","503119","0.0-5.0-3.0-1.0-4.4","69318afe3bbdec5adc573ab3","not_provided","desktop","2","1","0","","","","","","working_memory","","null","<div class=""fixation"">Correct</div>","null","","","","","","","","","","","","","","","","",""
"html-keyboard-response","34","504130","0.0-5.0-3.0-1.0-0.5","69318afe3bbdec5adc573ab3","not_provided","desktop","2","1","0","","","","","","working_memory","","null","<div class=""fixation"">+</div>","null","","","","","","","","","","","","","","","","",""
"html-keyboard-response","35","504332","0.0-5.0-3.0-1.0-1.5","69318afe3bbdec5adc573ab3","not_provided","desktop","2","1","0","","","","","","working_memory","","null","<img class='a' src=images/squares/yellow.png><img class='b' src=images/squares/brown.png><img class='d' src=images/squares/magenta.png><img class='e' src=images/squares/orange.png><img class='h' src=images/squares/cyan.png><img class='g' src=images/squares/red.png><img class='l' src=images/squares/blue.png><img class='k' src=images/squares/black.png><div class=""fixation"">+</div>","null","","","memory","practice","5","8","","","","","","","","","","",""
"html-keyboard-response","36","505238","0.0-5.0-3.0-1.0-2.5","69318afe3bbdec5adc573ab3","not_provided","desktop","2","1","0","","","","","","working_memory","","null","<div class=""fixation"">+</div>","null","","","","","","","","","","","","","","","","",""
"html-keyboard-response","37","506261","0.0-5.0-3.0-1.0-3.5","69318afe3bbdec5adc573ab3","not_provided","desktop","2","1","0","","","","","","working_memory","","1022","<img class='l' src=images/squares/green.png><div class=""fixation"">+</div>","k","","","test","practice","5","8","k","true","","","","","","","","",""
"html-keyboard-response","38","506765","0.0-5.0-3.0-1.0-4.5","69318afe3bbdec5adc573ab3","not_provided","desktop","2","1","0","","","","","","working_memory","","null","<div class=""fixation"">Correct</div>","null","","","","","","","","","","","","","","","","",""
"html-keyboard-response","39","507779","0.0-5.0-3.0-1.0-0.6","69318afe3bbdec5adc573ab3","not_provided","desktop","2","1","0","","","","","","working_memory","","null","<div class=""fixation"">+</div>","null","","","","","","","","","","","","","","","","",""
"html-keyboard-response","40","507995","0.0-5.0-3.0-1.0-1.6","69318afe3bbdec5adc573ab3","not_provided","desktop","2","1","0","","","","","","working_memory","","null","<img class='lower1' src=images/squares/red.png><div class=""fixation"">+</div>","null","","","memory","practice","6","1","","","","","","","","","","",""
"html-keyboard-response","41","508901","0.0-5.0-3.0-1.0-2.6","69318afe3bbdec5adc573ab3","not_provided","desktop","2","1","0","","","","","","working_memory","","null","<div class=""fixation"">+</div>","null","","","","","","","","","","","","","","","","",""
"html-keyboard-response","42","509773","0.0-5.0-3.0-1.0-3.6","69318afe3bbdec5adc573ab3","not_provided","desktop","2","1","0","","","","","","working_memory","","871","<img class='lower1' src=images/squares/red.png><div class=""fixation"">+</div>","s","","","test","practice","6","1","s","true","","","","","","","","",""
"html-keyboard-response","43","510274","0.0-5.0-3.0-1.0-4.6","69318afe3bbdec5adc573ab3","not_provided","desktop","2","1","0","","","","","","working_memory","","null","<div class=""fixation"">Correct</div>","null","","","","","","","","","","","","","","","","",""
"html-keyboard-response","44","511287","0.0-5.0-3.0-1.0-0.7","69318afe3bbdec5adc573ab3","not_provided","desktop","2","1","0","","","","","","working_memory","","null","<div class=""fixation"">+</div>","null","","","","","","","","","","","","","","","","",""
"html-keyboard-response","45","511492","0.0-5.0-3.0-1.0-1.7","69318afe3bbdec5adc573ab3","not_provided","desktop","2","1","0","","","","","","working_memory","","null","<img class='a' src=images/squares/magenta.png><img class='f' src=images/squares/green.png><img class='h' src=images/squares/brown.png><img class='l' src=images/squares/red.png><div class=""fixation"">+</div>","null","","","memory","practice","7","4","","","","","","","","","","",""
"html-keyboard-response","46","512399","0.0-5.0-3.0-1.0-2.7","69318afe3bbdec5adc573ab3","not_provided","desktop","2","1","0","","","","","","working_memory","","null","<div class=""fixation"">+</div>","null","","","","","","","","","","","","","","","","",""
"html-keyboard-response","47","513198","0.0-5.0-3.0-1.0-3.7","69318afe3bbdec5adc573ab3","not_provided","desktop","2","1","0","","","","","","working_memory","","798","<img class='l' src=images/squares/red.png><div class=""fixation"">+</div>","s","","","test","practice","7","4","s","true","","","","","","","","",""
"html-keyboard-response","48","513703","0.0-5.0-3.0-1.0-4.7","69318afe3bbdec5adc573ab3","not_provided","desktop","2","1","0","","","","","","working_memory","","null","<div class=""fixation"">Correct</div>","null","","","","","","","","","","","","","","","","",""
"html-keyboard-response","49","514708","0.0-5.0-3.0-1.0-0.8","69318afe3bbdec5adc573ab3","not_provided","desktop","2","1","0","","","","","","working_memory","","null","<div class=""fixation"">+</div>","null","","","","","","","","","","","","","","","","",""
"html-keyboard-response","50","514912","0.0-5.0-3.0-1.0-1.8","69318afe3bbdec5adc573ab3","not_provided","desktop","2","1","0","","","","","","working_memory","","null","<img class='upper1' src=images/squares/magenta.png><div class=""fixation"">+</div>","null","","","memory","practice","8","1","","","","","","","","","","",""
"html-keyboard-response","51","515820","0.0-5.0-3.0-1.0-2.8","69318afe3bbdec5adc573ab3","not_provided","desktop","2","1","0","","","","","","working_memory","","null","<div class=""fixation"">+</div>","null","","","","","","","","","","","","","","","","",""
"html-keyboard-response","52","516773","0.0-5.0-3.0-1.0-3.8","69318afe3bbdec5adc573ab3","not_provided","desktop","2","1","0","","","","","","working_memory","","953","<img class='upper1' src=images/squares/magenta.png><div class=""fixation"">+</div>","s","","","test","practice","8","1","s","true","","","","","","","","",""
"html-keyboard-response","53","517283","0.0-5.0-3.0-1.0-4.8","69318afe3bbdec5adc573ab3","not_provided","desktop","2","1","0","","","","","","working_memory","","null","<div class=""fixation"">Correct</div>","null","","","","","","","","","","","","","","","","",""
"html-keyboard-response","54","518298","0.0-5.0-3.0-1.0-0.9","69318afe3bbdec5adc573ab3","not_provided","desktop","2","1","0","","","","","","working_memory","","null","<div class=""fixation"">+</div>","null","","","","","","","","","","","","","","","","",""
"html-keyboard-response","55","518501","0.0-5.0-3.0-1.0-1.9","69318afe3bbdec5adc573ab3","not_provided","desktop","2","1","0","","","","","","working_memory","","null","<img class='a' src=images/squares/magenta.png><img class='e' src=images/squares/orange.png><img class='i' src=images/squares/cyan.png><img class='l' src=images/squares/green.png><div class=""fixation"">+</div>","null","","","memory","practice","9","4","","","","","","","","","","",""
"html-keyboard-response","56","519405","0.0-5.0-3.0-1.0-2.9","69318afe3bbdec5adc573ab3","not_provided","desktop","2","1","0","","","","","","working_memory","","null","<div class=""fixation"">+</div>","null","","","","","","","","","","","","","","","","",""
"html-keyboard-response","57","520181","0.0-5.0-3.0-1.0-3.9","69318afe3bbdec5adc573ab3","not_provided","desktop","2","1","0","","","","","","working_memory","","776","<img class='i' src=images/squares/black.png><div class=""fixation"">+</div>","k","","","test","practice","9","4","k","true","","","","","","","","",""
"html-keyboard-response","58","520683","0.0-5.0-3.0-1.0-4.9","69318afe3bbdec5adc573ab3","not_provided","desktop","2","1","0","","","","","","working_memory","","null","<div class=""fixation"">Correct</div>","null","","","","","","","","","","","","","","","","",""
"html-keyboard-response","59","521695","0.0-5.0-3.0-1.0-0.10","69318afe3bbdec5adc573ab3","not_provided","desktop","2","1","0","","","","","","working_memory","","null","<div class=""fixation"">+</div>","null","","","","","","","","","","","","","","","","",""
"html-keyboard-response","60","521897","0.0-5.0-3.0-1.0-1.10","69318afe3bbdec5adc573ab3","not_provided","desktop","2","1","0","","","","","","working_memory","","null","<img class='b' src=images/squares/yellow.png><img class='e' src=images/squares/orange.png><img class='i' src=images/squares/red.png><img class='k' src=images/squares/black.png><div class=""fixation"">+</div>","null","","","memory","practice","10","4","","","","","","","","","","",""
"html-keyboard-response","61","522806","0.0-5.0-3.0-1.0-2.10","69318afe3bbdec5adc573ab3","not_provided","desktop","2","1","0","","","","","","working_memory","","null","<div class=""fixation"">+</div>","null","","","","","","","","","","","","","","","","",""
"html-keyboard-response","62","523733","0.0-5.0-3.0-1.0-3.10","69318afe3bbdec5adc573ab3","not_provided","desktop","2","1","0","","","","","","working_memory","","926","<img class='e' src=images/squares/blue.png><div class=""fixation"">+</div>","k","","","test","practice","10","4","k","true","","","","","","","","",""
"html-keyboard-response","63","524246","0.0-5.0-3.0-1.0-4.10","69318afe3bbdec5adc573ab3","not_provided","desktop","2","1","0","","","","","","working_memory","","null","<div class=""fixation"">Correct</div>","null","","","","","","","","","","","","","","","","",""
"html-keyboard-response","64","525256","0.0-5.0-3.0-1.0-0.11","69318afe3bbdec5adc573ab3","not_provided","desktop","2","1","0","","","","","","working_memory","","null","<div class=""fixation"">+</div>","null","","","","","","","","","","","","","","","","",""
"html-keyboard-response","65","525458","0.0-5.0-3.0-1.0-1.11","69318afe3bbdec5adc573ab3","not_provided","desktop","2","1","0","","","","","","working_memory","","null","<img class='lower1' src=images/squares/magenta.png><div class=""fixation"">+</div>","null","","","memory","practice","11","1","","","","","","","","","","",""
"html-keyboard-response","66","526369","0.0-5.0-3.0-1.0-2.11","69318afe3bbdec5adc573ab3","not_provided","desktop","2","1","0","","","","","","working_memory","","null","<div class=""fixation"">+</div>","null","","","","","","","","","","","","","","","","",""
"html-keyboard-response","67","527102","0.0-5.0-3.0-1.0-3.11","69318afe3bbdec5adc573ab3","not_provided","desktop","2","1","0","","","","","","working_memory","","732","<img class='lower1' src=images/squares/magenta.png><div class=""fixation"">+</div>","s","","","test","practice","11","1","s","true","","","","","","","","",""
"html-keyboard-response","68","527614","0.0-5.0-3.0-1.0-4.11","69318afe3bbdec5adc573ab3","not_provided","desktop","2","1","0","","","","","","working_memory","","null","<div class=""fixation"">Correct</div>","null","","","","","","","","","","","","","","","","",""
"html-keyboard-response","69","528622","0.0-5.0-3.0-1.0-0.12","69318afe3bbdec5adc573ab3","not_provided","desktop","2","1","0","","","","","","working_memory","","null","<div class=""fixation"">+</div>","null","","","","","","","","","","","","","","","","",""
"html-keyboard-response","70","528838","0.0-5.0-3.0-1.0-1.12","69318afe3bbdec5adc573ab3","not_provided","desktop","2","1","0","","","","","","working_memory","","null","<img class='b' src=images/squares/orange.png><img class='d' src=images/squares/cyan.png><img class='h' src=images/squares/blue.png><img class='k' src=images/squares/yellow.png><div class=""fixation"">+</div>","null","","","memory","practice","12","4","","","","","","","","","","",""
"html-keyboard-response","71","529754","0.0-5.0-3.0-1.0-2.12","69318afe3bbdec5adc573ab3","not_provided","desktop","2","1","0","","","","","","working_memory","","null","<div class=""fixation"">+</div>","null","","","","","","","","","","","","","","","","",""
"html-keyboard-response","72","530470","0.0-5.0-3.0-1.0-3.12","69318afe3bbdec5adc573ab3","not_provided","desktop","2","1","0","","","","","","working_memory","","714","<img class='h' src=images/squares/red.png><div class=""fixation"">+</div>","k","","","test","practice","12","4","k","true","","","","","","","","",""
"html-keyboard-response","73","530984","0.0-5.0-3.0-1.0-4.12","69318afe3bbdec5adc573ab3","not_provided","desktop","2","1","0","","","","","","working_memory","","null","<div class=""fixation"">Correct</div>","null","","","","","","","","","","","","","","","","",""
"html-keyboard-response","74","531995","0.0-5.0-3.0-1.0-0.13","69318afe3bbdec5adc573ab3","not_provided","desktop","2","1","0","","","","","","working_memory","","null","<div class=""fixation"">+</div>","null","","","","","","","","","","","","","","","","",""
"html-keyboard-response","75","532199","0.0-5.0-3.0-1.0-1.13","69318afe3bbdec5adc573ab3","not_provided","desktop","2","1","0","","","","","","working_memory","","null","<img class='b' src=images/squares/brown.png><img class='c' src=images/squares/red.png><img class='f' src=images/squares/black.png><img class='d' src=images/squares/cyan.png><img class='i' src=images/squares/magenta.png><img class='h' src=images/squares/orange.png><img class='k' src=images/squares/green.png><img class='j' src=images/squares/blue.png><div class=""fixation"">+</div>","null","","","memory","practice","13","8","","","","","","","","","","",""
"html-keyboard-response","76","533101","0.0-5.0-3.0-1.0-2.13","69318afe3bbdec5adc573ab3","not_provided","desktop","2","1","0","","","","","","working_memory","","null","<div class=""fixation"">+</div>","null","","","","","","","","","","","","","","","","",""
"html-keyboard-response","77","533822","0.0-5.0-3.0-1.0-3.13","69318afe3bbdec5adc573ab3","not_provided","desktop","2","1","0","","","","","","working_memory","","720","<img class='j' src=images/squares/yellow.png><div class=""fixation"">+</div>","k","","","test","practice","13","8","k","true","","","","","","","","",""
"html-keyboard-response","78","534327","0.0-5.0-3.0-1.0-4.13","69318afe3bbdec5adc573ab3","not_provided","desktop","2","1","0","","","","","","working_memory","","null","<div class=""fixation"">Correct</div>","null","","","","","","","","","","","","","","","","",""
"html-keyboard-response","79","535337","0.0-5.0-3.0-1.0-0.14","69318afe3bbdec5adc573ab3","not_provided","desktop","2","1","0","","","","","","working_memory","","null","<div class=""fixation"">+</div>","null","","","","","","","","","","","","","","","","",""
"html-keyboard-response","80","535541","0.0-5.0-3.0-1.0-1.14","69318afe3bbdec5adc573ab3","not_provided","desktop","2","1","0","","","","","","working_memory","","null","<img class='c' src=images/squares/red.png><img class='f' src=images/squares/blue.png><img class='i' src=images/squares/orange.png><img class='k' src=images/squares/green.png><div class=""fixation"">+</div>","null","","","memory","practice","14","4","","","","","","","","","","",""
"html-keyboard-response","81","536445","0.0-5.0-3.0-1.0-2.14","69318afe3bbdec5adc573ab3","not_provided","desktop","2","1","0","","","","","","working_memory","","null","<div class=""fixation"">+</div>","null","","","","","","","","","","","","","","","","",""
"html-keyboard-response","82","537150","0.0-5.0-3.0-1.0-3.14","69318afe3bbdec5adc573ab3","not_provided","desktop","2","1","0","","","","","","working_memory","","704","<img class='k' src=images/squares/black.png><div class=""fixation"">+</div>","k","","","test","practice","14","4","k","true","","","","","","","","",""
"html-keyboard-response","83","537651","0.0-5.0-3.0-1.0-4.14","69318afe3bbdec5adc573ab3","not_provided","desktop","2","1","0","","","","","","working_memory","","null","<div class=""fixation"">Correct</div>","null","","","","","","","","","","","","","","","","",""
"html-keyboard-response","84","542278","0.0-5.0-3.0-2.0-0.0","69318afe3bbdec5adc573ab3","not_provided","desktop","2","1","0","","","","","","working_memory","","4625","<p>Sorry. You made too many mistakes.<br>Let's do the practice session once again.<br><br><b>Press any key to continue</b></p>","enter","","","","","","","","","","","","","","","","",""
"html-keyboard-response","85","543765","0.0-5.0-3.1-0.1","69318afe3bbdec5adc573ab3","not_provided","desktop","2","1","0","","","","","","working_memory","","1487","<p>We will now start some practice trials.<br><b>The practice trials will also include some trials in which you will need to remember only one square to make sure you understood the instructions.</b><br>You may already want to be ready with your fingers on '<b>s</b>' and '<b>k</b>'.<br><img class=""wm-example-img"" src=""images/examples/keyboard.png""><br><b style=""font-size:1.2em;"">&lsquo;S&rsquo; = SAME &nbsp;&nbsp;&nbsp; &lsquo;K&rsquo; = DIFFERENT</b><br><br><u>Please try to be as accurate as possible.</u><br><br><b>Press any key to begin</b></p>","enter","","","","","","","","","","","","","","","","",""
"html-keyboard-response","86","545780","0.0-5.0-3.1-1.1-0.15","69318afe3bbdec5adc573ab3","not_provided","desktop","2","1","0","","","","","","working_memory","","null","<div class=""fixation"">+</div>","null","","","","","","","","","","","","","","","","",""
"html-keyboard-response","87","545996","0.0-5.0-3.1-1.1-1.15","69318afe3bbdec5adc573ab3","not_provided","desktop","2","1","0","","","","","","working_memory","","null","<img class='a' src=images/squares/brown.png><img class='e' src=images/squares/black.png><img class='g' src=images/squares/yellow.png><img class='k' src=images/squares/orange.png><div class=""fixation"">+</div>","null","","","memory","practice","15","4","","","","","","","","","","",""
"html-keyboard-response","88","546912","0.0-5.0-3.1-1.1-2.15","69318afe3bbdec5adc573ab3","not_provided","desktop","2","1","0","","","","","","working_memory","","null","<div class=""fixation"">+</div>","null","","","","","","","","","","","","","","","","",""
"html-keyboard-response","89","547693","0.0-5.0-3.1-1.1-3.15","69318afe3bbdec5adc573ab3","not_provided","desktop","2","1","0","","","","","","working_memory","","781","<img class='g' src=images/squares/yellow.png><div class=""fixation"">+</div>","s","","","test","practice","15","4","s","true","","","","","","","","",""
"html-keyboard-response","90","548204","0.0-5.0-3.1-1.1-4.15","69318afe3bbdec5adc573ab3","not_provided","desktop","2","1","0","","","","","","working_memory","","null","<div class=""fixation"">Correct</div>","null","","","","","","","","","","","","","","","","",""
"html-keyboard-response","91","549214","0.0-5.0-3.1-1.1-0.16","69318afe3bbdec5adc573ab3","not_provided","desktop","2","1","0","","","","","","working_memory","","null","<div class=""fixation"">+</div>","null","","","","","","","","","","","","","","","","",""
"html-keyboard-response","92","549428","0.0-5.0-3.1-1.1-1.16","69318afe3bbdec5adc573ab3","not_provided","desktop","2","1","0","","","","","","working_memory","","null","<img class='upper1' src=images/squares/yellow.png><div class=""fixation"">+</div>","null","","","memory","practice","16","1","","","","","","","","","","",""
"html-keyboard-response","93","550329","0.0-5.0-3.1-1.1-2.16","69318afe3bbdec5adc573ab3","not_provided","desktop","2","1","0","","","","","","working_memory","","null","<div class=""fixation"">+</div>","null","","","","","","","","","","","","","","","","",""
"html-keyboard-response","94","550773","0.0-5.0-3.1-1.1-3.16","69318afe3bbdec5adc573ab3","not_provided","desktop","2","1","0","","","","","","working_memory","","443","<img class='upper1' src=images/squares/yellow.png><div class=""fixation"">+</div>","s","","","test","practice","16","1","s","true","","","","","","","","",""
"html-keyboard-response","95","551276","0.0-5.0-3.1-1.1-4.16","69318afe3bbdec5adc573ab3","not_provided","desktop","2","1","0","","","","","","working_memory","","null","<div class=""fixation"">Correct</div>","null","","","","","","","","","","","","","","","","",""
"html-keyboard-response","96","552288","0.0-5.0-3.1-1.1-0.17","69318afe3bbdec5adc573ab3","not_provided","desktop","2","1","0","","","","","","working_memory","","null","<div class=""fixation"">+</div>","null","","","","","","","","","","","","","","","","",""
"html-keyboard-response","97","552504","0.0-5.0-3.1-1.1-1.17","69318afe3bbdec5adc573ab3","not_provided","desktop","2","1","0","","","","","","working_memory","","null","<img class='b' src=images/squares/cyan.png><img class='e' src=images/squares/yellow.png><img class='i' src=images/squares/red.png><img class='k' src=images/squares/black.png><div class=""fixation"">+</div>","null","","","memory","practice","17","4","","","","","","","","","","",""
"html-keyboard-response","98","553408","0.0-5.0-3.1-1.1-2.17","69318afe3bbdec5adc573ab3","not_provided","desktop","2","1","0","","","","","","working_memory","","null","<div class=""fixation"">+</div>","null","","","","","","","","","","","","","","","","",""
"html-keyboard-response","99","553933","0.0-5.0-3.1-1.1-3.17","69318afe3bbdec5adc573ab3","not_provided","desktop","2","1","0","","","","","","working_memory","","524","<img class='k' src=images/squares/brown.png><div class=""fixation"">+</div>","k","","","test","practice","17","4","k","true","","","","","","","","",""
"html-keyboard-response","100","554435","0.0-5.0-3.1-1.1-4.17","69318afe3bbdec5adc573ab3","not_provided","desktop","2","1","0","","","","","","working_memory","","null","<div class=""fixation"">Correct</div>","null","","","","","","","","","","","","","","","","",""
"html-keyboard-response","101","555437","0.0-5.0-3.1-1.1-0.18","69318afe3bbdec5adc573ab3","not_provided","desktop","2","1","0","","","","","","working_memory","","null","<div class=""fixation"">+</div>","null","","","","","","","","","","","","","","","","",""
"html-keyboard-response","102","555640","0.0-5.0-3.1-1.1-1.18","69318afe3bbdec5adc573ab3","not_provided","desktop","2","1","0","","","","","","working_memory","","null","<img class='b' src=images/squares/black.png><img class='c' src=images/squares/brown.png><img class='f' src=images/squares/orange.png><img class='e' src=images/squares/blue.png><img class='h' src=images/squares/cyan.png><img class='i' src=images/squares/red.png><img class='l' src=images/squares/yellow.png><img class='j' src=images/squares/magenta.png><div class=""fixation"">+</div>","null","","","memory","practice","18","8","","","","","","","","","","",""
"html-keyboard-response","103","556545","0.0-5.0-3.1-1.1-2.18","69318afe3bbdec5adc573ab3","not_provided","desktop","2","1","0","","","","","","working_memory","","null","<div class=""fixation"">+</div>","null","","","","","","","","","","","","","","","","",""
"html-keyboard-response","104","557494","0.0-5.0-3.1-1.1-3.18","69318afe3bbdec5adc573ab3","not_provided","desktop","2","1","0","","","","","","working_memory","","948","<img class='f' src=images/squares/orange.png><div class=""fixation"">+</div>","k","","","test","practice","18","8","s","false","","","","","","","","",""
"html-keyboard-response","105","558009","0.0-5.0-3.1-1.1-4.18","69318afe3bbdec5adc573ab3","not_provided","desktop","2","1","0","","","","","","working_memory","","null","<div class=""fixation"">Incorrect</div>","null","","","","","","","","","","","","","","","","",""
"html-keyboard-response","106","559014","0.0-5.0-3.1-1.1-0.19","69318afe3bbdec5adc573ab3","not_provided","desktop","2","1","0","","","","","","working_memory","","null","<div class=""fixation"">+</div>","null","","","","","","","","","","","","","","","","",""
"html-keyboard-response","107","559218","0.0-5.0-3.1-1.1-1.19","69318afe3bbdec5adc573ab3","not_provided","desktop","2","1","0","","","","","","working_memory","","null","<img class='b' src=images/squares/green.png><img class='f' src=images/squares/blue.png><img class='i' src=images/squares/magenta.png><img class='l' src=images/squares/cyan.png><div class=""fixation"">+</div>","null","","","memory","practice","19","4","","","","","","","","","","",""
"html-keyboard-response","108","560120","0.0-5.0-3.1-1.1-2.19","69318afe3bbdec5adc573ab3","not_provided","desktop","2","1","0","","","","","","working_memory","","null","<div class=""fixation"">+</div>","null","","","","","","","","","","","","","","","","",""
"html-keyboard-response","109","560751","0.0-5.0-3.1-1.1-3.19","69318afe3bbdec5adc573ab3","not_provided","desktop","2","1","0","","","","","","working_memory","","629","<img class='i' src=images/squares/magenta.png><div class=""fixation"">+</div>","k","","","test","practice","19","4","s","false","","","","","","","","",""
"html-keyboard-response","110","561262","0.0-5.0-3.1-1.1-4.19","69318afe3bbdec5adc573ab3","not_provided","desktop","2","1","0","","","","","","working_memory","","null","<div class=""fixation"">Incorrect</div>","null","","","","","","","","","","","","","","","","",""
"html-keyboard-response","111","562275","0.0-5.0-3.1-1.1-0.20","69318afe3bbdec5adc573ab3","not_provided","desktop","2","1","0","","","","","","working_memory","","null","<div class=""fixation"">+</div>","null","","","","","","","","","","","","","","","","",""
"html-keyboard-response","112","562478","0.0-5.0-3.1-1.1-1.20","69318afe3bbdec5adc573ab3","not_provided","desktop","2","1","0","","","","","","working_memory","","null","<img class='b' src=images/squares/red.png><img class='e' src=images/squares/blue.png><img class='g' src=images/squares/magenta.png><img class='l' src=images/squares/brown.png><div class=""fixation"">+</div>","null","","","memory","practice","20","4","","","","","","","","","","",""
"html-keyboard-response","113","563393","0.0-5.0-3.1-1.1-2.20","69318afe3bbdec5adc573ab3","not_provided","desktop","2","1","0","","","","","","working_memory","","null","<div class=""fixation"">+</div>","null","","","","","","","","","","","","","","","","",""
"html-keyboard-response","114","564125","0.0-5.0-3.1-1.1-3.20","69318afe3bbdec5adc573ab3","not_provided","desktop","2","1","0","","","","","","working_memory","","732","<img class='e' src=images/squares/orange.png><div class=""fixation"">+</div>","s","","","test","practice","20","4","k","false","","","","","","","","",""
"html-keyboard-response","115","564638","0.0-5.0-3.1-1.1-4.20","69318afe3bbdec5adc573ab3","not_provided","desktop","2","1","0","","","","","","working_memory","","null","<div class=""fixation"">Incorrect</div>","null","","","","","","","","","","","","","","","","",""
"html-keyboard-response","116","565650","0.0-5.0-3.1-1.1-0.21","69318afe3bbdec5adc573ab3","not_provided","desktop","2","1","0","","","","","","working_memory","","null","<div class=""fixation"">+</div>","null","","","","","","","","","","","","","","","","",""
"html-keyboard-response","117","565866","0.0-5.0-3.1-1.1-1.21","69318afe3bbdec5adc573ab3","not_provided","desktop","2","1","0","","","","","","working_memory","","null","<img class='b' src=images/squares/cyan.png><img class='c' src=images/squares/magenta.png><img class='e' src=images/squares/yellow.png><img class='f' src=images/squares/green.png><img class='i' src=images/squares/red.png><img class='h' src=images/squares/brown.png><img class='l' src=images/squares/orange.png><img class='k' src=images/squares/black.png><div class=""fixation"">+</div>","null","","","memory","practice","21","8","","","","","","","","","","",""
"html-keyboard-response","118","566781","0.0-5.0-3.1-1.1-2.21","69318afe3bbdec5adc573ab3","not_provided","desktop","2","1","0","","","","","","working_memory","","null","<div class=""fixation"">+</div>","null","","","","","","","","","","","","","","","","",""
"html-keyboard-response","119","567541","0.0-5.0-3.1-1.1-3.21","69318afe3bbdec5adc573ab3","not_provided","desktop","2","1","0","","","","","","working_memory","","760","<img class='b' src=images/squares/cyan.png><div class=""fixation"">+</div>","k","","","test","practice","21","8","s","false","","","","","","","","",""
"html-keyboard-response","120","568050","0.0-5.0-3.1-1.1-4.21","69318afe3bbdec5adc573ab3","not_provided","desktop","2","1","0","","","","","","working_memory","","null","<div class=""fixation"">Incorrect</div>","null","","","","","","","","","","","","","","","","",""
"html-keyboard-response","121","569062","0.0-5.0-3.1-1.1-0.22","69318afe3bbdec5adc573ab3","not_provided","desktop","2","1","0","","","","","","working_memory","","null","<div class=""fixation"">+</div>","null","","","","","","","","","","","","","","","","",""
"html-keyboard-response","122","569264","0.0-5.0-3.1-1.1-1.22","69318afe3bbdec5adc573ab3","not_provided","desktop","2","1","0","","","","","","working_memory","","null","<img class='b' src=images/squares/brown.png><img class='c' src=images/squares/blue.png><img class='d' src=images/squares/magenta.png><img class='e' src=images/squares/red.png><img class='h' src=images/squares/black.png><img class='i' src=images/squares/yellow.png><img class='k' src=images/squares/orange.png><img class='j' src=images/squares/cyan.png><div class=""fixation"">+</div>","null","","","memory","practice","22","8","","","","","","","","","","",""
"html-keyboard-response","123","570169","0.0-5.0-3.1-1.1-2.22","69318afe3bbdec5adc573ab3","not_provided","desktop","2","1","0","","","","","","working_memory","","null","<div class=""fixation"">+</div>","null","","","","","","","","","","","","","","","","",""
"html-keyboard-response","124","570958","0.0-5.0-3.1-1.1-3.22","69318afe3bbdec5adc573ab3","not_provided","desktop","2","1","0","","","","","","working_memory","","788","<img class='d' src=images/squares/magenta.png><div class=""fixation"">+</div>","s","","","test","practice","22","8","s","true","","","","","","","","",""
"html-keyboard-response","125","571467","0.0-5.0-3.1-1.1-4.22","69318afe3bbdec5adc573ab3","not_provided","desktop","2","1","0","","","","","","working_memory","","null","<div class=""fixation"">Correct</div>","null","","","","","","","","","","","","","","","","",""
"html-keyboard-response","126","572475","0.0-5.0-3.1-1.1-0.23","69318afe3bbdec5adc573ab3","not_provided","desktop","2","1","0","","","","","","working_memory","","null","<div class=""fixation"">+</div>","null","","","","","","","","","","","","","","","","",""
"html-keyboard-response","127","572677","0.0-5.0-3.1-1.1-1.23","69318afe3bbdec5adc573ab3","not_provided","desktop","2","1","0","","","","","","working_memory","","null","<img class='a' src=images/squares/magenta.png><img class='c' src=images/squares/blue.png><img class='e' src=images/squares/green.png><img class='f' src=images/squares/orange.png><img class='g' src=images/squares/cyan.png><img class='h' src=images/squares/red.png><img class='k' src=images/squares/yellow.png><img class='l' src=images/squares/black.png><div class=""fixation"">+</div>","null","","","memory","practice","23","8","","","","","","","","","","",""
"html-keyboard-response","128","573578","0.0-5.0-3.1-1.1-2.23","69318afe3bbdec5adc573ab3","not_provided","desktop","2","1","0","","","","","","working_memory","","null","<div class=""fixation"">+</div>","null","","","","","","","","","","","","","","","","",""
"html-keyboard-response","129","574485","0.0-5.0-3.1-1.1-3.23","69318afe3bbdec5adc573ab3","not_provided","desktop","2","1","0","","","","","","working_memory","","906","<img class='g' src=images/squares/brown.png><div class=""fixation"">+</div>","k","","","test","practice","23","8","k","true","","","","","","","","",""
"html-keyboard-response","130","574995","0.0-5.0-3.1-1.1-4.23","69318afe3bbdec5adc573ab3","not_provided","desktop","2","1","0","","","","","","working_memory","","null","<div class=""fixation"">Correct</div>","null","","","","","","","","","","","","","","","","",""
"html-keyboard-response","131","576010","0.0-5.0-3.1-1.1-0.24","69318afe3bbdec5adc573ab3","not_provided","desktop","2","1","0","","","","","","working_memory","","null","<div class=""fixation"">+</div>","null","","","","","","","","","","","","","","","","",""
"html-keyboard-response","132","576211","0.0-5.0-3.1-1.1-1.24","69318afe3bbdec5adc573ab3","not_provided","desktop","2","1","0","","","","","","working_memory","","null","<img class='upper2' src=images/squares/red.png><div class=""fixation"">+</div>","null","","","memory","practice","24","1","","","","","","","","","","",""
"html-keyboard-response","133","577119","0.0-5.0-3.1-1.1-2.24","69318afe3bbdec5adc573ab3","not_provided","desktop","2","1","0","","","","","","working_memory","","null","<div class=""fixation"">+</div>","null","","","","","","","","","","","","","","","","",""
"html-keyboard-response","134","577445","0.0-5.0-3.1-1.1-3.24","69318afe3bbdec5adc573ab3","not_provided","desktop","2","1","0","","","","","","working_memory","","326","<img class='upper2' src=images/squares/red.png><div class=""fixation"">+</div>","s","","","test","practice","24","1","s","true","","","","","","","","",""
"html-keyboard-response","135","577947","0.0-5.0-3.1-1.1-4.24","69318afe3bbdec5adc573ab3","not_provided","desktop","2","1","0","","","","","","working_memory","","null","<div class=""fixation"">Correct</div>","null","","","","","","","","","","","","","","","","",""
"html-keyboard-response","136","578957","0.0-5.0-3.1-1.1-0.25","69318afe3bbdec5adc573ab3","not_provided","desktop","2","1","0","","","","","","working_memory","","null","<div class=""fixation"">+</div>","null","","","","","","","","","","","","","","","","",""
"html-keyboard-response","137","579161","0.0-5.0-3.1-1.1-1.25","69318afe3bbdec5adc573ab3","not_provided","desktop","2","1","0","","","","","","working_memory","","null","<img class='c' src=images/squares/magenta.png><img class='d' src=images/squares/orange.png><img class='g' src=images/squares/blue.png><img class='j' src=images/squares/green.png><div class=""fixation"">+</div>","null","","","memory","practice","25","4","","","","","","","","","","",""
"html-keyboard-response","138","580065","0.0-5.0-3.1-1.1-2.25","69318afe3bbdec5adc573ab3","not_provided","desktop","2","1","0","","","","","","working_memory","","null","<div class=""fixation"">+</div>","null","","","","","","","","","","","","","","","","",""
"html-keyboard-response","139","580741","0.0-5.0-3.1-1.1-3.25","69318afe3bbdec5adc573ab3","not_provided","desktop","2","1","0","","","","","","working_memory","","676","<img class='j' src=images/squares/brown.png><div class=""fixation"">+</div>","k","","","test","practice","25","4","k","true","","","","","","","","",""
"html-keyboard-response","140","581249","0.0-5.0-3.1-1.1-4.25","69318afe3bbdec5adc573ab3","not_provided","desktop","2","1","0","","","","","","working_memory","","null","<div class=""fixation"">Correct</div>","null","","","","","","","","","","","","","","","","",""
"html-keyboard-response","141","582259","0.0-5.0-3.1-1.1-0.26","69318afe3bbdec5adc573ab3","not_provided","desktop","2","1","0","","","","","","working_memory","","null","<div class=""fixation"">+</div>","null","","","","","","","","","","","","","","","","",""
"html-keyboard-response","142","582461","0.0-5.0-3.1-1.1-1.26","69318afe3bbdec5adc573ab3","not_provided","desktop","2","1","0","","","","","","working_memory","","null","<img class='lower1' src=images/squares/cyan.png><div class=""fixation"">+</div>","null","","","memory","practice","26","1","","","","","","","","","","",""
"html-keyboard-response","143","583365","0.0-5.0-3.1-1.1-2.26","69318afe3bbdec5adc573ab3","not_provided","desktop","2","1","0","","","","","","working_memory","","null","<div class=""fixation"">+</div>","null","","","","","","","","","","","","","","","","",""
"html-keyboard-response","144","583606","0.0-5.0-3.1-1.1-3.26","69318afe3bbdec5adc573ab3","not_provided","desktop","2","1","0","","","","","","working_memory","","240","<img class='lower1' src=images/squares/magenta.png><div class=""fixation"">+</div>","s","","","test","practice","26","1","k","false","","","","","","","","",""
"html-keyboard-response","145","584112","0.0-5.0-3.1-1.1-4.26","69318afe3bbdec5adc573ab3","not_provided","desktop","2","1","0","","","","","","working_memory","","null","<div class=""fixation"">Incorrect</div>","null","","","","","","","","","","","","","","","","",""
"html-keyboard-response","146","585125","0.0-5.0-3.1-1.1-0.27","69318afe3bbdec5adc573ab3","not_provided","desktop","2","1","0","","","","","","working_memory","","null","<div class=""fixation"">+</div>","null","","","","","","","","","","","","","","","","",""
"html-keyboard-response","147","585341","0.0-5.0-3.1-1.1-1.27","69318afe3bbdec5adc573ab3","not_provided","desktop","2","1","0","","","","","","working_memory","","null","<img class='c' src=images/squares/cyan.png><img class='b' src=images/squares/black.png><img class='f' src=images/squares/red.png><img class='e' src=images/squares/green.png><img class='i' src=images/squares/magenta.png><img class='h' src=images/squares/blue.png><img class='j' src=images/squares/yellow.png><img class='l' src=images/squares/orange.png><div class=""fixation"">+</div>","null","","","memory","practice","27","8","","","","","","","","","","",""
"html-keyboard-response","148","586244","0.0-5.0-3.1-1.1-2.27","69318afe3bbdec5adc573ab3","not_provided","desktop","2","1","0","","","","","","working_memory","","null","<div class=""fixation"">+</div>","null","","","","","","","","","","","","","","","","",""
"html-keyboard-response","149","586925","0.0-5.0-3.1-1.1-3.27","69318afe3bbdec5adc573ab3","not_provided","desktop","2","1","0","","","","","","working_memory","","680","<img class='i' src=images/squares/brown.png><div class=""fixation"">+</div>","k","","","test","practice","27","8","k","true","","","","","","","","",""
"html-keyboard-response","150","587426","0.0-5.0-3.1-1.1-4.27","69318afe3bbdec5adc573ab3","not_provided","desktop","2","1","0","","","","","","working_memory","","null","<div class=""fixation"">Correct</div>","null","","","","","","","","","","","","","","","","",""
"html-keyboard-response","151","588441","0.0-5.0-3.1-1.1-0.28","69318afe3bbdec5adc573ab3","not_provided","desktop","2","1","0","","","","","","working_memory","","null","<div class=""fixation"">+</div>","null","","","","","","","","","","","","","","","","",""
"html-keyboard-response","152","588643","0.0-5.0-3.1-1.1-1.28","69318afe3bbdec5adc573ab3","not_provided","desktop","2","1","0","","","","","","working_memory","","null","<img class='a' src=images/squares/black.png><img class='f' src=images/squares/red.png><img class='h' src=images/squares/magenta.png><img class='l' src=images/squares/blue.png><div class=""fixation"">+</div>","null","","","memory","practice","28","4","","","","","","","","","","",""
"html-keyboard-response","153","589550","0.0-5.0-3.1-1.1-2.28","69318afe3bbdec5adc573ab3","not_provided","desktop","2","1","0","","","","","","working_memory","","null","<div class=""fixation"">+</div>","null","","","","","","","","","","","","","","","","",""
"html-keyboard-response","154","590173","0.0-5.0-3.1-1.1-3.28","69318afe3bbdec5adc573ab3","not_provided","desktop","2","1","0","","","","","","working_memory","","623","<img class='l' src=images/squares/blue.png><div class=""fixation"">+</div>","s","","","test","practice","28","4","s","true","","","","","","","","",""
"html-keyboard-response","155","590676","0.0-5.0-3.1-1.1-4.28","69318afe3bbdec5adc573ab3","not_provided","desktop","2","1","0","","","","","","working_memory","","null","<div class=""fixation"">Correct</div>","null","","","","","","","","","","","","","","","","",""
"html-keyboard-response","156","591686","0.0-5.0-3.1-1.1-0.29","69318afe3bbdec5adc573ab3","not_provided","desktop","2","1","0","","","","","","working_memory","","null","<div class=""fixation"">+</div>","null","","","","","","","","","","","","","","","","",""
"html-keyboard-response","157","591890","0.0-5.0-3.1-1.1-1.29","69318afe3bbdec5adc573ab3","not_provided","desktop","2","1","0","","","","","","working_memory","","null","<img class='lower1' src=images/squares/yellow.png><div class=""fixation"">+</div>","null","","","memory","practice","29","1","","","","","","","","","","",""
"html-keyboard-response","158","592792","0.0-5.0-3.1-1.1-2.29","69318afe3bbdec5adc573ab3","not_provided","desktop","2","1","0","","","","","","working_memory","","null","<div class=""fixation"">+</div>","null","","","","","","","","","","","","","","","","",""
"html-keyboard-response","159","593349","0.0-5.0-3.1-1.1-3.29","69318afe3bbdec5adc573ab3","not_provided","desktop","2","1","0","","","","","","working_memory","","557","<img class='lower1' src=images/squares/blue.png><div class=""fixation"">+</div>","k","","","test","practice","29","1","k","true","","","","","","","","",""
"html-keyboard-response","160","593852","0.0-5.0-3.1-1.1-4.29","69318afe3bbdec5adc573ab3","not_provided","desktop","2","1","0","","","","","","working_memory","","null","<div class=""fixation"">Correct</div>","null","","","","","","","","","","","","","","","","",""
"html-keyboard-response","161","596493","0.0-5.0-3.1-2.1-0.1","69318afe3bbdec5adc573ab3","not_provided","desktop","2","1","0","","","","","","working_memory","","2641","<p>Sorry. You made too many mistakes.<br>Let's do the practice session once again.<br><br><b>Press any key to continue</b></p>","enter","","","","","","","","","","","","","","","","",""
"html-keyboard-response","162","597517","0.0-5.0-3.2-0.2","69318afe3bbdec5adc573ab3","not_provided","desktop","2","1","0","","","","","","working_memory","","1023","<p>We will now start some practice trials.<br><b>The practice trials will also include some trials in which you will need to remember only one square to make sure you understood the instructions.</b><br>You may already want to be ready with your fingers on '<b>s</b>' and '<b>k</b>'.<br><img class=""wm-example-img"" src=""images/examples/keyboard.png""><br><b style=""font-size:1.2em;"">&lsquo;S&rsquo; = SAME &nbsp;&nbsp;&nbsp; &lsquo;K&rsquo; = DIFFERENT</b><br><br><u>Please try to be as accurate as possible.</u><br><br><b>Press any key to begin</b></p>","enter","","","","","","","","","","","","","","","","",""
"html-keyboard-response","163","599537","0.0-5.0-3.2-1.2-0.30","69318afe3bbdec5adc573ab3","not_provided","desktop","2","1","0","","","","","","working_memory","","null","<div class=""fixation"">+</div>","null","","","","","","","","","","","","","","","","",""
"html-keyboard-response","164","599739","0.0-5.0-3.2-1.2-1.30","69318afe3bbdec5adc573ab3","not_provided","desktop","2","1","0","","","","","","working_memory","","null","<img class='a' src=images/squares/green.png><img class='b' src=images/squares/red.png><img class='f' src=images/squares/cyan.png><img class='d' src=images/squares/blue.png><img class='i' src=images/squares/orange.png><img class='g' src=images/squares/brown.png><img class='k' src=images/squares/black.png><img class='j' src=images/squares/yellow.png><div class=""fixation"">+</div>","null","","","memory","practice","30","8","","","","","","","","","","",""
"html-keyboard-response","165","600641","0.0-5.0-3.2-1.2-2.30","69318afe3bbdec5adc573ab3","not_provided","desktop","2","1","0","","","","","","working_memory","","null","<div class=""fixation"">+</div>","null","","","","","","","","","","","","","","","","",""
"html-keyboard-response","166","601637","0.0-5.0-3.2-1.2-3.30","69318afe3bbdec5adc573ab3","not_provided","desktop","2","1","0","","","","","","working_memory","","995","<img class='i' src=images/squares/magenta.png><div class=""fixation"">+</div>","k","","","test","practice","30","8","k","true","","","","","","","","",""
"html-keyboard-response","167","602140","0.0-5.0-3.2-1.2-4.30","69318afe3bbdec5adc573ab3","not_provided","desktop","2","1","0","","","","","","working_memory","","null","<div class=""fixation"">Correct</div>","null","","","","","","","","","","","","","","","","",""
"html-keyboard-response","168","603155","0.0-5.0-3.2-1.2-0.31","69318afe3bbdec5adc573ab3","not_provided","desktop","2","1","0","","","","","","working_memory","","null","<div class=""fixation"">+</div>","null","","","","","","","","","","","","","","","","",""
"html-keyboard-response","169","603360","0.0-5.0-3.2-1.2-1.31","69318afe3bbdec5adc573ab3","not_provided","desktop","2","1","0","","","","","","working_memory","","null","<img class='b' src=images/squares/green.png><img class='e' src=images/squares/red.png><img class='g' src=images/squares/cyan.png><img class='j' src=images/squares/yellow.png><div class=""fixation"">+</div>","null","","","memory","practice","31","4","","","","","","","","","","",""
"html-keyboard-response","170","604262","0.0-5.0-3.2-1.2-2.31","69318afe3bbdec5adc573ab3","not_provided","desktop","2","1","0","","","","","","working_memory","","null","<div class=""fixation"">+</div>","null","","","","","","","","","","","","","","","","",""
"html-keyboard-response","171","605029","0.0-5.0-3.2-1.2-3.31","69318afe3bbdec5adc573ab3","not_provided","desktop","2","1","0","","","","","","working_memory","","766","<img class='j' src=images/squares/brown.png><div class=""fixation"">+</div>","k","","","test","practice","31","4","k","true","","","","","","","","",""
"html-keyboard-response","172","605534","0.0-5.0-3.2-1.2-4.31","69318afe3bbdec5adc573ab3","not_provided","desktop","2","1","0","","","","","","working_memory","","null","<div class=""fixation"">Correct</div>","null","","","","","","","","","","","","","","","","",""
"html-keyboard-response","173","606545","0.0-5.0-3.2-1.2-0.32","69318afe3bbdec5adc573ab3","not_provided","desktop","2","1","0","","","","","","working_memory","","null","<div class=""fixation"">+</div>","null","","","","","","","","","","","","","","","","",""
"html-keyboard-response","174","606749","0.0-5.0-3.2-1.2-1.32","69318afe3bbdec5adc573ab3","not_provided","desktop","2","1","0","","","","","","working_memory","","null","<img class='c' src=images/squares/cyan.png><img class='a' src=images/squares/magenta.png><img class='d' src=images/squares/blue.png><img class='f' src=images/squares/black.png><img class='i' src=images/squares/red.png><img class='h' src=images/squares/brown.png><img class='j' src=images/squares/yellow.png><img class='k' src=images/squares/orange.png><div class=""fixation"">+</div>","null","","","memory","practice","32","8","","","","","","","","","","",""
"html-keyboard-response","175","607657","0.0-5.0-3.2-1.2-2.32","69318afe3bbdec5adc573ab3","not_provided","desktop","2","1","0","","","","","","working_memory","","null","<div class=""fixation"">+</div>","null","","","","","","","","","","","","","","","","",""
"html-keyboard-response","176","608446","0.0-5.0-3.2-1.2-3.32","69318afe3bbdec5adc573ab3","not_provided","desktop","2","1","0","","","","","","working_memory","","787","<img class='j' src=images/squares/yellow.png><div class=""fixation"">+</div>","k","","","test","practice","32","8","s","false","","","","","","","","",""
"html-keyboard-response","177","608958","0.0-5.0-3.2-1.2-4.32","69318afe3bbdec5adc573ab3","not_provided","desktop","2","1","0","","","","","","working_memory","","null","<div class=""fixation"">Incorrect</div>","null","","","","","","","","","","","","","","","","",""
"html-keyboard-response","178","609973","0.0-5.0-3.2-1.2-0.33","69318afe3bbdec5adc573ab3","not_provided","desktop","2","1","0","","","","","","working_memory","","null","<div class=""fixation"">+</div>","null","","","","","","","","","","","","","","","","",""
"html-keyboard-response","179","610177","0.0-5.0-3.2-1.2-1.33","69318afe3bbdec5adc573ab3","not_provided","desktop","2","1","0","","","","","","working_memory","","null","<img class='upper1' src=images/squares/green.png><div class=""fixation"">+</div>","null","","","memory","practice","33","1","","","","","","","","","","",""
"html-keyboard-response","180","611084","0.0-5.0-3.2-1.2-2.33","69318afe3bbdec5adc573ab3","not_provided","desktop","2","1","0","","","","","","working_memory","","null","<div class=""fixation"">+</div>","null","","","","","","","","","","","","","","","","",""
"html-keyboard-response","181","611581","0.0-5.0-3.2-1.2-3.33","69318afe3bbdec5adc573ab3","not_provided","desktop","2","1","0","","","","","","working_memory","","496","<img class='upper1' src=images/squares/orange.png><div class=""fixation"">+</div>","k","","","test","practice","33","1","k","true","","","","","","","","",""
"html-keyboard-response","182","612084","0.0-5.0-3.2-1.2-4.33","69318afe3bbdec5adc573ab3","not_provided","desktop","2","1","0","","","","","","working_memory","","null","<div class=""fixation"">Correct</div>","null","","","","","","","","","","","","","","","","",""
"html-keyboard-response","183","613085","0.0-5.0-3.2-1.2-0.34","69318afe3bbdec5adc573ab3","not_provided","desktop","2","1","0","","","","","","working_memory","","null","<div class=""fixation"">+</div>","null","","","","","","","","","","","","","","","","",""
"html-keyboard-response","184","613289","0.0-5.0-3.2-1.2-1.34","69318afe3bbdec5adc573ab3","not_provided","desktop","2","1","0","","","","","","working_memory","","null","<img class='upper3' src=images/squares/magenta.png><div class=""fixation"">+</div>","null","","","memory","practice","34","1","","","","","","","","","","",""
"html-keyboard-response","185","614190","0.0-5.0-3.2-1.2-2.34","69318afe3bbdec5adc573ab3","not_provided","desktop","2","1","0","","","","","","working_memory","","null","<div class=""fixation"">+</div>","null","","","","","","","","","","","","","","","","",""
"html-keyboard-response","186","614925","0.0-5.0-3.2-1.2-3.34","69318afe3bbdec5adc573ab3","not_provided","desktop","2","1","0","","","","","","working_memory","","735","<img class='upper3' src=images/squares/magenta.png><div class=""fixation"">+</div>","s","","","test","practice","34","1","s","true","","","","","","","","",""
"html-keyboard-response","187","615436","0.0-5.0-3.2-1.2-4.34","69318afe3bbdec5adc573ab3","not_provided","desktop","2","1","0","","","","","","working_memory","","null","<div class=""fixation"">Correct</div>","null","","","","","","","","","","","","","","","","",""
"html-keyboard-response","188","616446","0.0-5.0-3.2-1.2-0.35","69318afe3bbdec5adc573ab3","not_provided","desktop","2","1","0","","","","","","working_memory","","null","<div class=""fixation"">+</div>","null","","","","","","","","","","","","","","","","",""
"html-keyboard-response","189","616648","0.0-5.0-3.2-1.2-1.35","69318afe3bbdec5adc573ab3","not_provided","desktop","2","1","0","","","","","","working_memory","","null","<img class='c' src=images/squares/yellow.png><img class='f' src=images/squares/green.png><img class='h' src=images/squares/orange.png><img class='j' src=images/squares/magenta.png><div class=""fixation"">+</div>","null","","","memory","practice","35","4","","","","","","","","","","",""
"html-keyboard-response","190","617553","0.0-5.0-3.2-1.2-2.35","69318afe3bbdec5adc573ab3","not_provided","desktop","2","1","0","","","","","","working_memory","","null","<div class=""fixation"">+</div>","null","","","","","","","","","","","","","","","","",""
"html-keyboard-response","191","618285","0.0-5.0-3.2-1.2-3.35","69318afe3bbdec5adc573ab3","not_provided","desktop","2","1","0","","","","","","working_memory","","732","<img class='f' src=images/squares/green.png><div class=""fixation"">+</div>","s","","","test","practice","35","4","s","true","","","","","","","","",""
"html-keyboard-response","192","618801","0.0-5.0-3.2-1.2-4.35","69318afe3bbdec5adc573ab3","not_provided","desktop","2","1","0","","","","","","working_memory","","null","<div class=""fixation"">Correct</div>","null","","","","","","","","","","","","","","","","",""
"html-keyboard-response","193","619812","0.0-5.0-3.2-1.2-0.36","69318afe3bbdec5adc573ab3","not_provided","desktop","2","1","0","","","","","","working_memory","","null","<div class=""fixation"">+</div>","null","","","","","","","","","","","","","","","","",""
"html-keyboard-response","194","620018","0.0-5.0-3.2-1.2-1.36","69318afe3bbdec5adc573ab3","not_provided","desktop","2","1","0","","","","","","working_memory","","null","<img class='b' src=images/squares/blue.png><img class='c' src=images/squares/magenta.png><img class='f' src=images/squares/green.png><img class='e' src=images/squares/brown.png><img class='g' src=images/squares/cyan.png><img class='i' src=images/squares/black.png><img class='j' src=images/squares/red.png><img class='l' src=images/squares/orange.png><div class=""fixation"">+</div>","null","","","memory","practice","36","8","","","","","","","","","","",""
"html-keyboard-response","195","620925","0.0-5.0-3.2-1.2-2.36","69318afe3bbdec5adc573ab3","not_provided","desktop","2","1","0","","","","","","working_memory","","null","<div class=""fixation"">+</div>","null","","","","","","","","","","","","","","","","",""
"html-keyboard-response","196","622054","0.0-5.0-3.2-1.2-3.36","69318afe3bbdec5adc573ab3","not_provided","desktop","2","1","0","","","","","","working_memory","","1128","<img class='l' src=images/squares/orange.png><div class=""fixation"">+</div>","k","","","test","practice","36","8","s","false","","","","","","","","",""
"html-keyboard-response","197","622561","0.0-5.0-3.2-1.2-4.36","69318afe3bbdec5adc573ab3","not_provided","desktop","2","1","0","","","","","","working_memory","","null","<div class=""fixation"">Incorrect</div>","null","","","","","","","","","","","","","","","","",""
"html-keyboard-response","198","623563","0.0-5.0-3.2-1.2-0.37","69318afe3bbdec5adc573ab3","not_provided","desktop","2","1","0","","","","","","working_memory","","null","<div class=""fixation"">+</div>","null","","","","","","","","","","","","","","","","",""
"html-keyboard-response","199","623764","0.0-5.0-3.2-1.2-1.37","69318afe3bbdec5adc573ab3","not_provided","desktop","2","1","0","","","","","","working_memory","","null","<img class='b' src=images/squares/magenta.png><img class='c' src=images/squares/black.png><img class='e' src=images/squares/yellow.png><img class='f' src=images/squares/orange.png><img class='g' src=images/squares/blue.png><img class='i' src=images/squares/green.png><img class='j' src=images/squares/red.png><img class='k' src=images/squares/brown.png><div class=""fixation"">+</div>","null","","","memory","practice","37","8","","","","","","","","","","",""
"html-keyboard-response","200","624673","0.0-5.0-3.2-1.2-2.37","69318afe3bbdec5adc573ab3","not_provided","desktop","2","1","0","","","","","","working_memory","","null","<div class=""fixation"">+</div>","null","","","","","","","","","","","","","","","","",""
"html-keyboard-response","201","625293","0.0-5.0-3.2-1.2-3.37","69318afe3bbdec5adc573ab3","not_provided","desktop","2","1","0","","","","","","working_memory","","620","<img class='b' src=images/squares/magenta.png><div class=""fixation"">+</div>","s","","","test","practice","37","8","s","true","","","","","","","","",""
"html-keyboard-response","202","625808","0.0-5.0-3.2-1.2-4.37","69318afe3bbdec5adc573ab3","not_provided","desktop","2","1","0","","","","","","working_memory","","null","<div class=""fixation"">Correct</div>","null","","","","","","","","","","","","","","","","",""
"html-keyboard-response","203","626818","0.0-5.0-3.2-1.2-0.38","69318afe3bbdec5adc573ab3","not_provided","desktop","2","1","0","","","","","","working_memory","","null","<div class=""fixation"">+</div>","null","","","","","","","","","","","","","","","","",""
"html-keyboard-response","204","627022","0.0-5.0-3.2-1.2-1.38","69318afe3bbdec5adc573ab3","not_provided","desktop","2","1","0","","","","","","working_memory","","null","<img class='upper2' src=images/squares/black.png><div class=""fixation"">+</div>","null","","","memory","practice","38","1","","","","","","","","","","",""
"html-keyboard-response","205","627932","0.0-5.0-3.2-1.2-2.38","69318afe3bbdec5adc573ab3","not_provided","desktop","2","1","0","","","","","","working_memory","","null","<div class=""fixation"">+</div>","null","","","","","","","","","","","","","","","","",""
"html-keyboard-response","206","628318","0.0-5.0-3.2-1.2-3.38","69318afe3bbdec5adc573ab3","not_provided","desktop","2","1","0","","","","","","working_memory","","385","<img class='upper2' src=images/squares/black.png><div class=""fixation"">+</div>","s","","","test","practice","38","1","s","true","","","","","","","","",""
"html-keyboard-response","207","628820","0.0-5.0-3.2-1.2-4.38","69318afe3bbdec5adc573ab3","not_provided","desktop","2","1","0","","","","","","working_memory","","null","<div class=""fixation"">Correct</div>","null","","","","","","","","","","","","","","","","",""
"html-keyboard-response","208","629827","0.0-5.0-3.2-1.2-0.39","69318afe3bbdec5adc573ab3","not_provided","desktop","2","1","0","","","","","","working_memory","","null","<div class=""fixation"">+</div>","null","","","","","","","","","","","","","","","","",""
"html-keyboard-response","209","630028","0.0-5.0-3.2-1.2-1.39","69318afe3bbdec5adc573ab3","not_provided","desktop","2","1","0","","","","","","working_memory","","null","<img class='c' src=images/squares/orange.png><img class='d' src=images/squares/yellow.png><img class='g' src=images/squares/blue.png><img class='l' src=images/squares/magenta.png><div class=""fixation"">+</div>","null","","","memory","practice","39","4","","","","","","","","","","",""
"html-keyboard-response","210","630944","0.0-5.0-3.2-1.2-2.39","69318afe3bbdec5adc573ab3","not_provided","desktop","2","1","0","","","","","","working_memory","","null","<div class=""fixation"">+</div>","null","","","","","","","","","","","","","","","","",""
"html-keyboard-response","211","631677","0.0-5.0-3.2-1.2-3.39","69318afe3bbdec5adc573ab3","not_provided","desktop","2","1","0","","","","","","working_memory","","733","<img class='g' src=images/squares/red.png><div class=""fixation"">+</div>","k","","","test","practice","39","4","k","true","","","","","","","","",""
"html-keyboard-response","212","632192","0.0-5.0-3.2-1.2-4.39","69318afe3bbdec5adc573ab3","not_provided","desktop","2","1","0","","","","","","working_memory","","null","<div class=""fixation"">Correct</div>","null","","","","","","","","","","","","","","","","",""
"html-keyboard-response","213","633203","0.0-5.0-3.2-1.2-0.40","69318afe3bbdec5adc573ab3","not_provided","desktop","2","1","0","","","","","","working_memory","","null","<div class=""fixation"">+</div>","null","","","","","","","","","","","","","","","","",""
"html-keyboard-response","214","633404","0.0-5.0-3.2-1.2-1.40","69318afe3bbdec5adc573ab3","not_provided","desktop","2","1","0","","","","","","working_memory","","null","<img class='b' src=images/squares/cyan.png><img class='a' src=images/squares/black.png><img class='d' src=images/squares/yellow.png><img class='e' src=images/squares/green.png><img class='h' src=images/squares/orange.png><img class='i' src=images/squares/red.png><img class='k' src=images/squares/magenta.png><img class='j' src=images/squares/brown.png><div class=""fixation"">+</div>","null","","","memory","practice","40","8","","","","","","","","","","",""
"html-keyboard-response","215","634320","0.0-5.0-3.2-1.2-2.40","69318afe3bbdec5adc573ab3","not_provided","desktop","2","1","0","","","","","","working_memory","","null","<div class=""fixation"">+</div>","null","","","","","","","","","","","","","","","","",""
"html-keyboard-response","216","635621","0.0-5.0-3.2-1.2-3.40","69318afe3bbdec5adc573ab3","not_provided","desktop","2","1","0","","","","","","working_memory","","1301","<img class='e' src=images/squares/green.png><div class=""fixation"">+</div>","k","","","test","practice","40","8","s","false","","","","","","","","",""
"html-keyboard-response","217","636137","0.0-5.0-3.2-1.2-4.40","69318afe3bbdec5adc573ab3","not_provided","desktop","2","1","0","","","","","","working_memory","","null","<div class=""fixation"">Incorrect</div>","null","","","","","","","","","","","","","","","","",""
"html-keyboard-response","218","637145","0.0-5.0-3.2-1.2-0.41","69318afe3bbdec5adc573ab3","not_provided","desktop","2","1","0","","","","","","working_memory","","null","<div class=""fixation"">+</div>","null","","","","","","","","","","","","","","","","",""
"html-keyboard-response","219","637347","0.0-5.0-3.2-1.2-1.41","69318afe3bbdec5adc573ab3","not_provided","desktop","2","1","0","","","","","","working_memory","","null","<img class='upper1' src=images/squares/magenta.png><div class=""fixation"">+</div>","null","","","memory","practice","41","1","","","","","","","","","","",""
"html-keyboard-response","220","638263","0.0-5.0-3.2-1.2-2.41","69318afe3bbdec5adc573ab3","not_provided","desktop","2","1","0","","","","","","working_memory","","null","<div class=""fixation"">+</div>","null","","","","","","","","","","","","","","","","",""
"html-keyboard-response","221","638821","0.0-5.0-3.2-1.2-3.41","69318afe3bbdec5adc573ab3","not_provided","desktop","2","1","0","","","","","","working_memory","","558","<img class='upper1' src=images/squares/cyan.png><div class=""fixation"">+</div>","k","","","test","practice","41","1","k","true","","","","","","","","",""
"html-keyboard-response","222","639325","0.0-5.0-3.2-1.2-4.41","69318afe3bbdec5adc573ab3","not_provided","desktop","2","1","0","","","","","","working_memory","","null","<div class=""fixation"">Correct</div>","null","","","","","","","","","","","","","","","","",""
"html-keyboard-response","223","640336","0.0-5.0-3.2-1.2-0.42","69318afe3bbdec5adc573ab3","not_provided","desktop","2","1","0","","","","","","working_memory","","null","<div class=""fixation"">+</div>","null","","","","","","","","","","","","","","","","",""
"html-keyboard-response","224","640550","0.0-5.0-3.2-1.2-1.42","69318afe3bbdec5adc573ab3","not_provided","desktop","2","1","0","","","","","","working_memory","","null","<img class='lower3' src=images/squares/black.png><div class=""fixation"">+</div>","null","","","memory","practice","42","1","","","","","","","","","","",""
"html-keyboard-response","225","641452","0.0-5.0-3.2-1.2-2.42","69318afe3bbdec5adc573ab3","not_provided","desktop","2","1","0","","","","","","working_memory","","null","<div class=""fixation"">+</div>","null","","","","","","","","","","","","","","","","",""
"html-keyboard-response","226","642069","0.0-5.0-3.2-1.2-3.42","69318afe3bbdec5adc573ab3","not_provided","desktop","2","1","0","","","","","","working_memory","","617","<img class='lower3' src=images/squares/yellow.png><div class=""fixation"">+</div>","k","","","test","practice","42","1","k","true","","","","","","","","",""
"html-keyboard-response","227","642584","0.0-5.0-3.2-1.2-4.42","69318afe3bbdec5adc573ab3","not_provided","desktop","2","1","0","","","","","","working_memory","","null","<div class=""fixation"">Correct</div>","null","","","","","","","","","","","","","","","","",""
"html-keyboard-response","228","643594","0.0-5.0-3.2-1.2-0.43","69318afe3bbdec5adc573ab3","not_provided","desktop","2","1","0","","","","","","working_memory","","null","<div class=""fixation"">+</div>","null","","","","","","","","","","","","","","","","",""
"html-keyboard-response","229","643799","0.0-5.0-3.2-1.2-1.43","69318afe3bbdec5adc573ab3","not_provided","desktop","2","1","0","","","","","","working_memory","","null","<img class='c' src=images/squares/black.png><img class='a' src=images/squares/brown.png><img class='e' src=images/squares/orange.png><img class='d' src=images/squares/blue.png><img class='h' src=images/squares/magenta.png><img class='g' src=images/squares/green.png><img class='j' src=images/squares/red.png><img class='k' src=images/squares/cyan.png><div class=""fixation"">+</div>","null","","","memory","practice","43","8","","","","","","","","","","",""
"html-keyboard-response","230","644701","0.0-5.0-3.2-1.2-2.43","69318afe3bbdec5adc573ab3","not_provided","desktop","2","1","0","","","","","","working_memory","","null","<div class=""fixation"">+</div>","null","","","","","","","","","","","","","","","","",""
"html-keyboard-response","231","645709","0.0-5.0-3.2-1.2-3.43","69318afe3bbdec5adc573ab3","not_provided","desktop","2","1","0","","","","","","working_memory","","1008","<img class='d' src=images/squares/blue.png><div class=""fixation"">+</div>","k","","","test","practice","43","8","s","false","","","","","","","","",""
"html-keyboard-response","232","646214","0.0-5.0-3.2-1.2-4.43","69318afe3bbdec5adc573ab3","not_provided","desktop","2","1","0","","","","","","working_memory","","null","<div class=""fixation"">Incorrect</div>","null","","","","","","","","","","","","","","","","",""
"html-keyboard-response","233","647224","0.0-5.0-3.2-1.2-0.44","69318afe3bbdec5adc573ab3","not_provided","desktop","2","1","0","","","","","","working_memory","","null","<div class=""fixation"">+</div>","null","","","","","","","","","","","","","","","","",""
"html-keyboard-response","234","647427","0.0-5.0-3.2-1.2-1.44","69318afe3bbdec5adc573ab3","not_provided","desktop","2","1","0","","","","","","working_memory","","null","<img class='a' src=images/squares/magenta.png><img class='d' src=images/squares/yellow.png><img class='i' src=images/squares/orange.png><img class='l' src=images/squares/black.png><div class=""fixation"">+</div>","null","","","memory","practice","44","4","","","","","","","","","","",""
"html-keyboard-response","235","648331","0.0-5.0-3.2-1.2-2.44","69318afe3bbdec5adc573ab3","not_provided","desktop","2","1","0","","","","","","working_memory","","null","<div class=""fixation"">+</div>","null","","","","","","","","","","","","","","","","",""
"html-keyboard-response","236","649405","0.0-5.0-3.2-1.2-3.44","69318afe3bbdec5adc573ab3","not_provided","desktop","2","1","0","","","","","","working_memory","","1073","<img class='l' src=images/squares/brown.png><div class=""fixation"">+</div>","k","","","test","practice","44","4","k","true","","","","","","","","",""
"html-keyboard-response","237","649917","0.0-5.0-3.2-1.2-4.44","69318afe3bbdec5adc573ab3","not_provided","desktop","2","1","0","","","","","","working_memory","","null","<div class=""fixation"">Correct</div>","null","","","","","","","","","","","","","","","","",""
"html-keyboard-response","238","659125","0.0-5.0-4.0","69318afe3bbdec5adc573ab3","not_provided","desktop","2","1","0","","","","","","working_memory","","9208","<div style=""text-align:center;font-family:sans-serif;""><p>Good job! You have finished the practice.</p><p>We will now start the real experiment.</p><p>Please try to be as accurate as possible.</p><p><b><u>Note: random guessing may risk your payment.</u></b></p><br><p><b>Press any key to begin.</b></p></div>","enter","","","","","","","","","","","","","","","","",""
"html-keyboard-response","239","660135","0.0-5.0-5.0-0.0","69318afe3bbdec5adc573ab3","not_provided","desktop","2","1","0","","","","","","working_memory","","null","<div class=""fixation"">+</div>","null","","","","","","","","","","","","","","","","",""
"html-keyboard-response","240","660337","0.0-5.0-5.0-1.0","69318afe3bbdec5adc573ab3","not_provided","desktop","2","1","0","","","","","","working_memory","","null","<img class='b' src=images/squares/yellow.png><img class='e' src=images/squares/brown.png><img class='i' src=images/squares/red.png><img class='j' src=images/squares/orange.png><div class=""fixation"">+</div>","null","","","memory","exp","0","","","","","","","","","","","",""
"html-keyboard-response","241","661241","0.0-5.0-5.0-2.0","69318afe3bbdec5adc573ab3","not_provided","desktop","2","1","0","","","","","","working_memory","","null","<div class=""fixation"">+</div>","null","","","","","","","","","","","","","","","","",""
"html-keyboard-response","242","662134","0.0-5.0-5.0-3.0","69318afe3bbdec5adc573ab3","not_provided","desktop","2","1","0","","","","","","working_memory","","892","<img class='i' src=images/squares/red.png><div class=""fixation"">+</div>","k","","","test_squares","exp","0","4","s","false","sk","s","","","","","","",""
"html-keyboard-response","243","662643","0.0-5.0-5.0-4.0","69318afe3bbdec5adc573ab3","not_provided","desktop","2","1","0","","","","","","working_memory","","null","<div class=""fixation"">Incorrect</div>","null","","","","","","","","","","","","","","","","",""
"html-keyboard-response","244","663651","0.0-5.0-5.0-0.1","69318afe3bbdec5adc573ab3","not_provided","desktop","2","1","0","","","","","","working_memory","","null","<div class=""fixation"">+</div>","null","","","","","","","","","","","","","","","","",""
"html-keyboard-response","245","663867","0.0-5.0-5.0-1.1","69318afe3bbdec5adc573ab3","not_provided","desktop","2","1","0","","","","","","working_memory","","null","<img class='a' src=images/squares/green.png><img class='c' src=images/squares/brown.png><img class='d' src=images/squares/magenta.png><img class='f' src=images/squares/blue.png><img class='h' src=images/squares/cyan.png><img class='i' src=images/squares/red.png><img class='l' src=images/squares/yellow.png><img class='j' src=images/squares/black.png><div class=""fixation"">+</div>","null","","","memory","exp","1","","","","","","","","","","","",""
"html-keyboard-response","246","664771","0.0-5.0-5.0-2.1","69318afe3bbdec5adc573ab3","not_provided","desktop","2","1","0","","","","","","working_memory","","null","<div class=""fixation"">+</div>","null","","","","","","","","","","","","","","","","",""
"html-keyboard-response","247","665389","0.0-5.0-5.0-3.1","69318afe3bbdec5adc573ab3","not_provided","desktop","2","1","0","","","","","","working_memory","","617","<img class='c' src=images/squares/brown.png><div class=""fixation"">+</div>","s","","","test_squares","exp","1","8","s","true","sk","s","","","","","","",""
"html-keyboard-response","248","665890","0.0-5.0-5.0-4.1","69318afe3bbdec5adc573ab3","not_provided","desktop","2","1","0","","","","","","working_memory","","null","<div class=""fixation"">Correct</div>","null","","","","","","","","","","","","","","","","",""
"html-keyboard-response","249","666903","0.0-5.0-5.0-0.2","69318afe3bbdec5adc573ab3","not_provided","desktop","2","1","0","","","","","","working_memory","","null","<div class=""fixation"">+</div>","null","","","","","","","","","","","","","","","","",""
"html-keyboard-response","250","667109","0.0-5.0-5.0-1.2","69318afe3bbdec5adc573ab3","not_provided","desktop","2","1","0","","","","","","working_memory","","null","<img class='c' src=images/squares/cyan.png><img class='b' src=images/squares/magenta.png><img class='e' src=images/squares/orange.png><img class='f' src=images/squares/red.png><img class='h' src=images/squares/yellow.png><img class='i' src=images/squares/green.png><img class='l' src=images/squares/blue.png><img class='k' src=images/squares/brown.png><div class=""fixation"">+</div>","null","","","memory","exp","2","","","","","","","","","","","",""
"html-keyboard-response","251","668023","0.0-5.0-5.0-2.2","69318afe3bbdec5adc573ab3","not_provided","desktop","2","1","0","","","","","","working_memory","","null","<div class=""fixation"">+</div>","null","","","","","","","","","","","","","","","","",""
"html-keyboard-response","252","668870","0.0-5.0-5.0-3.2","69318afe3bbdec5adc573ab3","not_provided","desktop","2","1","0","","","","","","working_memory","","846","<img class='b' src=images/squares/black.png><div class=""fixation"">+</div>","s","","","test_squares","exp","2","8","k","false","sk","d","","","","","","",""
"html-keyboard-response","253","669380","0.0-5.0-5.0-4.2","69318afe3bbdec5adc573ab3","not_provided","desktop","2","1","0","","","","","","working_memory","","null","<div class=""fixation"">Incorrect</div>","null","","","","","","","","","","","","","","","","",""
"html-keyboard-response","254","670388","0.0-5.0-5.0-0.3","69318afe3bbdec5adc573ab3","not_provided","desktop","2","1","0","","","","","","working_memory","","null","<div class=""fixation"">+</div>","null","","","","","","","","","","","","","","","","",""
"html-keyboard-response","255","670590","0.0-5.0-5.0-1.3","69318afe3bbdec5adc573ab3","not_provided","desktop","2","1","0","","","","","","working_memory","","null","<img class='b' src=images/squares/cyan.png><img class='f' src=images/squares/brown.png><img class='h' src=images/squares/yellow.png><img class='k' src=images/squares/black.png><div class=""fixation"">+</div>","null","","","memory","exp","3","","","","","","","","","","","",""
"html-keyboard-response","256","671493","0.0-5.0-5.0-2.3","69318afe3bbdec5adc573ab3","not_provided","desktop","2","1","0","","","","","","working_memory","","null","<div class=""fixation"">+</div>","null","","","","","","","","","","","","","","","","",""
"html-keyboard-response","257","672047","0.0-5.0-5.0-3.3","69318afe3bbdec5adc573ab3","not_provided","desktop","2","1","0","","","","","","working_memory","","553","<img class='k' src=images/squares/red.png><div class=""fixation"">+</div>","k","","","test_squares","exp","3","4","k","true","sk","d","","","","","","",""
"html-keyboard-response","258","672548","0.0-5.0-5.0-4.3","69318afe3bbdec5adc573ab3","not_provided","desktop","2","1","0","","","","","","working_memory","","null","<div class=""fixation"">Correct</div>","null","","","","","","","","","","","","","","","","",""
"html-keyboard-response","259","673556","0.0-5.0-5.0-0.4","69318afe3bbdec5adc573ab3","not_provided","desktop","2","1","0","","","","","","working_memory","","null","<div class=""fixation"">+</div>","null","","","","","","","","","","","","","","","","",""
"html-keyboard-response","260","673761","0.0-5.0-5.0-1.4","69318afe3bbdec5adc573ab3","not_provided","desktop","2","1","0","","","","","","working_memory","","null","<img class='b' src=images/squares/green.png><img class='e' src=images/squares/red.png><img class='i' src=images/squares/brown.png><img class='j' src=images/squares/cyan.png><div class=""fixation"">+</div>","null","","","memory","exp","4","","","","","","","","","","","",""
"html-keyboard-response","261","674663","0.0-5.0-5.0-2.4","69318afe3bbdec5adc573ab3","not_provided","desktop","2","1","0","","","","","","working_memory","","null","<div class=""fixation"">+</div>","null","","","","","","","","","","","","","","","","",""
"html-keyboard-response","262","675349","0.0-5.0-5.0-3.4","69318afe3bbdec5adc573ab3","not_provided","desktop","2","1","0","","","","","","working_memory","","685","<img class='b' src=images/squares/green.png><div class=""fixation"">+</div>","s","","","test_squares","exp","4","4","s","true","sk","s","","","","","","",""
"html-keyboard-response","263","675858","0.0-5.0-5.0-4.4","69318afe3bbdec5adc573ab3","not_provided","desktop","2","1","0","","","","","","working_memory","","null","<div class=""fixation"">Correct</div>","null","","","","","","","","","","","","","","","","",""
"html-keyboard-response","264","676873","0.0-5.0-5.0-0.5","69318afe3bbdec5adc573ab3","not_provided","desktop","2","1","0","","","","","","working_memory","","null","<div class=""fixation"">+</div>","null","","","","","","","","","","","","","","","","",""
"html-keyboard-response","265","677075","0.0-5.0-5.0-1.5","69318afe3bbdec5adc573ab3","not_provided","desktop","2","1","0","","","","","","working_memory","","null","<img class='b' src=images/squares/brown.png><img class='f' src=images/squares/magenta.png><img class='g' src=images/squares/blue.png><img class='k' src=images/squares/orange.png><div class=""fixation"">+</div>","null","","","memory","exp","5","","","","","","","","","","","",""
"html-keyboard-response","266","677979","0.0-5.0-5.0-2.5","69318afe3bbdec5adc573ab3","not_provided","desktop","2","1","0","","","","","","working_memory","","null","<div class=""fixation"">+</div>","null","","","","","","","","","","","","","","","","",""
"html-keyboard-response","267","678597","0.0-5.0-5.0-3.5","69318afe3bbdec5adc573ab3","not_provided","desktop","2","1","0","","","","","","working_memory","","618","<img class='b' src=images/squares/brown.png><div class=""fixation"">+</div>","s","","","test_squares","exp","5","4","s","true","sk","s","","","","","","",""
"html-keyboard-response","268","679113","0.0-5.0-5.0-4.5","69318afe3bbdec5adc573ab3","not_provided","desktop","2","1","0","","","","","","working_memory","","null","<div class=""fixation"">Correct</div>","null","","","","","","","","","","","","","","","","",""
"html-keyboard-response","269","680124","0.0-5.0-5.0-0.6","69318afe3bbdec5adc573ab3","not_provided","desktop","2","1","0","","","","","","working_memory","","null","<div class=""fixation"">+</div>","null","","","","","","","","","","","","","","","","",""
"html-keyboard-response","270","680326","0.0-5.0-5.0-1.6","69318afe3bbdec5adc573ab3","not_provided","desktop","2","1","0","","","","","","working_memory","","null","<img class='c' src=images/squares/brown.png><img class='e' src=images/squares/yellow.png><img class='i' src=images/squares/black.png><img class='k' src=images/squares/cyan.png><div class=""fixation"">+</div>","null","","","memory","exp","6","","","","","","","","","","","",""
"html-keyboard-response","271","681239","0.0-5.0-5.0-2.6","69318afe3bbdec5adc573ab3","not_provided","desktop","2","1","0","","","","","","working_memory","","null","<div class=""fixation"">+</div>","null","","","","","","","","","","","","","","","","",""
"html-keyboard-response","272","681805","0.0-5.0-5.0-3.6","69318afe3bbdec5adc573ab3","not_provided","desktop","2","1","0","","","","","","working_memory","","566","<img class='k' src=images/squares/red.png><div class=""fixation"">+</div>","k","","","test_squares","exp","6","4","k","true","sk","d","","","","","","",""
"html-keyboard-response","273","682313","0.0-5.0-5.0-4.6","69318afe3bbdec5adc573ab3","not_provided","desktop","2","1","0","","","","","","working_memory","","null","<div class=""fixation"">Correct</div>","null","","","","","","","","","","","","","","","","",""
"html-keyboard-response","274","683323","0.0-5.0-5.0-0.7","69318afe3bbdec5adc573ab3","not_provided","desktop","2","1","0","","","","","","working_memory","","null","<div class=""fixation"">+</div>","null","","","","","","","","","","","","","","","","",""
"html-keyboard-response","275","683525","0.0-5.0-5.0-1.7","69318afe3bbdec5adc573ab3","not_provided","desktop","2","1","0","","","","","","working_memory","","null","<img class='c' src=images/squares/blue.png><img class='b' src=images/squares/red.png><img class='d' src=images/squares/cyan.png><img class='f' src=images/squares/yellow.png><img class='h' src=images/squares/black.png><img class='i' src=images/squares/green.png><img class='j' src=images/squares/magenta.png><img class='k' src=images/squares/orange.png><div class=""fixation"">+</div>","null","","","memory","exp","7","","","","","","","","","","","",""
"html-keyboard-response","276","684440","0.0-5.0-5.0-2.7","69318afe3bbdec5adc573ab3","not_provided","desktop","2","1","0","","","","","","working_memory","","null","<div class=""fixation"">+</div>","null","","","","","","","","","","","","","","","","",""
"html-keyboard-response","277","685229","0.0-5.0-5.0-3.7","69318afe3bbdec5adc573ab3","not_provided","desktop","2","1","0","","","","","","working_memory","","789","<img class='b' src=images/squares/red.png><div class=""fixation"">+</div>","k","","","test_squares","exp","7","8","s","false","sk","s","","","","","","",""
"html-keyboard-response","278","685731","0.0-5.0-5.0-4.7","69318afe3bbdec5adc573ab3","not_provided","desktop","2","1","0","","","","","","working_memory","","null","<div class=""fixation"">Incorrect</div>","null","","","","","","","","","","","","","","","","",""
"html-keyboard-response","279","686740","0.0-5.0-5.0-0.8","69318afe3bbdec5adc573ab3","not_provided","desktop","2","1","0","","","","","","working_memory","","null","<div class=""fixation"">+</div>","null","","","","","","","","","","","","","","","","",""
"html-keyboard-response","280","686956","0.0-5.0-5.0-1.8","69318afe3bbdec5adc573ab3","not_provided","desktop","2","1","0","","","","","","working_memory","","null","<img class='b' src=images/squares/black.png><img class='e' src=images/squares/cyan.png><img class='i' src=images/squares/green.png><img class='k' src=images/squares/blue.png><div class=""fixation"">+</div>","null","","","memory","exp","8","","","","","","","","","","","",""
"html-keyboard-response","281","687862","0.0-5.0-5.0-2.8","69318afe3bbdec5adc573ab3","not_provided","desktop","2","1","0","","","","","","working_memory","","null","<div class=""fixation"">+</div>","null","","","","","","","","","","","","","","","","",""
"html-keyboard-response","282","688445","0.0-5.0-5.0-3.8","69318afe3bbdec5adc573ab3","not_provided","desktop","2","1","0","","","","","","working_memory","","583","<img class='b' src=images/squares/red.png><div class=""fixation"">+</div>","k","","","test_squares","exp","8","4","k","true","sk","d","","","","","","",""
"html-keyboard-response","283","688946","0.0-5.0-5.0-4.8","69318afe3bbdec5adc573ab3","not_provided","desktop","2","1","0","","","","","","working_memory","","null","<div class=""fixation"">Correct</div>","null","","","","","","","","","","","","","","","","",""
"html-keyboard-response","284","689960","0.0-5.0-5.0-0.9","69318afe3bbdec5adc573ab3","not_provided","desktop","2","1","0","","","","","","working_memory","","null","<div class=""fixation"">+</div>","null","","","","","","","","","","","","","","","","",""
"html-keyboard-response","285","690163","0.0-5.0-5.0-1.9","69318afe3bbdec5adc573ab3","not_provided","desktop","2","1","0","","","","","","working_memory","","null","<img class='b' src=images/squares/blue.png><img class='c' src=images/squares/cyan.png><img class='f' src=images/squares/orange.png><img class='e' src=images/squares/red.png><img class='h' src=images/squares/green.png><img class='g' src=images/squares/black.png><img class='k' src=images/squares/yellow.png><img class='l' src=images/squares/magenta.png><div class=""fixation"">+</div>","null","","","memory","exp","9","","","","","","","","","","","",""
"html-keyboard-response","286","691068","0.0-5.0-5.0-2.9","69318afe3bbdec5adc573ab3","not_provided","desktop","2","1","0","","","","","","working_memory","","null","<div class=""fixation"">+</div>","null","","","","","","","","","","","","","","","","",""
"html-keyboard-response","287","692085","0.0-5.0-5.0-3.9","69318afe3bbdec5adc573ab3","not_provided","desktop","2","1","0","","","","","","working_memory","","1016","<img class='f' src=images/squares/brown.png><div class=""fixation"">+</div>","k","","","test_squares","exp","9","8","k","true","sk","d","","","","","","",""
"html-keyboard-response","288","692599","0.0-5.0-5.0-4.9","69318afe3bbdec5adc573ab3","not_provided","desktop","2","1","0","","","","","","working_memory","","null","<div class=""fixation"">Correct</div>","null","","","","","","","","","","","","","","","","",""
"html-keyboard-response","289","693612","0.0-5.0-5.0-0.10","69318afe3bbdec5adc573ab3","not_provided","desktop","2","1","0","","","","","","working_memory","","null","<div class=""fixation"">+</div>","null","","","","","","","","","","","","","","","","",""
"html-keyboard-response","290","693814","0.0-5.0-5.0-1.10","69318afe3bbdec5adc573ab3","not_provided","desktop","2","1","0","","","","","","working_memory","","null","<img class='a' src=images/squares/blue.png><img class='f' src=images/squares/black.png><img class='h' src=images/squares/magenta.png><img class='l' src=images/squares/brown.png><div class=""fixation"">+</div>","null","","","memory","exp","10","","","","","","","","","","","",""
"html-keyboard-response","291","694718","0.0-5.0-5.0-2.10","69318afe3bbdec5adc573ab3","not_provided","desktop","2","1","0","","","","","","working_memory","","null","<div class=""fixation"">+</div>","null","","","","","","","","","","","","","","","","",""
"html-keyboard-response","292","695719","0.0-5.0-5.0-3.10","69318afe3bbdec5adc573ab3","not_provided","desktop","2","1","0","","","","","","working_memory","","1000","<img class='h' src=images/squares/magenta.png><div class=""fixation"">+</div>","s","","","test_squares","exp","10","4","s","true","sk","s","","","","","","",""
"html-keyboard-response","293","696230","0.0-5.0-5.0-4.10","69318afe3bbdec5adc573ab3","not_provided","desktop","2","1","0","","","","","","working_memory","","null","<div class=""fixation"">Correct</div>","null","","","","","","","","","","","","","","","","",""
"html-keyboard-response","294","697244","0.0-5.0-5.0-0.11","69318afe3bbdec5adc573ab3","not_provided","desktop","2","1","0","","","","","","working_memory","","null","<div class=""fixation"">+</div>","null","","","","","","","","","","","","","","","","",""
"html-keyboard-response","295","697447","0.0-5.0-5.0-1.11","69318afe3bbdec5adc573ab3","not_provided","desktop","2","1","0","","","","","","working_memory","","null","<img class='c' src=images/squares/magenta.png><img class='a' src=images/squares/brown.png><img class='d' src=images/squares/black.png><img class='e' src=images/squares/yellow.png><img class='i' src=images/squares/cyan.png><img class='g' src=images/squares/green.png><img class='k' src=images/squares/orange.png><img class='l' src=images/squares/blue.png><div class=""fixation"">+</div>","null","","","memory","exp","11","","","","","","","","","","","",""
"html-keyboard-response","296","698364","0.0-5.0-5.0-2.11","69318afe3bbdec5adc573ab3","not_provided","desktop","2","1","0","","","","","","working_memory","","null","<div class=""fixation"">+</div>","null","","","","","","","","","","","","","","","","",""
"html-keyboard-response","297","699437","0.0-5.0-5.0-3.11","69318afe3bbdec5adc573ab3","not_provided","desktop","2","1","0","","","","","","working_memory","","1073","<img class='g' src=images/squares/green.png><div class=""fixation"">+</div>","k","","","test_squares","exp","11","8","s","false","sk","s","","","","","","",""
"html-keyboard-response","298","699942","0.0-5.0-5.0-4.11","69318afe3bbdec5adc573ab3","not_provided","desktop","2","1","0","","","","","","working_memory","","null","<div class=""fixation"">Incorrect</div>","null","","","","","","","","","","","","","","","","",""
"html-keyboard-response","299","700946","0.0-5.0-5.0-0.12","69318afe3bbdec5adc573ab3","not_provided","desktop","2","1","0","","","","","","working_memory","","null","<div class=""fixation"">+</div>","null","","","","","","","","","","","","","","","","",""
"html-keyboard-response","300","701151","0.0-5.0-5.0-1.12","69318afe3bbdec5adc573ab3","not_provided","desktop","2","1","0","","","","","","working_memory","","null","<img class='a' src=images/squares/yellow.png><img class='e' src=images/squares/orange.png><img class='h' src=images/squares/magenta.png><img class='k' src=images/squares/cyan.png><div class=""fixation"">+</div>","null","","","memory","exp","12","","","","","","","","","","","",""
"html-keyboard-response","301","702057","0.0-5.0-5.0-2.12","69318afe3bbdec5adc573ab3","not_provided","desktop","2","1","0","","","","","","working_memory","","null","<div class=""fixation"">+</div>","null","","","","","","","","","","","","","","","","",""
"html-keyboard-response","302","702870","0.0-5.0-5.0-3.12","69318afe3bbdec5adc573ab3","not_provided","desktop","2","1","0","","","","","","working_memory","","812","<img class='h' src=images/squares/brown.png><div class=""fixation"">+</div>","k","","","test_squares","exp","12","4","k","true","sk","d","","","","","","",""
