"trial_type","trial_index","time_elapsed","internal_node_id","subject_id","study_id","device_type","blur_count","fullscreen_exit_count","failed_attention_checks","success","timeout","failed_images","failed_audio","failed_video","phase","value","rt","stimulus","response","view_history","question_order","trial_name","block_type","trial_num","set_size","correct_response","accuracy","mapping","condition","prompt","flipped","attention","expected_answer","category","question_index","task"
"pavlovia","0","1465","0.0-0.0","69d555ce85e30d6215e559d9","not_provided","desktop","0","0","0","","","","","","","","","","","","","","","","","","","","","","","","","","",""
"preload","1","3014","0.0-2.0","69d555ce85e30d6215e559d9","not_provided","desktop","0","0","0","true","false","[]","[]","[]","","","","","","","","","","","","","","","","","","","","","",""
"html-keyboard-response","2","12511","0.0-3.0-0.0","69d555ce85e30d6215e559d9","not_provided","desktop","0","0","0","","","","","","captcha","","","","","","","","","","","","","","","","","","","","",""
"fullscreen","3","46469","0.0-4.0","69d555ce85e30d6215e559d9","not_provided","desktop","0","0","0","true","","","","","setup","","","","","","","","","","","","","","","","","","","","",""
"call-function","4","46470","0.0-5.0-0.0","69d555ce85e30d6215e559d9","not_provided","desktop","0","0","0","","","","","","working_memory","","","","","","","","","","","","","","","","","","","","",""
"html-keyboard-response","5","135866","0.0-5.0-1.0","69d555ce85e30d6215e559d9","not_provided","desktop","0","0","0","","","","","","working_memory","","89395","<div style=""text-align:center;font-family:sans-serif;""><p>Welcome to the luck game experiment!</p><p>This two-day experiment takes part in a study aimed at developing better clinical treatments.</p><p>We appreciate your participation and require your full concentration.</p><br><p>This is a two-day study. Payment (£6/hour) is only given upon completing both parts today and tomorrow.</p><p>You must finish the second part for compensation. After today, you'll receive an invitation for tomorrow's session.</p><p>Please ensure you can attend both sessions before proceeding. Otherwise, you may exit now.</p><p>If you have any questions, please contact us via prolific.</p><br><p>Please stay attentive and in fullscreen mode to ensure payment.</p><p>Thank you for participating!</p><br><p id=""continue-prompt"" style=""visibility:hidden;""><b>Press any key to continue.</b></p></div>","1","","","","","","","","","","","","","","","","",""
"instructions","6","282598","0.0-5.0-2.0-0.0","69d555ce85e30d6215e559d9","not_provided","desktop","0","0","0","","","","","","working_memory","","146731","","","[{""page_index"":0,""viewing_time"":2894},{""page_index"":1,""viewing_time"":1725},{""page_index"":2,""viewing_time"":83513},{""page_index"":3,""viewing_time"":4048},{""page_index"":4,""viewing_time"":7709},{""page_index"":5,""viewing_time"":17060},{""page_index"":6,""viewing_time"":18233},{""page_index"":7,""viewing_time"":4538},{""page_index"":8,""viewing_time"":7010}]","","","","","","","","","","","","","","","",""
"survey-multi-choice","7","353873","0.0-5.0-2.0-1.0","69d555ce85e30d6215e559d9","not_provided","desktop","0","0","0","","","","","","working_memory","","71273","","{""set_size"":""4 or 8"",""steps"":""True"",""choose_square"":""Press the 's' or 'k' key."",""remember"":""The colors and locations of the 'memory' squares"",""task"":""To tell if the 'test' square is in the same color as the square previously appearing in this location""}","","[0,1,2,3,4]","test_squares_quiz","","","","","","","","","","","","","",""
"html-keyboard-response","8","386063","0.0-5.0-3.0-0.0","69d555ce85e30d6215e559d9","not_provided","desktop","0","0","0","","","","","","working_memory","","32188","<p>We will now start some practice trials.<br><b>The practice trials will also include some trials in which you will need to remember only one square to make sure you understood the instructions.</b><br>You may already want to be ready with your fingers on '<b>s</b>' and '<b>k</b>'.<br><img class=""wm-example-img"" src=""images/examples/keyboard.png""><br><b style=""font-size:1.2em;"">&lsquo;S&rsquo; = SAME &nbsp;&nbsp;&nbsp; &lsquo;K&rsquo; = DIFFERENT</b><br><br><u>Please try to be as accurate as possible.</u><br><br><b>Press any key to begin</b></p>","k","","","","","","","","","","","","","","","","",""
"html-keyboard-response","9","388094","0.0-5.0-3.0-1.0-0.0","69d555ce85e30d6215e559d9","not_provided","desktop","0","0","0","","","","","","working_memory","","null","<div class=""fixation"">+</div>","null","","","","","","","","","","","","","","","","",""
"html-keyboard-response","10","388303","0.0-5.0-3.0-1.0-1.0","69d555ce85e30d6215e559d9","not_provided","desktop","0","0","0","","","","","","working_memory","","null","<img class='upper2' src=images/squares/yellow.png><div class=""fixation"">+</div>","null","","","memory","practice","0","1","","","","","","","","","","",""
"html-keyboard-response","11","389210","0.0-5.0-3.0-1.0-2.0","69d555ce85e30d6215e559d9","not_provided","desktop","0","0","0","","","","","","working_memory","","null","<div class=""fixation"">+</div>","null","","","","","","","","","","","","","","","","",""
"html-keyboard-response","12","394847","0.0-5.0-3.0-1.0-3.0","69d555ce85e30d6215e559d9","not_provided","desktop","0","0","0","","","","","","working_memory","","5635","<img class='upper2' src=images/squares/yellow.png><div class=""fixation"">+</div>","s","","","test","practice","0","1","s","true","","","","","","","","",""
"html-keyboard-response","13","395355","0.0-5.0-3.0-1.0-4.0","69d555ce85e30d6215e559d9","not_provided","desktop","0","0","0","","","","","","working_memory","","null","<div class=""fixation"">Correct</div>","null","","","","","","","","","","","","","","","","",""
"html-keyboard-response","14","396367","0.0-5.0-3.0-1.0-0.1","69d555ce85e30d6215e559d9","not_provided","desktop","0","0","0","","","","","","working_memory","","null","<div class=""fixation"">+</div>","null","","","","","","","","","","","","","","","","",""
"html-keyboard-response","15","396579","0.0-5.0-3.0-1.0-1.1","69d555ce85e30d6215e559d9","not_provided","desktop","0","0","0","","","","","","working_memory","","null","<img class='c' src=images/squares/orange.png><img class='f' src=images/squares/black.png><img class='h' src=images/squares/red.png><img class='j' src=images/squares/green.png><div class=""fixation"">+</div>","null","","","memory","practice","1","4","","","","","","","","","","",""
"html-keyboard-response","16","397485","0.0-5.0-3.0-1.0-2.1","69d555ce85e30d6215e559d9","not_provided","desktop","0","0","0","","","","","","working_memory","","null","<div class=""fixation"">+</div>","null","","","","","","","","","","","","","","","","",""
"html-keyboard-response","17","398902","0.0-5.0-3.0-1.0-3.1","69d555ce85e30d6215e559d9","not_provided","desktop","0","0","0","","","","","","working_memory","","1416","<img class='h' src=images/squares/red.png><div class=""fixation"">+</div>","s","","","test","practice","1","4","s","true","","","","","","","","",""
"html-keyboard-response","18","399412","0.0-5.0-3.0-1.0-4.1","69d555ce85e30d6215e559d9","not_provided","desktop","0","0","0","","","","","","working_memory","","null","<div class=""fixation"">Correct</div>","null","","","","","","","","","","","","","","","","",""
"html-keyboard-response","19","400416","0.0-5.0-3.0-1.0-0.2","69d555ce85e30d6215e559d9","not_provided","desktop","0","0","0","","","","","","working_memory","","null","<div class=""fixation"">+</div>","null","","","","","","","","","","","","","","","","",""
"html-keyboard-response","20","400624","0.0-5.0-3.0-1.0-1.2","69d555ce85e30d6215e559d9","not_provided","desktop","0","0","0","","","","","","working_memory","","null","<img class='b' src=images/squares/blue.png><img class='c' src=images/squares/black.png><img class='d' src=images/squares/orange.png><img class='e' src=images/squares/brown.png><img class='h' src=images/squares/red.png><img class='g' src=images/squares/yellow.png><img class='l' src=images/squares/cyan.png><img class='k' src=images/squares/magenta.png><div class=""fixation"">+</div>","null","","","memory","practice","2","8","","","","","","","","","","",""
"html-keyboard-response","21","401533","0.0-5.0-3.0-1.0-2.2","69d555ce85e30d6215e559d9","not_provided","desktop","0","0","0","","","","","","working_memory","","null","<div class=""fixation"">+</div>","null","","","","","","","","","","","","","","","","",""
"html-keyboard-response","22","402996","0.0-5.0-3.0-1.0-3.2","69d555ce85e30d6215e559d9","not_provided","desktop","0","0","0","","","","","","working_memory","","1462","<img class='c' src=images/squares/green.png><div class=""fixation"">+</div>","s","","","test","practice","2","8","k","false","","","","","","","","",""
"html-keyboard-response","23","403502","0.0-5.0-3.0-1.0-4.2","69d555ce85e30d6215e559d9","not_provided","desktop","0","0","0","","","","","","working_memory","","null","<div class=""fixation"">Incorrect</div>","null","","","","","","","","","","","","","","","","",""
"html-keyboard-response","24","404514","0.0-5.0-3.0-1.0-0.3","69d555ce85e30d6215e559d9","not_provided","desktop","0","0","0","","","","","","working_memory","","null","<div class=""fixation"">+</div>","null","","","","","","","","","","","","","","","","",""
"html-keyboard-response","25","404721","0.0-5.0-3.0-1.0-1.3","69d555ce85e30d6215e559d9","not_provided","desktop","0","0","0","","","","","","working_memory","","null","<img class='c' src=images/squares/magenta.png><img class='e' src=images/squares/green.png><img class='g' src=images/squares/orange.png><img class='l' src=images/squares/brown.png><div class=""fixation"">+</div>","null","","","memory","practice","3","4","","","","","","","","","","",""
"html-keyboard-response","26","405628","0.0-5.0-3.0-1.0-2.3","69d555ce85e30d6215e559d9","not_provided","desktop","0","0","0","","","","","","working_memory","","null","<div class=""fixation"">+</div>","null","","","","","","","","","","","","","","","","",""
"html-keyboard-response","27","407478","0.0-5.0-3.0-1.0-3.3","69d555ce85e30d6215e559d9","not_provided","desktop","0","0","0","","","","","","working_memory","","1849","<img class='c' src=images/squares/blue.png><div class=""fixation"">+</div>","k","","","test","practice","3","4","k","true","","","","","","","","",""
"html-keyboard-response","28","407993","0.0-5.0-3.0-1.0-4.3","69d555ce85e30d6215e559d9","not_provided","desktop","0","0","0","","","","","","working_memory","","null","<div class=""fixation"">Correct</div>","null","","","","","","","","","","","","","","","","",""
"html-keyboard-response","29","409008","0.0-5.0-3.0-1.0-0.4","69d555ce85e30d6215e559d9","not_provided","desktop","0","0","0","","","","","","working_memory","","null","<div class=""fixation"">+</div>","null","","","","","","","","","","","","","","","","",""
"html-keyboard-response","30","409215","0.0-5.0-3.0-1.0-1.4","69d555ce85e30d6215e559d9","not_provided","desktop","0","0","0","","","","","","working_memory","","null","<img class='upper2' src=images/squares/green.png><div class=""fixation"">+</div>","null","","","memory","practice","4","1","","","","","","","","","","",""
"html-keyboard-response","31","410128","0.0-5.0-3.0-1.0-2.4","69d555ce85e30d6215e559d9","not_provided","desktop","0","0","0","","","","","","working_memory","","null","<div class=""fixation"">+</div>","null","","","","","","","","","","","","","","","","",""
"html-keyboard-response","32","411302","0.0-5.0-3.0-1.0-3.4","69d555ce85e30d6215e559d9","not_provided","desktop","0","0","0","","","","","","working_memory","","1173","<img class='upper2' src=images/squares/blue.png><div class=""fixation"">+</div>","k","","","test","practice","4","1","k","true","","","","","","","","",""
"html-keyboard-response","33","411804","0.0-5.0-3.0-1.0-4.4","69d555ce85e30d6215e559d9","not_provided","desktop","0","0","0","","","","","","working_memory","","null","<div class=""fixation"">Correct</div>","null","","","","","","","","","","","","","","","","",""
"html-keyboard-response","34","412818","0.0-5.0-3.0-1.0-0.5","69d555ce85e30d6215e559d9","not_provided","desktop","0","0","0","","","","","","working_memory","","null","<div class=""fixation"">+</div>","null","","","","","","","","","","","","","","","","",""
"html-keyboard-response","35","413029","0.0-5.0-3.0-1.0-1.5","69d555ce85e30d6215e559d9","not_provided","desktop","0","0","0","","","","","","working_memory","","null","<img class='c' src=images/squares/blue.png><img class='d' src=images/squares/brown.png><img class='h' src=images/squares/yellow.png><img class='k' src=images/squares/orange.png><div class=""fixation"">+</div>","null","","","memory","practice","5","4","","","","","","","","","","",""
"html-keyboard-response","36","413942","0.0-5.0-3.0-1.0-2.5","69d555ce85e30d6215e559d9","not_provided","desktop","0","0","0","","","","","","working_memory","","null","<div class=""fixation"">+</div>","null","","","","","","","","","","","","","","","","",""
"html-keyboard-response","37","415037","0.0-5.0-3.0-1.0-3.5","69d555ce85e30d6215e559d9","not_provided","desktop","0","0","0","","","","","","working_memory","","1094","<img class='k' src=images/squares/orange.png><div class=""fixation"">+</div>","s","","","test","practice","5","4","s","true","","","","","","","","",""
"html-keyboard-response","38","415551","0.0-5.0-3.0-1.0-4.5","69d555ce85e30d6215e559d9","not_provided","desktop","0","0","0","","","","","","working_memory","","null","<div class=""fixation"">Correct</div>","null","","","","","","","","","","","","","","","","",""
"html-keyboard-response","39","416554","0.0-5.0-3.0-1.0-0.6","69d555ce85e30d6215e559d9","not_provided","desktop","0","0","0","","","","","","working_memory","","null","<div class=""fixation"">+</div>","null","","","","","","","","","","","","","","","","",""
"html-keyboard-response","40","416759","0.0-5.0-3.0-1.0-1.6","69d555ce85e30d6215e559d9","not_provided","desktop","0","0","0","","","","","","working_memory","","null","<img class='b' src=images/squares/cyan.png><img class='a' src=images/squares/magenta.png><img class='e' src=images/squares/orange.png><img class='d' src=images/squares/yellow.png><img class='h' src=images/squares/brown.png><img class='g' src=images/squares/green.png><img class='j' src=images/squares/red.png><img class='l' src=images/squares/black.png><div class=""fixation"">+</div>","null","","","memory","practice","6","8","","","","","","","","","","",""
"html-keyboard-response","41","417670","0.0-5.0-3.0-1.0-2.6","69d555ce85e30d6215e559d9","not_provided","desktop","0","0","0","","","","","","working_memory","","null","<div class=""fixation"">+</div>","null","","","","","","","","","","","","","","","","",""
"html-keyboard-response","42","418974","0.0-5.0-3.0-1.0-3.6","69d555ce85e30d6215e559d9","not_provided","desktop","0","0","0","","","","","","working_memory","","1303","<img class='e' src=images/squares/orange.png><div class=""fixation"">+</div>","k","","","test","practice","6","8","s","false","","","","","","","","",""
"html-keyboard-response","43","419480","0.0-5.0-3.0-1.0-4.6","69d555ce85e30d6215e559d9","not_provided","desktop","0","0","0","","","","","","working_memory","","null","<div class=""fixation"">Incorrect</div>","null","","","","","","","","","","","","","","","","",""
"html-keyboard-response","44","420484","0.0-5.0-3.0-1.0-0.7","69d555ce85e30d6215e559d9","not_provided","desktop","0","0","0","","","","","","working_memory","","null","<div class=""fixation"">+</div>","null","","","","","","","","","","","","","","","","",""
"html-keyboard-response","45","420688","0.0-5.0-3.0-1.0-1.7","69d555ce85e30d6215e559d9","not_provided","desktop","0","0","0","","","","","","working_memory","","null","<img class='b' src=images/squares/green.png><img class='a' src=images/squares/brown.png><img class='d' src=images/squares/black.png><img class='e' src=images/squares/cyan.png><img class='g' src=images/squares/orange.png><img class='i' src=images/squares/magenta.png><img class='j' src=images/squares/blue.png><img class='k' src=images/squares/red.png><div class=""fixation"">+</div>","null","","","memory","practice","7","8","","","","","","","","","","",""
"html-keyboard-response","46","421601","0.0-5.0-3.0-1.0-2.7","69d555ce85e30d6215e559d9","not_provided","desktop","0","0","0","","","","","","working_memory","","null","<div class=""fixation"">+</div>","null","","","","","","","","","","","","","","","","",""
"html-keyboard-response","47","422742","0.0-5.0-3.0-1.0-3.7","69d555ce85e30d6215e559d9","not_provided","desktop","0","0","0","","","","","","working_memory","","1141","<img class='k' src=images/squares/red.png><div class=""fixation"">+</div>","k","","","test","practice","7","8","s","false","","","","","","","","",""
"html-keyboard-response","48","423244","0.0-5.0-3.0-1.0-4.7","69d555ce85e30d6215e559d9","not_provided","desktop","0","0","0","","","","","","working_memory","","null","<div class=""fixation"">Incorrect</div>","null","","","","","","","","","","","","","","","","",""
"html-keyboard-response","49","424260","0.0-5.0-3.0-1.0-0.8","69d555ce85e30d6215e559d9","not_provided","desktop","0","0","0","","","","","","working_memory","","null","<div class=""fixation"">+</div>","null","","","","","","","","","","","","","","","","",""
"html-keyboard-response","50","424469","0.0-5.0-3.0-1.0-1.8","69d555ce85e30d6215e559d9","not_provided","desktop","0","0","0","","","","","","working_memory","","null","<img class='a' src=images/squares/yellow.png><img class='c' src=images/squares/red.png><img class='f' src=images/squares/black.png><img class='d' src=images/squares/cyan.png><img class='i' src=images/squares/green.png><img class='h' src=images/squares/brown.png><img class='l' src=images/squares/blue.png><img class='k' src=images/squares/magenta.png><div class=""fixation"">+</div>","null","","","memory","practice","8","8","","","","","","","","","","",""
"html-keyboard-response","51","425384","0.0-5.0-3.0-1.0-2.8","69d555ce85e30d6215e559d9","not_provided","desktop","0","0","0","","","","","","working_memory","","null","<div class=""fixation"">+</div>","null","","","","","","","","","","","","","","","","",""
"html-keyboard-response","52","426560","0.0-5.0-3.0-1.0-3.8","69d555ce85e30d6215e559d9","not_provided","desktop","0","0","0","","","","","","working_memory","","1176","<img class='a' src=images/squares/orange.png><div class=""fixation"">+</div>","k","","","test","practice","8","8","k","true","","","","","","","","",""
"html-keyboard-response","53","427069","0.0-5.0-3.0-1.0-4.8","69d555ce85e30d6215e559d9","not_provided","desktop","0","0","0","","","","","","working_memory","","null","<div class=""fixation"">Correct</div>","null","","","","","","","","","","","","","","","","",""
"html-keyboard-response","54","428076","0.0-5.0-3.0-1.0-0.9","69d555ce85e30d6215e559d9","not_provided","desktop","0","0","0","","","","","","working_memory","","null","<div class=""fixation"">+</div>","null","","","","","","","","","","","","","","","","",""
"html-keyboard-response","55","428282","0.0-5.0-3.0-1.0-1.9","69d555ce85e30d6215e559d9","not_provided","desktop","0","0","0","","","","","","working_memory","","null","<img class='upper2' src=images/squares/brown.png><div class=""fixation"">+</div>","null","","","memory","practice","9","1","","","","","","","","","","",""
"html-keyboard-response","56","429192","0.0-5.0-3.0-1.0-2.9","69d555ce85e30d6215e559d9","not_provided","desktop","0","0","0","","","","","","working_memory","","null","<div class=""fixation"">+</div>","null","","","","","","","","","","","","","","","","",""
"html-keyboard-response","57","430205","0.0-5.0-3.0-1.0-3.9","69d555ce85e30d6215e559d9","not_provided","desktop","0","0","0","","","","","","working_memory","","1012","<img class='upper2' src=images/squares/brown.png><div class=""fixation"">+</div>","s","","","test","practice","9","1","s","true","","","","","","","","",""
"html-keyboard-response","58","430720","0.0-5.0-3.0-1.0-4.9","69d555ce85e30d6215e559d9","not_provided","desktop","0","0","0","","","","","","working_memory","","null","<div class=""fixation"">Correct</div>","null","","","","","","","","","","","","","","","","",""
"html-keyboard-response","59","431722","0.0-5.0-3.0-1.0-0.10","69d555ce85e30d6215e559d9","not_provided","desktop","0","0","0","","","","","","working_memory","","null","<div class=""fixation"">+</div>","null","","","","","","","","","","","","","","","","",""
"html-keyboard-response","60","431929","0.0-5.0-3.0-1.0-1.10","69d555ce85e30d6215e559d9","not_provided","desktop","0","0","0","","","","","","working_memory","","null","<img class='b' src=images/squares/yellow.png><img class='f' src=images/squares/magenta.png><img class='i' src=images/squares/red.png><img class='l' src=images/squares/green.png><div class=""fixation"">+</div>","null","","","memory","practice","10","4","","","","","","","","","","",""
"html-keyboard-response","61","432840","0.0-5.0-3.0-1.0-2.10","69d555ce85e30d6215e559d9","not_provided","desktop","0","0","0","","","","","","working_memory","","null","<div class=""fixation"">+</div>","null","","","","","","","","","","","","","","","","",""
"html-keyboard-response","62","434042","0.0-5.0-3.0-1.0-3.10","69d555ce85e30d6215e559d9","not_provided","desktop","0","0","0","","","","","","working_memory","","1201","<img class='b' src=images/squares/blue.png><div class=""fixation"">+</div>","k","","","test","practice","10","4","k","true","","","","","","","","",""
"html-keyboard-response","63","434548","0.0-5.0-3.0-1.0-4.10","69d555ce85e30d6215e559d9","not_provided","desktop","0","0","0","","","","","","working_memory","","null","<div class=""fixation"">Correct</div>","null","","","","","","","","","","","","","","","","",""
"html-keyboard-response","64","435552","0.0-5.0-3.0-1.0-0.11","69d555ce85e30d6215e559d9","not_provided","desktop","0","0","0","","","","","","working_memory","","null","<div class=""fixation"">+</div>","null","","","","","","","","","","","","","","","","",""
"html-keyboard-response","65","435757","0.0-5.0-3.0-1.0-1.11","69d555ce85e30d6215e559d9","not_provided","desktop","0","0","0","","","","","","working_memory","","null","<img class='upper2' src=images/squares/green.png><div class=""fixation"">+</div>","null","","","memory","practice","11","1","","","","","","","","","","",""
"html-keyboard-response","66","436669","0.0-5.0-3.0-1.0-2.11","69d555ce85e30d6215e559d9","not_provided","desktop","0","0","0","","","","","","working_memory","","null","<div class=""fixation"">+</div>","null","","","","","","","","","","","","","","","","",""
"html-keyboard-response","67","437561","0.0-5.0-3.0-1.0-3.11","69d555ce85e30d6215e559d9","not_provided","desktop","0","0","0","","","","","","working_memory","","891","<img class='upper2' src=images/squares/green.png><div class=""fixation"">+</div>","s","","","test","practice","11","1","s","true","","","","","","","","",""
"html-keyboard-response","68","438065","0.0-5.0-3.0-1.0-4.11","69d555ce85e30d6215e559d9","not_provided","desktop","0","0","0","","","","","","working_memory","","null","<div class=""fixation"">Correct</div>","null","","","","","","","","","","","","","","","","",""
"html-keyboard-response","69","439077","0.0-5.0-3.0-1.0-0.12","69d555ce85e30d6215e559d9","not_provided","desktop","0","0","0","","","","","","working_memory","","null","<div class=""fixation"">+</div>","null","","","","","","","","","","","","","","","","",""
"html-keyboard-response","70","439289","0.0-5.0-3.0-1.0-1.12","69d555ce85e30d6215e559d9","not_provided","desktop","0","0","0","","","","","","working_memory","","null","<img class='b' src=images/squares/blue.png><img class='a' src=images/squares/yellow.png><img class='d' src=images/squares/red.png><img class='f' src=images/squares/black.png><img class='i' src=images/squares/cyan.png><img class='g' src=images/squares/orange.png><img class='j' src=images/squares/brown.png><img class='l' src=images/squares/magenta.png><div class=""fixation"">+</div>","null","","","memory","practice","12","8","","","","","","","","","","",""
"html-keyboard-response","71","440197","0.0-5.0-3.0-1.0-2.12","69d555ce85e30d6215e559d9","not_provided","desktop","0","0","0","","","","","","working_memory","","null","<div class=""fixation"">+</div>","null","","","","","","","","","","","","","","","","",""
"html-keyboard-response","72","441324","0.0-5.0-3.0-1.0-3.12","69d555ce85e30d6215e559d9","not_provided","desktop","0","0","0","","","","","","working_memory","","1126","<img class='g' src=images/squares/orange.png><div class=""fixation"">+</div>","k","","","test","practice","12","8","s","false","","","","","","","","",""
"html-keyboard-response","73","441835","0.0-5.0-3.0-1.0-4.12","69d555ce85e30d6215e559d9","not_provided","desktop","0","0","0","","","","","","working_memory","","null","<div class=""fixation"">Incorrect</div>","null","","","","","","","","","","","","","","","","",""
"html-keyboard-response","74","442846","0.0-5.0-3.0-1.0-0.13","69d555ce85e30d6215e559d9","not_provided","desktop","0","0","0","","","","","","working_memory","","null","<div class=""fixation"">+</div>","null","","","","","","","","","","","","","","","","",""
"html-keyboard-response","75","443053","0.0-5.0-3.0-1.0-1.13","69d555ce85e30d6215e559d9","not_provided","desktop","0","0","0","","","","","","working_memory","","null","<img class='lower2' src=images/squares/red.png><div class=""fixation"">+</div>","null","","","memory","practice","13","1","","","","","","","","","","",""
"html-keyboard-response","76","443957","0.0-5.0-3.0-1.0-2.13","69d555ce85e30d6215e559d9","not_provided","desktop","0","0","0","","","","","","working_memory","","null","<div class=""fixation"">+</div>","null","","","","","","","","","","","","","","","","",""
"html-keyboard-response","77","444875","0.0-5.0-3.0-1.0-3.13","69d555ce85e30d6215e559d9","not_provided","desktop","0","0","0","","","","","","working_memory","","917","<img class='lower2' src=images/squares/blue.png><div class=""fixation"">+</div>","k","","","test","practice","13","1","k","true","","","","","","","","",""
"html-keyboard-response","78","445388","0.0-5.0-3.0-1.0-4.13","69d555ce85e30d6215e559d9","not_provided","desktop","0","0","0","","","","","","working_memory","","null","<div class=""fixation"">Correct</div>","null","","","","","","","","","","","","","","","","",""
"html-keyboard-response","79","446393","0.0-5.0-3.0-1.0-0.14","69d555ce85e30d6215e559d9","not_provided","desktop","0","0","0","","","","","","working_memory","","null","<div class=""fixation"">+</div>","null","","","","","","","","","","","","","","","","",""
"html-keyboard-response","80","446599","0.0-5.0-3.0-1.0-1.14","69d555ce85e30d6215e559d9","not_provided","desktop","0","0","0","","","","","","working_memory","","null","<img class='c' src=images/squares/cyan.png><img class='a' src=images/squares/red.png><img class='d' src=images/squares/green.png><img class='e' src=images/squares/brown.png><img class='i' src=images/squares/yellow.png><img class='g' src=images/squares/blue.png><img class='j' src=images/squares/orange.png><img class='k' src=images/squares/magenta.png><div class=""fixation"">+</div>","null","","","memory","practice","14","8","","","","","","","","","","",""
"html-keyboard-response","81","447508","0.0-5.0-3.0-1.0-2.14","69d555ce85e30d6215e559d9","not_provided","desktop","0","0","0","","","","","","working_memory","","null","<div class=""fixation"">+</div>","null","","","","","","","","","","","","","","","","",""
"html-keyboard-response","82","448711","0.0-5.0-3.0-1.0-3.14","69d555ce85e30d6215e559d9","not_provided","desktop","0","0","0","","","","","","working_memory","","1202","<img class='i' src=images/squares/black.png><div class=""fixation"">+</div>","s","","","test","practice","14","8","k","false","","","","","","","","",""
"html-keyboard-response","83","449213","0.0-5.0-3.0-1.0-4.14","69d555ce85e30d6215e559d9","not_provided","desktop","0","0","0","","","","","","working_memory","","null","<div class=""fixation"">Incorrect</div>","null","","","","","","","","","","","","","","","","",""
"html-keyboard-response","84","459449","0.0-5.0-4.0","69d555ce85e30d6215e559d9","not_provided","desktop","0","0","0","","","","","","working_memory","","10234","<div style=""text-align:center;font-family:sans-serif;""><p>Good job! You have finished the practice.</p><p>We will now start the real experiment.</p><p>Please try to be as accurate as possible.</p><p><b><u>Note: random guessing may risk your payment.</u></b></p><br><p><b>Press any key to begin.</b></p></div>"," ","","","","","","","","","","","","","","","","",""
"html-keyboard-response","85","460452","0.0-5.0-5.0-0.0","69d555ce85e30d6215e559d9","not_provided","desktop","0","0","0","","","","","","working_memory","","null","<div class=""fixation"">+</div>","null","","","","","","","","","","","","","","","","",""
"html-keyboard-response","86","460668","0.0-5.0-5.0-1.0","69d555ce85e30d6215e559d9","not_provided","desktop","0","0","0","","","","","","working_memory","","null","<img class='a' src=images/squares/yellow.png><img class='f' src=images/squares/red.png><img class='i' src=images/squares/black.png><img class='l' src=images/squares/blue.png><div class=""fixation"">+</div>","null","","","memory","exp","0","","","","","","","","","","","",""
"html-keyboard-response","87","461581","0.0-5.0-5.0-2.0","69d555ce85e30d6215e559d9","not_provided","desktop","0","0","0","","","","","","working_memory","","null","<div class=""fixation"">+</div>","null","","","","","","","","","","","","","","","","",""
"html-keyboard-response","88","462619","0.0-5.0-5.0-3.0","69d555ce85e30d6215e559d9","not_provided","desktop","0","0","0","","","","","","working_memory","","1036","<img class='l' src=images/squares/blue.png><div class=""fixation"">+</div>","k","","","test_squares","exp","0","4","s","false","sk","s","","","","","","",""
"html-keyboard-response","89","463124","0.0-5.0-5.0-4.0","69d555ce85e30d6215e559d9","not_provided","desktop","0","0","0","","","","","","working_memory","","null","<div class=""fixation"">Incorrect</div>","null","","","","","","","","","","","","","","","","",""
"html-keyboard-response","90","464126","0.0-5.0-5.0-0.1","69d555ce85e30d6215e559d9","not_provided","desktop","0","0","0","","","","","","working_memory","","null","<div class=""fixation"">+</div>","null","","","","","","","","","","","","","","","","",""
"html-keyboard-response","91","464332","0.0-5.0-5.0-1.1","69d555ce85e30d6215e559d9","not_provided","desktop","0","0","0","","","","","","working_memory","","null","<img class='c' src=images/squares/green.png><img class='e' src=images/squares/black.png><img class='h' src=images/squares/red.png><img class='l' src=images/squares/orange.png><div class=""fixation"">+</div>","null","","","memory","exp","1","","","","","","","","","","","",""
"html-keyboard-response","92","465244","0.0-5.0-5.0-2.1","69d555ce85e30d6215e559d9","not_provided","desktop","0","0","0","","","","","","working_memory","","null","<div class=""fixation"">+</div>","null","","","","","","","","","","","","","","","","",""
"html-keyboard-response","93","466152","0.0-5.0-5.0-3.1","69d555ce85e30d6215e559d9","not_provided","desktop","0","0","0","","","","","","working_memory","","907","<img class='c' src=images/squares/green.png><div class=""fixation"">+</div>","s","","","test_squares","exp","1","4","s","true","sk","s","","","","","","",""
"html-keyboard-response","94","466656","0.0-5.0-5.0-4.1","69d555ce85e30d6215e559d9","not_provided","desktop","0","0","0","","","","","","working_memory","","null","<div class=""fixation"">Correct</div>","null","","","","","","","","","","","","","","","","",""
"html-keyboard-response","95","467658","0.0-5.0-5.0-0.2","69d555ce85e30d6215e559d9","not_provided","desktop","0","0","0","","","","","","working_memory","","null","<div class=""fixation"">+</div>","null","","","","","","","","","","","","","","","","",""
"html-keyboard-response","96","467863","0.0-5.0-5.0-1.2","69d555ce85e30d6215e559d9","not_provided","desktop","0","0","0","","","","","","working_memory","","null","<img class='a' src=images/squares/magenta.png><img class='b' src=images/squares/blue.png><img class='f' src=images/squares/orange.png><img class='e' src=images/squares/green.png><img class='g' src=images/squares/yellow.png><img class='i' src=images/squares/brown.png><img class='k' src=images/squares/red.png><img class='j' src=images/squares/cyan.png><div class=""fixation"">+</div>","null","","","memory","exp","2","","","","","","","","","","","",""
"html-keyboard-response","97","468776","0.0-5.0-5.0-2.2","69d555ce85e30d6215e559d9","not_provided","desktop","0","0","0","","","","","","working_memory","","null","<div class=""fixation"">+</div>","null","","","","","","","","","","","","","","","","",""
"html-keyboard-response","98","469677","0.0-5.0-5.0-3.2","69d555ce85e30d6215e559d9","not_provided","desktop","0","0","0","","","","","","working_memory","","901","<img class='i' src=images/squares/brown.png><div class=""fixation"">+</div>","s","","","test_squares","exp","2","8","s","true","sk","s","","","","","","",""
"html-keyboard-response","99","470186","0.0-5.0-5.0-4.2","69d555ce85e30d6215e559d9","not_provided","desktop","0","0","0","","","","","","working_memory","","null","<div class=""fixation"">Correct</div>","null","","","","","","","","","","","","","","","","",""
"html-keyboard-response","100","471200","0.0-5.0-5.0-0.3","69d555ce85e30d6215e559d9","not_provided","desktop","0","0","0","","","","","","working_memory","","null","<div class=""fixation"">+</div>","null","","","","","","","","","","","","","","","","",""
"html-keyboard-response","101","471410","0.0-5.0-5.0-1.3","69d555ce85e30d6215e559d9","not_provided","desktop","0","0","0","","","","","","working_memory","","null","<img class='b' src=images/squares/yellow.png><img class='e' src=images/squares/magenta.png><img class='h' src=images/squares/black.png><img class='k' src=images/squares/red.png><div class=""fixation"">+</div>","null","","","memory","exp","3","","","","","","","","","","","",""
"html-keyboard-response","102","472320","0.0-5.0-5.0-2.3","69d555ce85e30d6215e559d9","not_provided","desktop","0","0","0","","","","","","working_memory","","null","<div class=""fixation"">+</div>","null","","","","","","","","","","","","","","","","",""
"html-keyboard-response","103","473617","0.0-5.0-5.0-3.3","69d555ce85e30d6215e559d9","not_provided","desktop","0","0","0","","","","","","working_memory","","1296","<img class='h' src=images/squares/black.png><div class=""fixation"">+</div>","s","","","test_squares","exp","3","4","s","true","sk","s","","","","","","",""
"html-keyboard-response","104","474119","0.0-5.0-5.0-4.3","69d555ce85e30d6215e559d9","not_provided","desktop","0","0","0","","","","","","working_memory","","null","<div class=""fixation"">Correct</div>","null","","","","","","","","","","","","","","","","",""
"html-keyboard-response","105","475126","0.0-5.0-5.0-0.4","69d555ce85e30d6215e559d9","not_provided","desktop","0","0","0","","","","","","working_memory","","null","<div class=""fixation"">+</div>","null","","","","","","","","","","","","","","","","",""
"html-keyboard-response","106","475341","0.0-5.0-5.0-1.4","69d555ce85e30d6215e559d9","not_provided","desktop","0","0","0","","","","","","working_memory","","null","<img class='a' src=images/squares/green.png><img class='b' src=images/squares/cyan.png><img class='f' src=images/squares/orange.png><img class='e' src=images/squares/yellow.png><img class='h' src=images/squares/brown.png><img class='i' src=images/squares/black.png><img class='k' src=images/squares/red.png><img class='l' src=images/squares/blue.png><div class=""fixation"">+</div>","null","","","memory","exp","4","","","","","","","","","","","",""
"html-keyboard-response","107","476249","0.0-5.0-5.0-2.4","69d555ce85e30d6215e559d9","not_provided","desktop","0","0","0","","","","","","working_memory","","null","<div class=""fixation"">+</div>","null","","","","","","","","","","","","","","","","",""
"html-keyboard-response","108","477301","0.0-5.0-5.0-3.4","69d555ce85e30d6215e559d9","not_provided","desktop","0","0","0","","","","","","working_memory","","1051","<img class='i' src=images/squares/magenta.png><div class=""fixation"">+</div>","k","","","test_squares","exp","4","8","k","true","sk","d","","","","","","",""
"html-keyboard-response","109","477811","0.0-5.0-5.0-4.4","69d555ce85e30d6215e559d9","not_provided","desktop","0","0","0","","","","","","working_memory","","null","<div class=""fixation"">Correct</div>","null","","","","","","","","","","","","","","","","",""
"html-keyboard-response","110","478814","0.0-5.0-5.0-0.5","69d555ce85e30d6215e559d9","not_provided","desktop","0","0","0","","","","","","working_memory","","null","<div class=""fixation"">+</div>","null","","","","","","","","","","","","","","","","",""
"html-keyboard-response","111","479020","0.0-5.0-5.0-1.5","69d555ce85e30d6215e559d9","not_provided","desktop","0","0","0","","","","","","working_memory","","null","<img class='a' src=images/squares/magenta.png><img class='b' src=images/squares/orange.png><img class='e' src=images/squares/green.png><img class='d' src=images/squares/yellow.png><img class='h' src=images/squares/cyan.png><img class='g' src=images/squares/black.png><img class='k' src=images/squares/red.png><img class='j' src=images/squares/blue.png><div class=""fixation"">+</div>","null","","","memory","exp","5","","","","","","","","","","","",""
"html-keyboard-response","112","479934","0.0-5.0-5.0-2.5","69d555ce85e30d6215e559d9","not_provided","desktop","0","0","0","","","","","","working_memory","","null","<div class=""fixation"">+</div>","null","","","","","","","","","","","","","","","","",""
"html-keyboard-response","113","480974","0.0-5.0-5.0-3.5","69d555ce85e30d6215e559d9","not_provided","desktop","0","0","0","","","","","","working_memory","","1040","<img class='g' src=images/squares/black.png><div class=""fixation"">+</div>","s","","","test_squares","exp","5","8","s","true","sk","s","","","","","","",""
"html-keyboard-response","114","481477","0.0-5.0-5.0-4.5","69d555ce85e30d6215e559d9","not_provided","desktop","0","0","0","","","","","","working_memory","","null","<div class=""fixation"">Correct</div>","null","","","","","","","","","","","","","","","","",""
"html-keyboard-response","115","482492","0.0-5.0-5.0-0.6","69d555ce85e30d6215e559d9","not_provided","desktop","0","0","0","","","","","","working_memory","","null","<div class=""fixation"">+</div>","null","","","","","","","","","","","","","","","","",""
"html-keyboard-response","116","482698","0.0-5.0-5.0-1.6","69d555ce85e30d6215e559d9","not_provided","desktop","0","0","0","","","","","","working_memory","","null","<img class='c' src=images/squares/orange.png><img class='b' src=images/squares/brown.png><img class='e' src=images/squares/yellow.png><img class='f' src=images/squares/green.png><img class='g' src=images/squares/red.png><img class='i' src=images/squares/cyan.png><img class='l' src=images/squares/black.png><img class='j' src=images/squares/magenta.png><div class=""fixation"">+</div>","null","","","memory","exp","6","","","","","","","","","","","",""
"html-keyboard-response","117","483605","0.0-5.0-5.0-2.6","69d555ce85e30d6215e559d9","not_provided","desktop","0","0","0","","","","","","working_memory","","null","<div class=""fixation"">+</div>","null","","","","","","","","","","","","","","","","",""
"html-keyboard-response","118","485422","0.0-5.0-5.0-3.6","69d555ce85e30d6215e559d9","not_provided","desktop","0","0","0","","","","","","working_memory","","1817","<img class='g' src=images/squares/red.png><div class=""fixation"">+</div>","k","","","test_squares","exp","6","8","s","false","sk","s","","","","","","",""
"html-keyboard-response","119","485923","0.0-5.0-5.0-4.6","69d555ce85e30d6215e559d9","not_provided","desktop","0","0","0","","","","","","working_memory","","null","<div class=""fixation"">Incorrect</div>","null","","","","","","","","","","","","","","","","",""
"html-keyboard-response","120","486940","0.0-5.0-5.0-0.7","69d555ce85e30d6215e559d9","not_provided","desktop","0","0","0","","","","","","working_memory","","null","<div class=""fixation"">+</div>","null","","","","","","","","","","","","","","","","",""
"html-keyboard-response","121","487146","0.0-5.0-5.0-1.7","69d555ce85e30d6215e559d9","not_provided","desktop","0","0","0","","","","","","working_memory","","null","<img class='c' src=images/squares/blue.png><img class='b' src=images/squares/green.png><img class='f' src=images/squares/cyan.png><img class='d' src=images/squares/black.png><img class='h' src=images/squares/brown.png><img class='i' src=images/squares/red.png><img class='l' src=images/squares/magenta.png><img class='k' src=images/squares/yellow.png><div class=""fixation"">+</div>","null","","","memory","exp","7","","","","","","","","","","","",""
"html-keyboard-response","122","488050","0.0-5.0-5.0-2.7","69d555ce85e30d6215e559d9","not_provided","desktop","0","0","0","","","","","","working_memory","","null","<div class=""fixation"">+</div>","null","","","","","","","","","","","","","","","","",""
"html-keyboard-response","123","489077","0.0-5.0-5.0-3.7","69d555ce85e30d6215e559d9","not_provided","desktop","0","0","0","","","","","","working_memory","","1026","<img class='c' src=images/squares/blue.png><div class=""fixation"">+</div>","s","","","test_squares","exp","7","8","s","true","sk","s","","","","","","",""
"html-keyboard-response","124","489584","0.0-5.0-5.0-4.7","69d555ce85e30d6215e559d9","not_provided","desktop","0","0","0","","","","","","working_memory","","null","<div class=""fixation"">Correct</div>","null","","","","","","","","","","","","","","","","",""
"html-keyboard-response","125","490589","0.0-5.0-5.0-0.8","69d555ce85e30d6215e559d9","not_provided","desktop","0","0","0","","","","","","working_memory","","null","<div class=""fixation"">+</div>","null","","","","","","","","","","","","","","","","",""
"html-keyboard-response","126","490794","0.0-5.0-5.0-1.8","69d555ce85e30d6215e559d9","not_provided","desktop","0","0","0","","","","","","working_memory","","null","<img class='a' src=images/squares/green.png><img class='e' src=images/squares/black.png><img class='i' src=images/squares/blue.png><img class='j' src=images/squares/brown.png><div class=""fixation"">+</div>","null","","","memory","exp","8","","","","","","","","","","","",""
"html-keyboard-response","127","491702","0.0-5.0-5.0-2.8","69d555ce85e30d6215e559d9","not_provided","desktop","0","0","0","","","","","","working_memory","","null","<div class=""fixation"">+</div>","null","","","","","","","","","","","","","","","","",""
"html-keyboard-response","128","492894","0.0-5.0-5.0-3.8","69d555ce85e30d6215e559d9","not_provided","desktop","0","0","0","","","","","","working_memory","","1190","<img class='i' src=images/squares/blue.png><div class=""fixation"">+</div>","k","","","test_squares","exp","8","4","s","false","sk","s","","","","","","",""
"html-keyboard-response","129","493399","0.0-5.0-5.0-4.8","69d555ce85e30d6215e559d9","not_provided","desktop","0","0","0","","","","","","working_memory","","null","<div class=""fixation"">Incorrect</div>","null","","","","","","","","","","","","","","","","",""
"html-keyboard-response","130","494401","0.0-5.0-5.0-0.9","69d555ce85e30d6215e559d9","not_provided","desktop","0","0","0","","","","","","working_memory","","null","<div class=""fixation"">+</div>","null","","","","","","","","","","","","","","","","",""
"html-keyboard-response","131","494606","0.0-5.0-5.0-1.9","69d555ce85e30d6215e559d9","not_provided","desktop","0","0","0","","","","","","working_memory","","null","<img class='a' src=images/squares/orange.png><img class='b' src=images/squares/magenta.png><img class='d' src=images/squares/blue.png><img class='e' src=images/squares/red.png><img class='i' src=images/squares/cyan.png><img class='g' src=images/squares/black.png><img class='l' src=images/squares/green.png><img class='k' src=images/squares/yellow.png><div class=""fixation"">+</div>","null","","","memory","exp","9","","","","","","","","","","","",""
"html-keyboard-response","132","495517","0.0-5.0-5.0-2.9","69d555ce85e30d6215e559d9","not_provided","desktop","0","0","0","","","","","","working_memory","","null","<div class=""fixation"">+</div>","null","","","","","","","","","","","","","","","","",""
"html-keyboard-response","133","496419","0.0-5.0-5.0-3.9","69d555ce85e30d6215e559d9","not_provided","desktop","0","0","0","","","","","","working_memory","","901","<img class='g' src=images/squares/black.png><div class=""fixation"">+</div>","k","","","test_squares","exp","9","8","s","false","sk","s","","","","","","",""
"html-keyboard-response","134","496928","0.0-5.0-5.0-4.9","69d555ce85e30d6215e559d9","not_provided","desktop","0","0","0","","","","","","working_memory","","null","<div class=""fixation"">Incorrect</div>","null","","","","","","","","","","","","","","","","",""
"html-keyboard-response","135","497930","0.0-5.0-5.0-0.10","69d555ce85e30d6215e559d9","not_provided","desktop","0","0","0","","","","","","working_memory","","null","<div class=""fixation"">+</div>","null","","","","","","","","","","","","","","","","",""
"html-keyboard-response","136","498136","0.0-5.0-5.0-1.10","69d555ce85e30d6215e559d9","not_provided","desktop","0","0","0","","","","","","working_memory","","null","<img class='b' src=images/squares/yellow.png><img class='d' src=images/squares/cyan.png><img class='h' src=images/squares/green.png><img class='j' src=images/squares/black.png><div class=""fixation"">+</div>","null","","","memory","exp","10","","","","","","","","","","","",""
"html-keyboard-response","137","499049","0.0-5.0-5.0-2.10","69d555ce85e30d6215e559d9","not_provided","desktop","0","0","0","","","","","","working_memory","","null","<div class=""fixation"">+</div>","null","","","","","","","","","","","","","","","","",""
"html-keyboard-response","138","499886","0.0-5.0-5.0-3.10","69d555ce85e30d6215e559d9","not_provided","desktop","0","0","0","","","","","","working_memory","","836","<img class='h' src=images/squares/green.png><div class=""fixation"">+</div>","s","","","test_squares","exp","10","4","s","true","sk","s","","","","","","",""
"html-keyboard-response","139","500391","0.0-5.0-5.0-4.10","69d555ce85e30d6215e559d9","not_provided","desktop","0","0","0","","","","","","working_memory","","null","<div class=""fixation"">Correct</div>","null","","","","","","","","","","","","","","","","",""
"html-keyboard-response","140","501397","0.0-5.0-5.0-0.11","69d555ce85e30d6215e559d9","not_provided","desktop","0","0","0","","","","","","working_memory","","null","<div class=""fixation"">+</div>","null","","","","","","","","","","","","","","","","",""
"html-keyboard-response","141","501600","0.0-5.0-5.0-1.11","69d555ce85e30d6215e559d9","not_provided","desktop","0","0","0","","","","","","working_memory","","null","<img class='a' src=images/squares/blue.png><img class='b' src=images/squares/orange.png><img class='e' src=images/squares/yellow.png><img class='f' src=images/squares/black.png><img class='h' src=images/squares/magenta.png><img class='g' src=images/squares/green.png><img class='l' src=images/squares/cyan.png><img class='j' src=images/squares/brown.png><div class=""fixation"">+</div>","null","","","memory","exp","11","","","","","","","","","","","",""
"html-keyboard-response","142","502507","0.0-5.0-5.0-2.11","69d555ce85e30d6215e559d9","not_provided","desktop","0","0","0","","","","","","working_memory","","null","<div class=""fixation"">+</div>","null","","","","","","","","","","","","","","","","",""
"html-keyboard-response","143","503446","0.0-5.0-5.0-3.11","69d555ce85e30d6215e559d9","not_provided","desktop","0","0","0","","","","","","working_memory","","938","<img class='b' src=images/squares/red.png><div class=""fixation"">+</div>","s","","","test_squares","exp","11","8","k","false","sk","d","","","","","","",""
"html-keyboard-response","144","503958","0.0-5.0-5.0-4.11","69d555ce85e30d6215e559d9","not_provided","desktop","0","0","0","","","","","","working_memory","","null","<div class=""fixation"">Incorrect</div>","null","","","","","","","","","","","","","","","","",""
"html-keyboard-response","145","504972","0.0-5.0-5.0-0.12","69d555ce85e30d6215e559d9","not_provided","desktop","0","0","0","","","","","","working_memory","","null","<div class=""fixation"">+</div>","null","","","","","","","","","","","","","","","","",""
"html-keyboard-response","146","505179","0.0-5.0-5.0-1.12","69d555ce85e30d6215e559d9","not_provided","desktop","0","0","0","","","","","","working_memory","","null","<img class='a' src=images/squares/orange.png><img class='c' src=images/squares/green.png><img class='d' src=images/squares/magenta.png><img class='e' src=images/squares/blue.png><img class='h' src=images/squares/yellow.png><img class='i' src=images/squares/cyan.png><img class='k' src=images/squares/black.png><img class='l' src=images/squares/brown.png><div class=""fixation"">+</div>","null","","","memory","exp","12","","","","","","","","","","","",""
"html-keyboard-response","147","506092","0.0-5.0-5.0-2.12","69d555ce85e30d6215e559d9","not_provided","desktop","0","0","0","","","","","","working_memory","","null","<div class=""fixation"">+</div>","null","","","","","","","","","","","","","","","","",""
"html-keyboard-response","148","507238","0.0-5.0-5.0-3.12","69d555ce85e30d6215e559d9","not_provided","desktop","0","0","0","","","","","","working_memory","","1145","<img class='d' src=images/squares/red.png><div class=""fixation"">+</div>","k","","","test_squares","exp","12","8","k","true","sk","d","","","","","","",""
"html-keyboard-response","149","507751","0.0-5.0-5.0-4.12","69d555ce85e30d6215e559d9","not_provided","desktop","0","0","0","","","","","","working_memory","","null","<div class=""fixation"">Correct</div>","null","","","","","","","","","","","","","","","","",""
"html-keyboard-response","150","508754","0.0-5.0-5.0-0.13","69d555ce85e30d6215e559d9","not_provided","desktop","0","0","0","","","","","","working_memory","","null","<div class=""fixation"">+</div>","null","","","","","","","","","","","","","","","","",""
"html-keyboard-response","151","508958","0.0-5.0-5.0-1.13","69d555ce85e30d6215e559d9","not_provided","desktop","0","0","0","","","","","","working_memory","","null","<img class='b' src=images/squares/black.png><img class='c' src=images/squares/brown.png><img class='e' src=images/squares/red.png><img class='f' src=images/squares/magenta.png><img class='g' src=images/squares/cyan.png><img class='h' src=images/squares/green.png><img class='k' src=images/squares/blue.png><img class='j' src=images/squares/orange.png><div class=""fixation"">+</div>","null","","","memory","exp","13","","","","","","","","","","","",""
"html-keyboard-response","152","509869","0.0-5.0-5.0-2.13","69d555ce85e30d6215e559d9","not_provided","desktop","0","0","0","","","","","","working_memory","","null","<div class=""fixation"">+</div>","null","","","","","","","","","","","","","","","","",""
"html-keyboard-response","153","511461","0.0-5.0-5.0-3.13","69d555ce85e30d6215e559d9","not_provided","desktop","0","0","0","","","","","","working_memory","","1591","<img class='k' src=images/squares/blue.png><div class=""fixation"">+</div>","k","","","test_squares","exp","13","8","s","false","sk","s","","","","","","",""
"html-keyboard-response","154","511965","0.0-5.0-5.0-4.13","69d555ce85e30d6215e559d9","not_provided","desktop","0","0","0","","","","","","working_memory","","null","<div class=""fixation"">Incorrect</div>","null","","","","","","","","","","","","","","","","",""
"html-keyboard-response","155","512981","0.0-5.0-5.0-0.14","69d555ce85e30d6215e559d9","not_provided","desktop","0","0","0","","","","","","working_memory","","null","<div class=""fixation"">+</div>","null","","","","","","","","","","","","","","","","",""
"html-keyboard-response","156","513189","0.0-5.0-5.0-1.14","69d555ce85e30d6215e559d9","not_provided","desktop","0","0","0","","","","","","working_memory","","null","<img class='b' src=images/squares/green.png><img class='f' src=images/squares/yellow.png><img class='i' src=images/squares/black.png><img class='l' src=images/squares/blue.png><div class=""fixation"">+</div>","null","","","memory","exp","14","","","","","","","","","","","",""
"html-keyboard-response","157","514100","0.0-5.0-5.0-2.14","69d555ce85e30d6215e559d9","not_provided","desktop","0","0","0","","","","","","working_memory","","null","<div class=""fixation"">+</div>","null","","","","","","","","","","","","","","","","",""
"html-keyboard-response","158","515077","0.0-5.0-5.0-3.14","69d555ce85e30d6215e559d9","not_provided","desktop","0","0","0","","","","","","working_memory","","977","<img class='l' src=images/squares/blue.png><div class=""fixation"">+</div>","s","","","test_squares","exp","14","4","s","true","sk","s","","","","","","",""
"html-keyboard-response","159","515579","0.0-5.0-5.0-4.14","69d555ce85e30d6215e559d9","not_provided","desktop","0","0","0","","","","","","working_memory","","null","<div class=""fixation"">Correct</div>","null","","","","","","","","","","","","","","","","",""
"html-keyboard-response","160","516596","0.0-5.0-5.0-0.15","69d555ce85e30d6215e559d9","not_provided","desktop","0","0","0","","","","","","working_memory","","null","<div class=""fixation"">+</div>","null","","","","","","","","","","","","","","","","",""
"html-keyboard-response","161","516802","0.0-5.0-5.0-1.15","69d555ce85e30d6215e559d9","not_provided","desktop","0","0","0","","","","","","working_memory","","null","<img class='b' src=images/squares/orange.png><img class='d' src=images/squares/blue.png><img class='h' src=images/squares/cyan.png><img class='j' src=images/squares/magenta.png><div class=""fixation"">+</div>","null","","","memory","exp","15","","","","","","","","","","","",""
"html-keyboard-response","162","517712","0.0-5.0-5.0-2.15","69d555ce85e30d6215e559d9","not_provided","desktop","0","0","0","","","","","","working_memory","","null","<div class=""fixation"">+</div>","null","","","","","","","","","","","","","","","","",""
"html-keyboard-response","163","519190","0.0-5.0-5.0-3.15","69d555ce85e30d6215e559d9","not_provided","desktop","0","0","0","","","","","","working_memory","","1477","<img class='j' src=images/squares/black.png><div class=""fixation"">+</div>","s","","","test_squares","exp","15","4","k","false","sk","d","","","","","","",""
"html-keyboard-response","164","519692","0.0-5.0-5.0-4.15","69d555ce85e30d6215e559d9","not_provided","desktop","0","0","0","","","","","","working_memory","","null","<div class=""fixation"">Incorrect</div>","null","","","","","","","","","","","","","","","","",""
"html-keyboard-response","165","520696","0.0-5.0-5.0-0.16","69d555ce85e30d6215e559d9","not_provided","desktop","0","0","0","","","","","","working_memory","","null","<div class=""fixation"">+</div>","null","","","","","","","","","","","","","","","","",""
"html-keyboard-response","166","520898","0.0-5.0-5.0-1.16","69d555ce85e30d6215e559d9","not_provided","desktop","0","0","0","","","","","","working_memory","","null","<img class='c' src=images/squares/magenta.png><img class='a' src=images/squares/brown.png><img class='e' src=images/squares/yellow.png><img class='f' src=images/squares/green.png><img class='g' src=images/squares/cyan.png><img class='h' src=images/squares/black.png><img class='l' src=images/squares/orange.png><img class='j' src=images/squares/red.png><div class=""fixation"">+</div>","null","","","memory","exp","16","","","","","","","","","","","",""
"html-keyboard-response","167","521813","0.0-5.0-5.0-2.16","69d555ce85e30d6215e559d9","not_provided","desktop","0","0","0","","","","","","working_memory","","null","<div class=""fixation"">+</div>","null","","","","","","","","","","","","","","","","",""
"html-keyboard-response","168","522791","0.0-5.0-5.0-3.16","69d555ce85e30d6215e559d9","not_provided","desktop","0","0","0","","","","","","working_memory","","977","<img class='g' src=images/squares/blue.png><div class=""fixation"">+</div>","s","","","test_squares","exp","16","8","k","false","sk","d","","","","","","",""
"html-keyboard-response","169","523306","0.0-5.0-5.0-4.16","69d555ce85e30d6215e559d9","not_provided","desktop","0","0","0","","","","","","working_memory","","null","<div class=""fixation"">Incorrect</div>","null","","","","","","","","","","","","","","","","",""
"html-keyboard-response","170","524319","0.0-5.0-5.0-0.17","69d555ce85e30d6215e559d9","not_provided","desktop","0","0","0","","","","","","working_memory","","null","<div class=""fixation"">+</div>","null","","","","","","","","","","","","","","","","",""
"html-keyboard-response","171","524529","0.0-5.0-5.0-1.17","69d555ce85e30d6215e559d9","not_provided","desktop","0","0","0","","","","","","working_memory","","null","<img class='b' src=images/squares/yellow.png><img class='d' src=images/squares/cyan.png><img class='h' src=images/squares/brown.png><img class='l' src=images/squares/green.png><div class=""fixation"">+</div>","null","","","memory","exp","17","","","","","","","","","","","",""
"html-keyboard-response","172","525439","0.0-5.0-5.0-2.17","69d555ce85e30d6215e559d9","not_provided","desktop","0","0","0","","","","","","working_memory","","null","<div class=""fixation"">+</div>","null","","","","","","","","","","","","","","","","",""
"html-keyboard-response","173","526585","0.0-5.0-5.0-3.17","69d555ce85e30d6215e559d9","not_provided","desktop","0","0","0","","","","","","working_memory","","1145","<img class='l' src=images/squares/magenta.png><div class=""fixation"">+</div>","k","","","test_squares","exp","17","4","k","true","sk","d","","","","","","",""
"html-keyboard-response","174","527101","0.0-5.0-5.0-4.17","69d555ce85e30d6215e559d9","not_provided","desktop","0","0","0","","","","","","working_memory","","null","<div class=""fixation"">Correct</div>","null","","","","","","","","","","","","","","","","",""
"html-keyboard-response","175","528103","0.0-5.0-5.0-0.18","69d555ce85e30d6215e559d9","not_provided","desktop","0","0","0","","","","","","working_memory","","null","<div class=""fixation"">+</div>","null","","","","","","","","","","","","","","","","",""
"html-keyboard-response","176","528309","0.0-5.0-5.0-1.18","69d555ce85e30d6215e559d9","not_provided","desktop","0","0","0","","","","","","working_memory","","null","<img class='a' src=images/squares/green.png><img class='b' src=images/squares/blue.png><img class='e' src=images/squares/yellow.png><img class='d' src=images/squares/brown.png><img class='g' src=images/squares/red.png><img class='i' src=images/squares/black.png><img class='j' src=images/squares/magenta.png><img class='k' src=images/squares/cyan.png><div class=""fixation"">+</div>","null","","","memory","exp","18","","","","","","","","","","","",""
"html-keyboard-response","177","529222","0.0-5.0-5.0-2.18","69d555ce85e30d6215e559d9","not_provided","desktop","0","0","0","","","","","","working_memory","","null","<div class=""fixation"">+</div>","null","","","","","","","","","","","","","","","","",""
"html-keyboard-response","178","530494","0.0-5.0-5.0-3.18","69d555ce85e30d6215e559d9","not_provided","desktop","0","0","0","","","","","","working_memory","","1271","<img class='i' src=images/squares/black.png><div class=""fixation"">+</div>","s","","","test_squares","exp","18","8","s","true","sk","s","","","","","","",""
"html-keyboard-response","179","530999","0.0-5.0-5.0-4.18","69d555ce85e30d6215e559d9","not_provided","desktop","0","0","0","","","","","","working_memory","","null","<div class=""fixation"">Correct</div>","null","","","","","","","","","","","","","","","","",""
"html-keyboard-response","180","532014","0.0-5.0-5.0-0.19","69d555ce85e30d6215e559d9","not_provided","desktop","0","0","0","","","","","","working_memory","","null","<div class=""fixation"">+</div>","null","","","","","","","","","","","","","","","","",""
"html-keyboard-response","181","532222","0.0-5.0-5.0-1.19","69d555ce85e30d6215e559d9","not_provided","desktop","0","0","0","","","","","","working_memory","","null","<img class='a' src=images/squares/red.png><img class='e' src=images/squares/orange.png><img class='h' src=images/squares/yellow.png><img class='l' src=images/squares/cyan.png><div class=""fixation"">+</div>","null","","","memory","exp","19","","","","","","","","","","","",""
"html-keyboard-response","182","533135","0.0-5.0-5.0-2.19","69d555ce85e30d6215e559d9","not_provided","desktop","0","0","0","","","","","","working_memory","","null","<div class=""fixation"">+</div>","null","","","","","","","","","","","","","","","","",""
"html-keyboard-response","183","534293","0.0-5.0-5.0-3.19","69d555ce85e30d6215e559d9","not_provided","desktop","0","0","0","","","","","","working_memory","","1157","<img class='l' src=images/squares/cyan.png><div class=""fixation"">+</div>","s","","","test_squares","exp","19","4","s","true","sk","s","","","","","","",""
"html-keyboard-response","184","534795","0.0-5.0-5.0-4.19","69d555ce85e30d6215e559d9","not_provided","desktop","0","0","0","","","","","","working_memory","","null","<div class=""fixation"">Correct</div>","null","","","","","","","","","","","","","","","","",""
"html-keyboard-response","185","535811","0.0-5.0-5.0-0.20","69d555ce85e30d6215e559d9","not_provided","desktop","0","0","0","","","","","","working_memory","","null","<div class=""fixation"">+</div>","null","","","","","","","","","","","","","","","","",""
"html-keyboard-response","186","536019","0.0-5.0-5.0-1.20","69d555ce85e30d6215e559d9","not_provided","desktop","0","0","0","","","","","","working_memory","","null","<img class='a' src=images/squares/black.png><img class='f' src=images/squares/brown.png><img class='g' src=images/squares/blue.png><img class='k' src=images/squares/yellow.png><div class=""fixation"">+</div>","null","","","memory","exp","20","","","","","","","","","","","",""
"html-keyboard-response","187","536929","0.0-5.0-5.0-2.20","69d555ce85e30d6215e559d9","not_provided","desktop","0","0","0","","","","","","working_memory","","null","<div class=""fixation"">+</div>","null","","","","","","","","","","","","","","","","",""
"html-keyboard-response","188","538084","0.0-5.0-5.0-3.20","69d555ce85e30d6215e559d9","not_provided","desktop","0","0","0","","","","","","working_memory","","1154","<img class='f' src=images/squares/red.png><div class=""fixation"">+</div>","s","","","test_squares","exp","20","4","k","false","sk","d","","","","","","",""
"html-keyboard-response","189","538590","0.0-5.0-5.0-4.20","69d555ce85e30d6215e559d9","not_provided","desktop","0","0","0","","","","","","working_memory","","null","<div class=""fixation"">Incorrect</div>","null","","","","","","","","","","","","","","","","",""
"html-keyboard-response","190","539594","0.0-5.0-5.0-0.21","69d555ce85e30d6215e559d9","not_provided","desktop","0","0","0","","","","","","working_memory","","null","<div class=""fixation"">+</div>","null","","","","","","","","","","","","","","","","",""
"html-keyboard-response","191","539799","0.0-5.0-5.0-1.21","69d555ce85e30d6215e559d9","not_provided","desktop","0","0","0","","","","","","working_memory","","null","<img class='c' src=images/squares/red.png><img class='a' src=images/squares/magenta.png><img class='e' src=images/squares/cyan.png><img class='d' src=images/squares/blue.png><img class='g' src=images/squares/orange.png><img class='h' src=images/squares/brown.png><img class='l' src=images/squares/black.png><img class='j' src=images/squares/yellow.png><div class=""fixation"">+</div>","null","","","memory","exp","21","","","","","","","","","","","",""
"html-keyboard-response","192","540709","0.0-5.0-5.0-2.21","69d555ce85e30d6215e559d9","not_provided","desktop","0","0","0","","","","","","working_memory","","null","<div class=""fixation"">+</div>","null","","","","","","","","","","","","","","","","",""
"html-keyboard-response","193","541764","0.0-5.0-5.0-3.21","69d555ce85e30d6215e559d9","not_provided","desktop","0","0","0","","","","","","working_memory","","1054","<img class='a' src=images/squares/green.png><div class=""fixation"">+</div>","s","","","test_squares","exp","21","8","k","false","sk","d","","","","","","",""
"html-keyboard-response","194","542270","0.0-5.0-5.0-4.21","69d555ce85e30d6215e559d9","not_provided","desktop","0","0","0","","","","","","working_memory","","null","<div class=""fixation"">Incorrect</div>","null","","","","","","","","","","","","","","","","",""
"html-keyboard-response","195","543286","0.0-5.0-5.0-0.22","69d555ce85e30d6215e559d9","not_provided","desktop","0","0","0","","","","","","working_memory","","null","<div class=""fixation"">+</div>","null","","","","","","","","","","","","","","","","",""
"html-keyboard-response","196","543494","0.0-5.0-5.0-1.22","69d555ce85e30d6215e559d9","not_provided","desktop","0","0","0","","","","","","working_memory","","null","<img class='a' src=images/squares/brown.png><img class='d' src=images/squares/green.png><img class='i' src=images/squares/red.png><img class='l' src=images/squares/orange.png><div class=""fixation"">+</div>","null","","","memory","exp","22","","","","","","","","","","","",""
"html-keyboard-response","197","544404","0.0-5.0-5.0-2.22","69d555ce85e30d6215e559d9","not_provided","desktop","0","0","0","","","","","","working_memory","","null","<div class=""fixation"">+</div>","null","","","","","","","","","","","","","","","","",""
"html-keyboard-response","198","545486","0.0-5.0-5.0-3.22","69d555ce85e30d6215e559d9","not_provided","desktop","0","0","0","","","","","","working_memory","","1081","<img class='i' src=images/squares/black.png><div class=""fixation"">+</div>","k","","","test_squares","exp","22","4","k","true","sk","d","","","","","","",""
"html-keyboard-response","199","546000","0.0-5.0-5.0-4.22","69d555ce85e30d6215e559d9","not_provided","desktop","0","0","0","","","","","","working_memory","","null","<div class=""fixation"">Correct</div>","null","","","","","","","","","","","","","","","","",""
"html-keyboard-response","200","547016","0.0-5.0-5.0-0.23","69d555ce85e30d6215e559d9","not_provided","desktop","0","0","0","","","","","","working_memory","","null","<div class=""fixation"">+</div>","null","","","","","","","","","","","","","","","","",""
"html-keyboard-response","201","547226","0.0-5.0-5.0-1.23","69d555ce85e30d6215e559d9","not_provided","desktop","0","0","0","","","","","","working_memory","","null","<img class='a' src=images/squares/yellow.png><img class='c' src=images/squares/green.png><img class='e' src=images/squares/cyan.png><img class='f' src=images/squares/blue.png><img class='h' src=images/squares/orange.png><img class='i' src=images/squares/brown.png><img class='k' src=images/squares/magenta.png><img class='l' src=images/squares/black.png><div class=""fixation"">+</div>","null","","","memory","exp","23","","","","","","","","","","","",""
"html-keyboard-response","202","548133","0.0-5.0-5.0-2.23","69d555ce85e30d6215e559d9","not_provided","desktop","0","0","0","","","","","","working_memory","","null","<div class=""fixation"">+</div>","null","","","","","","","","","","","","","","","","",""
"html-keyboard-response","203","549381","0.0-5.0-5.0-3.23","69d555ce85e30d6215e559d9","not_provided","desktop","0","0","0","","","","","","working_memory","","1248","<img class='e' src=images/squares/cyan.png><div class=""fixation"">+</div>","k","","","test_squares","exp","23","8","s","false","sk","s","","","","","","",""
"html-keyboard-response","204","549895","0.0-5.0-5.0-4.23","69d555ce85e30d6215e559d9","not_provided","desktop","0","0","0","","","","","","working_memory","","null","<div class=""fixation"">Incorrect</div>","null","","","","","","","","","","","","","","","","",""
"html-keyboard-response","205","550901","0.0-5.0-5.0-0.24","69d555ce85e30d6215e559d9","not_provided","desktop","0","0","0","","","","","","working_memory","","null","<div class=""fixation"">+</div>","null","","","","","","","","","","","","","","","","",""
"html-keyboard-response","206","551104","0.0-5.0-5.0-1.24","69d555ce85e30d6215e559d9","not_provided","desktop","0","0","0","","","","","","working_memory","","null","<img class='b' src=images/squares/green.png><img class='f' src=images/squares/yellow.png><img class='i' src=images/squares/red.png><img class='l' src=images/squares/blue.png><div class=""fixation"">+</div>","null","","","memory","exp","24","","","","","","","","","","","",""
"html-keyboard-response","207","552016","0.0-5.0-5.0-2.24","69d555ce85e30d6215e559d9","not_provided","desktop","0","0","0","","","","","","working_memory","","null","<div class=""fixation"">+</div>","null","","","","","","","","","","","","","","","","",""
"html-keyboard-response","208","552905","0.0-5.0-5.0-3.24","69d555ce85e30d6215e559d9","not_provided","desktop","0","0","0","","","","","","working_memory","","888","<img class='b' src=images/squares/orange.png><div class=""fixation"">+</div>","k","","","test_squares","exp","24","4","k","true","sk","d","","","","","","",""
"html-keyboard-response","209","553408","0.0-5.0-5.0-4.24","69d555ce85e30d6215e559d9","not_provided","desktop","0","0","0","","","","","","working_memory","","null","<div class=""fixation"">Correct</div>","null","","","","","","","","","","","","","","","","",""
"html-keyboard-response","210","554422","0.0-5.0-5.0-0.25","69d555ce85e30d6215e559d9","not_provided","desktop","0","0","0","","","","","","working_memory","","null","<div class=""fixation"">+</div>","null","","","","","","","","","","","","","","","","",""
"html-keyboard-response","211","554636","0.0-5.0-5.0-1.25","69d555ce85e30d6215e559d9","not_provided","desktop","0","0","0","","","","","","working_memory","","null","<img class='b' src=images/squares/orange.png><img class='a' src=images/squares/blue.png><img class='e' src=images/squares/cyan.png><img class='f' src=images/squares/brown.png><img class='i' src=images/squares/black.png><img class='h' src=images/squares/green.png><img class='l' src=images/squares/yellow.png><img class='j' src=images/squares/red.png><div class=""fixation"">+</div>","null","","","memory","exp","25","","","","","","","","","","","",""
"html-keyboard-response","212","555545","0.0-5.0-5.0-2.25","69d555ce85e30d6215e559d9","not_provided","desktop","0","0","0","","","","","","working_memory","","null","<div class=""fixation"">+</div>","null","","","","","","","","","","","","","","","","",""
"html-keyboard-response","213","556561","0.0-5.0-5.0-3.25","69d555ce85e30d6215e559d9","not_provided","desktop","0","0","0","","","","","","working_memory","","1015","<img class='l' src=images/squares/yellow.png><div class=""fixation"">+</div>","s","","","test_squares","exp","25","8","s","true","sk","s","","","","","","",""
"html-keyboard-response","214","557073","0.0-5.0-5.0-4.25","69d555ce85e30d6215e559d9","not_provided","desktop","0","0","0","","","","","","working_memory","","null","<div class=""fixation"">Correct</div>","null","","","","","","","","","","","","","","","","",""
"html-keyboard-response","215","558078","0.0-5.0-5.0-0.26","69d555ce85e30d6215e559d9","not_provided","desktop","0","0","0","","","","","","working_memory","","null","<div class=""fixation"">+</div>","null","","","","","","","","","","","","","","","","",""
"html-keyboard-response","216","558282","0.0-5.0-5.0-1.26","69d555ce85e30d6215e559d9","not_provided","desktop","0","0","0","","","","","","working_memory","","null","<img class='a' src=images/squares/black.png><img class='b' src=images/squares/blue.png><img class='d' src=images/squares/orange.png><img class='e' src=images/squares/brown.png><img class='i' src=images/squares/red.png><img class='g' src=images/squares/cyan.png><img class='j' src=images/squares/magenta.png><img class='k' src=images/squares/yellow.png><div class=""fixation"">+</div>","null","","","memory","exp","26","","","","","","","","","","","",""
"html-keyboard-response","217","559194","0.0-5.0-5.0-2.26","69d555ce85e30d6215e559d9","not_provided","desktop","0","0","0","","","","","","working_memory","","null","<div class=""fixation"">+</div>","null","","","","","","","","","","","","","","","","",""
"html-keyboard-response","218","560206","0.0-5.0-5.0-3.26","69d555ce85e30d6215e559d9","not_provided","desktop","0","0","0","","","","","","working_memory","","1012","<img class='k' src=images/squares/green.png><div class=""fixation"">+</div>","k","","","test_squares","exp","26","8","k","true","sk","d","","","","","","",""
"html-keyboard-response","219","560720","0.0-5.0-5.0-4.26","69d555ce85e30d6215e559d9","not_provided","desktop","0","0","0","","","","","","working_memory","","null","<div class=""fixation"">Correct</div>","null","","","","","","","","","","","","","","","","",""
"html-keyboard-response","220","561736","0.0-5.0-5.0-0.27","69d555ce85e30d6215e559d9","not_provided","desktop","0","0","0","","","","","","working_memory","","null","<div class=""fixation"">+</div>","null","","","","","","","","","","","","","","","","",""
"html-keyboard-response","221","561945","0.0-5.0-5.0-1.27","69d555ce85e30d6215e559d9","not_provided","desktop","0","0","0","","","","","","working_memory","","null","<img class='c' src=images/squares/yellow.png><img class='b' src=images/squares/green.png><img class='e' src=images/squares/magenta.png><img class='f' src=images/squares/cyan.png><img class='h' src=images/squares/blue.png><img class='i' src=images/squares/black.png><img class='l' src=images/squares/orange.png><img class='j' src=images/squares/brown.png><div class=""fixation"">+</div>","null","","","memory","exp","27","","","","","","","","","","","",""
"html-keyboard-response","222","562853","0.0-5.0-5.0-2.27","69d555ce85e30d6215e559d9","not_provided","desktop","0","0","0","","","","","","working_memory","","null","<div class=""fixation"">+</div>","null","","","","","","","","","","","","","","","","",""
"html-keyboard-response","223","564172","0.0-5.0-5.0-3.27","69d555ce85e30d6215e559d9","not_provided","desktop","0","0","0","","","","","","working_memory","","1318","<img class='j' src=images/squares/red.png><div class=""fixation"">+</div>","k","","","test_squares","exp","27","8","k","true","sk","d","","","","","","",""
"html-keyboard-response","224","564680","0.0-5.0-5.0-4.27","69d555ce85e30d6215e559d9","not_provided","desktop","0","0","0","","","","","","working_memory","","null","<div class=""fixation"">Correct</div>","null","","","","","","","","","","","","","","","","",""
"html-keyboard-response","225","565686","0.0-5.0-5.0-0.28","69d555ce85e30d6215e559d9","not_provided","desktop","0","0","0","","","","","","working_memory","","null","<div class=""fixation"">+</div>","null","","","","","","","","","","","","","","","","",""
"html-keyboard-response","226","565892","0.0-5.0-5.0-1.28","69d555ce85e30d6215e559d9","not_provided","desktop","0","0","0","","","","","","working_memory","","null","<img class='c' src=images/squares/red.png><img class='d' src=images/squares/orange.png><img class='i' src=images/squares/brown.png><img class='l' src=images/squares/magenta.png><div class=""fixation"">+</div>","null","","","memory","exp","28","","","","","","","","","","","",""
"html-keyboard-response","227","566798","0.0-5.0-5.0-2.28","69d555ce85e30d6215e559d9","not_provided","desktop","0","0","0","","","","","","working_memory","","null","<div class=""fixation"">+</div>","null","","","","","","","","","","","","","","","","",""
"html-keyboard-response","228","567992","0.0-5.0-5.0-3.28","69d555ce85e30d6215e559d9","not_provided","desktop","0","0","0","","","","","","working_memory","","1193","<img class='i' src=images/squares/black.png><div class=""fixation"">+</div>","k","","","test_squares","exp","28","4","k","true","sk","d","","","","","","",""
"html-keyboard-response","229","568498","0.0-5.0-5.0-4.28","69d555ce85e30d6215e559d9","not_provided","desktop","0","0","0","","","","","","working_memory","","null","<div class=""fixation"">Correct</div>","null","","","","","","","","","","","","","","","","",""
"html-keyboard-response","230","569510","0.0-5.0-5.0-0.29","69d555ce85e30d6215e559d9","not_provided","desktop","0","0","0","","","","","","working_memory","","null","<div class=""fixation"">+</div>","null","","","","","","","","","","","","","","","","",""
"html-keyboard-response","231","569721","0.0-5.0-5.0-1.29","69d555ce85e30d6215e559d9","not_provided","desktop","0","0","0","","","","","","working_memory","","null","<img class='c' src=images/squares/red.png><img class='a' src=images/squares/blue.png><img class='f' src=images/squares/cyan.png><img class='d' src=images/squares/magenta.png><img class='g' src=images/squares/brown.png><img class='i' src=images/squares/orange.png><img class='k' src=images/squares/yellow.png><img class='j' src=images/squares/green.png><div class=""fixation"">+</div>","null","","","memory","exp","29","","","","","","","","","","","",""
"html-keyboard-response","232","570630","0.0-5.0-5.0-2.29","69d555ce85e30d6215e559d9","not_provided","desktop","0","0","0","","","","","","working_memory","","null","<div class=""fixation"">+</div>","null","","","","","","","","","","","","","","","","",""
"html-keyboard-response","233","571830","0.0-5.0-5.0-3.29","69d555ce85e30d6215e559d9","not_provided","desktop","0","0","0","","","","","","working_memory","","1199","<img class='g' src=images/squares/brown.png><div class=""fixation"">+</div>","s","","","test_squares","exp","29","8","s","true","sk","s","","","","","","",""
"html-keyboard-response","234","572343","0.0-5.0-5.0-4.29","69d555ce85e30d6215e559d9","not_provided","desktop","0","0","0","","","","","","working_memory","","null","<div class=""fixation"">Correct</div>","null","","","","","","","","","","","","","","","","",""
"html-keyboard-response","235","573359","0.0-5.0-5.0-0.30","69d555ce85e30d6215e559d9","not_provided","desktop","0","0","0","","","","","","working_memory","","null","<div class=""fixation"">+</div>","null","","","","","","","","","","","","","","","","",""
"html-keyboard-response","236","573569","0.0-5.0-5.0-1.30","69d555ce85e30d6215e559d9","not_provided","desktop","0","0","0","","","","","","working_memory","","null","<img class='c' src=images/squares/cyan.png><img class='f' src=images/squares/yellow.png><img class='h' src=images/squares/blue.png><img class='k' src=images/squares/brown.png><div class=""fixation"">+</div>","null","","","memory","exp","30","","","","","","","","","","","",""
"html-keyboard-response","237","574479","0.0-5.0-5.0-2.30","69d555ce85e30d6215e559d9","not_provided","desktop","0","0","0","","","","","","working_memory","","null","<div class=""fixation"">+</div>","null","","","","","","","","","","","","","","","","",""
"html-keyboard-response","238","575311","0.0-5.0-5.0-3.30","69d555ce85e30d6215e559d9","not_provided","desktop","0","0","0","","","","","","working_memory","","832","<img class='c' src=images/squares/cyan.png><div class=""fixation"">+</div>","s","","","test_squares","exp","30","4","s","true","sk","s","","","","","","",""
"html-keyboard-response","239","575824","0.0-5.0-5.0-4.30","69d555ce85e30d6215e559d9","not_provided","desktop","0","0","0","","","","","","working_memory","","null","<div class=""fixation"">Correct</div>","null","","","","","","","","","","","","","","","","",""
"html-keyboard-response","240","576840","0.0-5.0-5.0-0.31","69d555ce85e30d6215e559d9","not_provided","desktop","0","0","0","","","","","","working_memory","","null","<div class=""fixation"">+</div>","null","","","","","","","","","","","","","","","","",""
"html-keyboard-response","241","577047","0.0-5.0-5.0-1.31","69d555ce85e30d6215e559d9","not_provided","desktop","0","0","0","","","","","","working_memory","","null","<img class='b' src=images/squares/magenta.png><img class='e' src=images/squares/black.png><img class='i' src=images/squares/yellow.png><img class='k' src=images/squares/blue.png><div class=""fixation"">+</div>","null","","","memory","exp","31","","","","","","","","","","","",""
"html-keyboard-response","242","577961","0.0-5.0-5.0-2.31","69d555ce85e30d6215e559d9","not_provided","desktop","0","0","0","","","","","","working_memory","","null","<div class=""fixation"">+</div>","null","","","","","","","","","","","","","","","","",""
"html-keyboard-response","243","578956","0.0-5.0-5.0-3.31","69d555ce85e30d6215e559d9","not_provided","desktop","0","0","0","","","","","","working_memory","","994","<img class='i' src=images/squares/cyan.png><div class=""fixation"">+</div>","k","","","test_squares","exp","31","4","k","true","sk","d","","","","","","",""
"html-keyboard-response","244","579471","0.0-5.0-5.0-4.31","69d555ce85e30d6215e559d9","not_provided","desktop","0","0","0","","","","","","working_memory","","null","<div class=""fixation"">Correct</div>","null","","","","","","","","","","","","","","","","",""
"html-keyboard-response","245","580483","0.0-5.0-5.0-0.32","69d555ce85e30d6215e559d9","not_provided","desktop","0","0","0","","","","","","working_memory","","null","<div class=""fixation"">+</div>","null","","","","","","","","","","","","","","","","",""
"html-keyboard-response","246","580695","0.0-5.0-5.0-1.32","69d555ce85e30d6215e559d9","not_provided","desktop","0","0","0","","","","","","working_memory","","null","<img class='a' src=images/squares/blue.png><img class='c' src=images/squares/cyan.png><img class='e' src=images/squares/yellow.png><img class='f' src=images/squares/red.png><img class='h' src=images/squares/orange.png><img class='g' src=images/squares/green.png><img class='j' src=images/squares/magenta.png><img class='l' src=images/squares/black.png><div class=""fixation"">+</div>","null","","","memory","exp","32","","","","","","","","","","","",""
"html-keyboard-response","247","581605","0.0-5.0-5.0-2.32","69d555ce85e30d6215e559d9","not_provided","desktop","0","0","0","","","","","","working_memory","","null","<div class=""fixation"">+</div>","null","","","","","","","","","","","","","","","","",""
"html-keyboard-response","248","582803","0.0-5.0-5.0-3.32","69d555ce85e30d6215e559d9","not_provided","desktop","0","0","0","","","","","","working_memory","","1197","<img class='e' src=images/squares/yellow.png><div class=""fixation"">+</div>","k","","","test_squares","exp","32","8","s","false","sk","s","","","","","","",""
"html-keyboard-response","249","583317","0.0-5.0-5.0-4.32","69d555ce85e30d6215e559d9","not_provided","desktop","0","0","0","","","","","","working_memory","","null","<div class=""fixation"">Incorrect</div>","null","","","","","","","","","","","","","","","","",""
"html-keyboard-response","250","584321","0.0-5.0-5.0-0.33","69d555ce85e30d6215e559d9","not_provided","desktop","0","0","0","","","","","","working_memory","","null","<div class=""fixation"">+</div>","null","","","","","","","","","","","","","","","","",""
"html-keyboard-response","251","584526","0.0-5.0-5.0-1.33","69d555ce85e30d6215e559d9","not_provided","desktop","0","0","0","","","","","","working_memory","","null","<img class='a' src=images/squares/yellow.png><img class='e' src=images/squares/orange.png><img class='g' src=images/squares/green.png><img class='k' src=images/squares/magenta.png><div class=""fixation"">+</div>","null","","","memory","exp","33","","","","","","","","","","","",""
"html-keyboard-response","252","585437","0.0-5.0-5.0-2.33","69d555ce85e30d6215e559d9","not_provided","desktop","0","0","0","","","","","","working_memory","","null","<div class=""fixation"">+</div>","null","","","","","","","","","","","","","","","","",""
"html-keyboard-response","253","586629","0.0-5.0-5.0-3.33","69d555ce85e30d6215e559d9","not_provided","desktop","0","0","0","","","","","","working_memory","","1192","<img class='k' src=images/squares/cyan.png><div class=""fixation"">+</div>","k","","","test_squares","exp","33","4","k","true","sk","d","","","","","","",""
"html-keyboard-response","254","587131","0.0-5.0-5.0-4.33","69d555ce85e30d6215e559d9","not_provided","desktop","0","0","0","","","","","","working_memory","","null","<div class=""fixation"">Correct</div>","null","","","","","","","","","","","","","","","","",""
"html-keyboard-response","255","588133","0.0-5.0-5.0-0.34","69d555ce85e30d6215e559d9","not_provided","desktop","0","0","0","","","","","","working_memory","","null","<div class=""fixation"">+</div>","null","","","","","","","","","","","","","","","","",""
"html-keyboard-response","256","588337","0.0-5.0-5.0-1.34","69d555ce85e30d6215e559d9","not_provided","desktop","0","0","0","","","","","","working_memory","","null","<img class='b' src=images/squares/cyan.png><img class='f' src=images/squares/black.png><img class='h' src=images/squares/magenta.png><img class='k' src=images/squares/blue.png><div class=""fixation"">+</div>","null","","","memory","exp","34","","","","","","","","","","","",""
"html-keyboard-response","257","589247","0.0-5.0-5.0-2.34","69d555ce85e30d6215e559d9","not_provided","desktop","0","0","0","","","","","","working_memory","","null","<div class=""fixation"">+</div>","null","","","","","","","","","","","","","","","","",""
"html-keyboard-response","258","590357","0.0-5.0-5.0-3.34","69d555ce85e30d6215e559d9","not_provided","desktop","0","0","0","","","","","","working_memory","","1110","<img class='k' src=images/squares/blue.png><div class=""fixation"">+</div>","s","","","test_squares","exp","34","4","s","true","sk","s","","","","","","",""
"html-keyboard-response","259","590874","0.0-5.0-5.0-4.34","69d555ce85e30d6215e559d9","not_provided","desktop","0","0","0","","","","","","working_memory","","null","<div class=""fixation"">Correct</div>","null","","","","","","","","","","","","","","","","",""
"html-keyboard-response","260","591875","0.0-5.0-5.0-0.35","69d555ce85e30d6215e559d9","not_provided","desktop","0","0","0","","","","","","working_memory","","null","<div class=""fixation"">+</div>","null","","","","","","","","","","","","","","","","",""
"html-keyboard-response","261","592085","0.0-5.0-5.0-1.35","69d555ce85e30d6215e559d9","not_provided","desktop","0","0","0","","","","","","working_memory","","null","<img class='a' src=images/squares/green.png><img class='e' src=images/squares/cyan.png><img class='h' src=images/squares/black.png><img class='j' src=images/squares/red.png><div class=""fixation"">+</div>","null","","","memory","exp","35","","","","","","","","","","","",""
"html-keyboard-response","262","592994","0.0-5.0-5.0-2.35","69d555ce85e30d6215e559d9","not_provided","desktop","0","0","0","","","","","","working_memory","","null","<div class=""fixation"">+</div>","null","","","","","","","","","","","","","","","","",""
"html-keyboard-response","263","593929","0.0-5.0-5.0-3.35","69d555ce85e30d6215e559d9","not_provided","desktop","0","0","0","","","","","","working_memory","","934","<img class='a' src=images/squares/green.png><div class=""fixation"">+</div>","k","","","test_squares","exp","35","4","s","false","sk","s","","","","","","",""
"html-keyboard-response","264","594433","0.0-5.0-5.0-4.35","69d555ce85e30d6215e559d9","not_provided","desktop","0","0","0","","","","","","working_memory","","null","<div class=""fixation"">Incorrect</div>","null","","","","","","","","","","","","","","","","",""
"html-keyboard-response","265","595438","0.0-5.0-5.0-0.36","69d555ce85e30d6215e559d9","not_provided","desktop","0","0","0","","","","","","working_memory","","null","<div class=""fixation"">+</div>","null","","","","","","","","","","","","","","","","",""
"html-keyboard-response","266","595649","0.0-5.0-5.0-1.36","69d555ce85e30d6215e559d9","not_provided","desktop","0","0","0","","","","","","working_memory","","null","<img class='a' src=images/squares/red.png><img class='b' src=images/squares/black.png><img class='f' src=images/squares/cyan.png><img class='e' src=images/squares/magenta.png><img class='i' src=images/squares/yellow.png><img class='h' src=images/squares/blue.png><img class='k' src=images/squares/orange.png><img class='j' src=images/squares/green.png><div class=""fixation"">+</div>","null","","","memory","exp","36","","","","","","","","","","","",""
"html-keyboard-response","267","596558","0.0-5.0-5.0-2.36","69d555ce85e30d6215e559d9","not_provided","desktop","0","0","0","","","","","","working_memory","","null","<div class=""fixation"">+</div>","null","","","","","","","","","","","","","","","","",""
"html-keyboard-response","268","597703","0.0-5.0-5.0-3.36","69d555ce85e30d6215e559d9","not_provided","desktop","0","0","0","","","","","","working_memory","","1144","<img class='k' src=images/squares/brown.png><div class=""fixation"">+</div>","s","","","test_squares","exp","36","8","k","false","sk","d","","","","","","",""
"html-keyboard-response","269","598219","0.0-5.0-5.0-4.36","69d555ce85e30d6215e559d9","not_provided","desktop","0","0","0","","","","","","working_memory","","null","<div class=""fixation"">Incorrect</div>","null","","","","","","","","","","","","","","","","",""
"html-keyboard-response","270","599222","0.0-5.0-5.0-0.37","69d555ce85e30d6215e559d9","not_provided","desktop","0","0","0","","","","","","working_memory","","null","<div class=""fixation"">+</div>","null","","","","","","","","","","","","","","","","",""
"html-keyboard-response","271","599428","0.0-5.0-5.0-1.37","69d555ce85e30d6215e559d9","not_provided","desktop","0","0","0","","","","","","working_memory","","null","<img class='c' src=images/squares/brown.png><img class='b' src=images/squares/yellow.png><img class='e' src=images/squares/blue.png><img class='d' src=images/squares/red.png><img class='g' src=images/squares/orange.png><img class='i' src=images/squares/cyan.png><img class='l' src=images/squares/green.png><img class='k' src=images/squares/magenta.png><div class=""fixation"">+</div>","null","","","memory","exp","37","","","","","","","","","","","",""
"html-keyboard-response","272","600341","0.0-5.0-5.0-2.37","69d555ce85e30d6215e559d9","not_provided","desktop","0","0","0","","","","","","working_memory","","null","<div class=""fixation"">+</div>","null","","","","","","","","","","","","","","","","",""
"html-keyboard-response","273","601529","0.0-5.0-5.0-3.37","69d555ce85e30d6215e559d9","not_provided","desktop","0","0","0","","","","","","working_memory","","1186","<img class='c' src=images/squares/black.png><div class=""fixation"">+</div>","s","","","test_squares","exp","37","8","k","false","sk","d","","","","","","",""
"html-keyboard-response","274","602035","0.0-5.0-5.0-4.37","69d555ce85e30d6215e559d9","not_provided","desktop","0","0","0","","","","","","working_memory","","null","<div class=""fixation"">Incorrect</div>","null","","","","","","","","","","","","","","","","",""
"html-keyboard-response","275","603050","0.0-5.0-5.0-0.38","69d555ce85e30d6215e559d9","not_provided","desktop","0","0","0","","","","","","working_memory","","null","<div class=""fixation"">+</div>","null","","","","","","","","","","","","","","","","",""
"html-keyboard-response","276","603258","0.0-5.0-5.0-1.38","69d555ce85e30d6215e559d9","not_provided","desktop","0","0","0","","","","","","working_memory","","null","<img class='b' src=images/squares/blue.png><img class='e' src=images/squares/green.png><img class='h' src=images/squares/magenta.png><img class='k' src=images/squares/orange.png><div class=""fixation"">+</div>","null","","","memory","exp","38","","","","","","","","","","","",""
"html-keyboard-response","277","604172","0.0-5.0-5.0-2.38","69d555ce85e30d6215e559d9","not_provided","desktop","0","0","0","","","","","","working_memory","","null","<div class=""fixation"">+</div>","null","","","","","","","","","","","","","","","","",""
"html-keyboard-response","278","605367","0.0-5.0-5.0-3.38","69d555ce85e30d6215e559d9","not_provided","desktop","0","0","0","","","","","","working_memory","","1193","<img class='k' src=images/squares/orange.png><div class=""fixation"">+</div>","k","","","test_squares","exp","38","4","s","false","sk","s","","","","","","",""
"html-keyboard-response","279","605877","0.0-5.0-5.0-4.38","69d555ce85e30d6215e559d9","not_provided","desktop","0","0","0","","","","","","working_memory","","null","<div class=""fixation"">Incorrect</div>","null","","","","","","","","","","","","","","","","",""
"html-keyboard-response","280","606889","0.0-5.0-5.0-0.39","69d555ce85e30d6215e559d9","not_provided","desktop","0","0","0","","","","","","working_memory","","null","<div class=""fixation"">+</div>","null","","","","","","","","","","","","","","","","",""
"html-keyboard-response","281","607106","0.0-5.0-5.0-1.39","69d555ce85e30d6215e559d9","not_provided","desktop","0","0","0","","","","","","working_memory","","null","<img class='c' src=images/squares/cyan.png><img class='b' src=images/squares/red.png><img class='f' src=images/squares/blue.png><img class='e' src=images/squares/brown.png><img class='h' src=images/squares/magenta.png><img class='i' src=images/squares/orange.png><img class='l' src=images/squares/green.png><img class='j' src=images/squares/yellow.png><div class=""fixation"">+</div>","null","","","memory","exp","39","","","","","","","","","","","",""
"html-keyboard-response","282","608014","0.0-5.0-5.0-2.39","69d555ce85e30d6215e559d9","not_provided","desktop","0","0","0","","","","","","working_memory","","null","<div class=""fixation"">+</div>","null","","","","","","","","","","","","","","","","",""
"html-keyboard-response","283","609195","0.0-5.0-5.0-3.39","69d555ce85e30d6215e559d9","not_provided","desktop","0","0","0","","","","","","working_memory","","1180","<img class='i' src=images/squares/orange.png><div class=""fixation"">+</div>","s","","","test_squares","exp","39","8","s","true","sk","s","","","","","","",""
"html-keyboard-response","284","609708","0.0-5.0-5.0-4.39","69d555ce85e30d6215e559d9","not_provided","desktop","0","0","0","","","","","","working_memory","","null","<div class=""fixation"">Correct</div>","null","","","","","","","","","","","","","","","","",""
"html-keyboard-response","285","610710","0.0-5.0-5.0-0.40","69d555ce85e30d6215e559d9","not_provided","desktop","0","0","0","","","","","","working_memory","","null","<div class=""fixation"">+</div>","null","","","","","","","","","","","","","","","","",""
"html-keyboard-response","286","610918","0.0-5.0-5.0-1.40","69d555ce85e30d6215e559d9","not_provided","desktop","0","0","0","","","","","","working_memory","","null","<img class='b' src=images/squares/brown.png><img class='a' src=images/squares/red.png><img class='d' src=images/squares/green.png><img class='f' src=images/squares/black.png><img class='g' src=images/squares/cyan.png><img class='h' src=images/squares/orange.png><img class='j' src=images/squares/magenta.png><img class='l' src=images/squares/yellow.png><div class=""fixation"">+</div>","null","","","memory","exp","40","","","","","","","","","","","",""
"html-keyboard-response","287","611828","0.0-5.0-5.0-2.40","69d555ce85e30d6215e559d9","not_provided","desktop","0","0","0","","","","","","working_memory","","null","<div class=""fixation"">+</div>","null","","","","","","","","","","","","","","","","",""
"html-keyboard-response","288","613001","0.0-5.0-5.0-3.40","69d555ce85e30d6215e559d9","not_provided","desktop","0","0","0","","","","","","working_memory","","1172","<img class='j' src=images/squares/blue.png><div class=""fixation"">+</div>","k","","","test_squares","exp","40","8","k","true","sk","d","","","","","","",""
"html-keyboard-response","289","613507","0.0-5.0-5.0-4.40","69d555ce85e30d6215e559d9","not_provided","desktop","0","0","0","","","","","","working_memory","","null","<div class=""fixation"">Correct</div>","null","","","","","","","","","","","","","","","","",""
"html-keyboard-response","290","614522","0.0-5.0-5.0-0.41","69d555ce85e30d6215e559d9","not_provided","desktop","0","0","0","","","","","","working_memory","","null","<div class=""fixation"">+</div>","null","","","","","","","","","","","","","","","","",""
"html-keyboard-response","291","614732","0.0-5.0-5.0-1.41","69d555ce85e30d6215e559d9","not_provided","desktop","0","0","0","","","","","","working_memory","","null","<img class='c' src=images/squares/magenta.png><img class='d' src=images/squares/yellow.png><img class='h' src=images/squares/black.png><img class='l' src=images/squares/blue.png><div class=""fixation"">+</div>","null","","","memory","exp","41","","","","","","","","","","","",""
"html-keyboard-response","292","615638","0.0-5.0-5.0-2.41","69d555ce85e30d6215e559d9","not_provided","desktop","0","0","0","","","","","","working_memory","","null","<div class=""fixation"">+</div>","null","","","","","","","","","","","","","","","","",""
"html-keyboard-response","293","617624","0.0-5.0-5.0-3.41","69d555ce85e30d6215e559d9","not_provided","desktop","0","0","0","","","","","","working_memory","","1984","<img class='d' src=images/squares/brown.png><div class=""fixation"">+</div>","k","","","test_squares","exp","41","4","k","true","sk","d","","","","","","",""
"html-keyboard-response","294","618133","0.0-5.0-5.0-4.41","69d555ce85e30d6215e559d9","not_provided","desktop","0","0","0","","","","","","working_memory","","null","<div class=""fixation"">Correct</div>","null","","","","","","","","","","","","","","","","",""
"html-keyboard-response","295","619138","0.0-5.0-5.0-0.42","69d555ce85e30d6215e559d9","not_provided","desktop","0","0","0","","","","","","working_memory","","null","<div class=""fixation"">+</div>","null","","","","","","","","","","","","","","","","",""
"html-keyboard-response","296","619343","0.0-5.0-5.0-1.42","69d555ce85e30d6215e559d9","not_provided","desktop","0","0","0","","","","","","working_memory","","null","<img class='b' src=images/squares/orange.png><img class='f' src=images/squares/black.png><img class='i' src=images/squares/cyan.png><img class='j' src=images/squares/brown.png><div class=""fixation"">+</div>","null","","","memory","exp","42","","","","","","","","","","","",""
"html-keyboard-response","297","620254","0.0-5.0-5.0-2.42","69d555ce85e30d6215e559d9","not_provided","desktop","0","0","0","","","","","","working_memory","","null","<div class=""fixation"">+</div>","null","","","","","","","","","","","","","","","","",""
"html-keyboard-response","298","621216","0.0-5.0-5.0-3.42","69d555ce85e30d6215e559d9","not_provided","desktop","0","0","0","","","","","","working_memory","","961","<img class='b' src=images/squares/orange.png><div class=""fixation"">+</div>","s","","","test_squares","exp","42","4","s","true","sk","s","","","","","","",""
"html-keyboard-response","299","621729","0.0-5.0-5.0-4.42","69d555ce85e30d6215e559d9","not_provided","desktop","0","0","0","","","","","","working_memory","","null","<div class=""fixation"">Correct</div>","null","","","","","","","","","","","","","","","","",""
"html-keyboard-response","300","622744","0.0-5.0-5.0-0.43","69d555ce85e30d6215e559d9","not_provided","desktop","0","0","0","","","","","","working_memory","","null","<div class=""fixation"">+</div>","null","","","","","","","","","","","","","","","","",""
"html-keyboard-response","301","622958","0.0-5.0-5.0-1.43","69d555ce85e30d6215e559d9","not_provided","desktop","0","0","0","","","","","","working_memory","","null","<img class='b' src=images/squares/red.png><img class='c' src=images/squares/brown.png><img class='e' src=images/squares/magenta.png><img class='d' src=images/squares/yellow.png><img class='h' src=images/squares/green.png><img class='i' src=images/squares/blue.png><img class='j' src=images/squares/black.png><img class='l' src=images/squares/orange.png><div class=""fixation"">+</div>","null","","","memory","exp","43","","","","","","","","","","","",""
