"trial_type","trial_index","time_elapsed","internal_node_id","subject_id","study_id","device_type","blur_count","fullscreen_exit_count","failed_attention_checks","success","timeout","failed_images","failed_audio","failed_video","phase","value","rt","stimulus","response","view_history","question_order","trial_name","block_type","trial_num","set_size","correct_response","accuracy","mapping","condition","prompt","flipped","attention","expected_answer","category","question_index","task"
"pavlovia","0","1856","0.0-0.0","61563a4b0def9000ccc976ec","not_provided","desktop","0","0","1","","","","","","","","","","","","","","","","","","","","","","","","","","",""
"preload","1","3190","0.0-2.0","61563a4b0def9000ccc976ec","not_provided","desktop","0","0","1","true","false","[]","[]","[]","","","","","","","","","","","","","","","","","","","","","",""
"html-keyboard-response","2","14727","0.0-3.0-0.0","61563a4b0def9000ccc976ec","not_provided","desktop","0","0","1","","","","","","captcha","","","","","","","","","","","","","","","","","","","","",""
"fullscreen","3","21797","0.0-4.0","61563a4b0def9000ccc976ec","not_provided","desktop","0","0","1","true","","","","","setup","","","","","","","","","","","","","","","","","","","","",""
"call-function","4","21797","0.0-5.0-0.0","61563a4b0def9000ccc976ec","not_provided","desktop","0","0","1","","","","","","working_memory","","","","","","","","","","","","","","","","","","","","",""
"html-keyboard-response","5","45562","0.0-5.0-1.0","61563a4b0def9000ccc976ec","not_provided","desktop","0","0","1","","","","","","working_memory","","23764","<div style=""text-align:center;font-family:sans-serif;""><p>Welcome to the luck game experiment!</p><p>This two-day experiment takes part in a study aimed at developing better clinical treatments.</p><p>We appreciate your participation and require your full concentration.</p><br><p>This is a two-day study. Payment (£6/hour) is only given upon completing both parts today and tomorrow.</p><p>You must finish the second part for compensation. After today, you'll receive an invitation for tomorrow's session.</p><p>Please ensure you can attend both sessions before proceeding. Otherwise, you may exit now.</p><p>If you have any questions, please contact us via prolific.</p><br><p>Please stay attentive and in fullscreen mode to ensure payment.</p><p>Thank you for participating!</p><br><p id=""continue-prompt"" style=""visibility:hidden;""><b>Press any key to continue.</b></p></div>","m","","","","","","","","","","","","","","","","",""
"instructions","6","110070","0.0-5.0-2.0-0.0","61563a4b0def9000ccc976ec","not_provided","desktop","0","0","1","","","","","","working_memory","","64508","","","[{""page_index"":0,""viewing_time"":3103},{""page_index"":1,""viewing_time"":1890},{""page_index"":2,""viewing_time"":9359},{""page_index"":3,""viewing_time"":3392},{""page_index"":4,""viewing_time"":12571},{""page_index"":5,""viewing_time"":19240},{""page_index"":6,""viewing_time"":6001},{""page_index"":7,""viewing_time"":3619},{""page_index"":8,""viewing_time"":5334}]","","","","","","","","","","","","","","","",""
"survey-multi-choice","7","166790","0.0-5.0-2.0-1.0","61563a4b0def9000ccc976ec","not_provided","desktop","0","0","1","","","","","","working_memory","","56718","","{""set_size"":""4 or 8"",""steps"":""True"",""choose_square"":""Press the 's' or 'k' key."",""remember"":""The colors and locations of the 'memory' squares"",""task"":""To tell if a square previously appeared in the location of the shown square""}","","[0,1,2,3,4]","test_squares_quiz","","","","","","","","","","","","","",""
"html-button-response","8","170274","0.0-5.0-2.0-2.0-0.0","61563a4b0def9000ccc976ec","not_provided","desktop","0","0","1","","","","","","working_memory","","3483","<p>Sorry, you made a mistake on the quiz.<br>Let's go back to the instructions &mdash; please read carefully before submitting again.<br>Thank you!</p>","0","","","","","","","","","","","","","","","","",""
"instructions","9","215009","0.0-5.0-2.1-0.1","61563a4b0def9000ccc976ec","not_provided","desktop","0","0","1","","","","","","working_memory","","44734","","","[{""page_index"":0,""viewing_time"":1968},{""page_index"":1,""viewing_time"":1087},{""page_index"":2,""viewing_time"":7975},{""page_index"":3,""viewing_time"":4437},{""page_index"":4,""viewing_time"":7877},{""page_index"":5,""viewing_time"":7076},{""page_index"":6,""viewing_time"":11126},{""page_index"":7,""viewing_time"":1360},{""page_index"":8,""viewing_time"":1829}]","","","","","","","","","","","","","","","",""
"survey-multi-choice","10","246759","0.0-5.0-2.1-1.1","61563a4b0def9000ccc976ec","not_provided","desktop","0","0","1","","","","","","working_memory","","31749","","{""set_size"":""4 or 8"",""steps"":""True"",""choose_square"":""Press the 's' or 'k' key."",""remember"":""The color and location of the single 'test' square"",""task"":""To tell if the 'test' square is in the same color as the square previously appearing in this location""}","","[0,1,2,3,4]","test_squares_quiz","","","","","","","","","","","","","",""
"html-button-response","11","249009","0.0-5.0-2.1-2.1-0.1","61563a4b0def9000ccc976ec","not_provided","desktop","0","0","1","","","","","","working_memory","","2249","<p>Sorry, you made a mistake on the quiz.<br>Let's go back to the instructions &mdash; please read carefully before submitting again.<br>Thank you!</p>","0","","","","","","","","","","","","","","","","",""
"instructions","12","281980","0.0-5.0-2.2-0.2","61563a4b0def9000ccc976ec","not_provided","desktop","0","0","1","","","","","","working_memory","","32971","","","[{""page_index"":0,""viewing_time"":1749},{""page_index"":1,""viewing_time"":6248},{""page_index"":2,""viewing_time"":3393},{""page_index"":3,""viewing_time"":1376},{""page_index"":4,""viewing_time"":5218},{""page_index"":5,""viewing_time"":4484},{""page_index"":6,""viewing_time"":5203},{""page_index"":7,""viewing_time"":3107},{""page_index"":8,""viewing_time"":2193}]","","","","","","","","","","","","","","","",""
"survey-multi-choice","13","362575","0.0-5.0-2.2-1.2","61563a4b0def9000ccc976ec","not_provided","desktop","0","0","1","","","","","","working_memory","","80593","","{""set_size"":""4 or 8"",""steps"":""True"",""choose_square"":""Press the 's' or 'k' key."",""remember"":""The colors and locations of the 'memory' squares"",""task"":""To tell if the 'test' square is in the same color as the square previously appearing in this location""}","","[0,1,2,3,4]","test_squares_quiz","","","","","","","","","","","","","",""
"html-keyboard-response","14","374811","0.0-5.0-3.0-0.0","61563a4b0def9000ccc976ec","not_provided","desktop","0","0","1","","","","","","working_memory","","12235","<p>We will now start some practice trials.<br><b>The practice trials will also include some trials in which you will need to remember only one square to make sure you understood the instructions.</b><br>You may already want to be ready with your fingers on '<b>s</b>' and '<b>k</b>'.<br><img class=""wm-example-img"" src=""images/examples/keyboard.png""><br><b style=""font-size:1.2em;"">&lsquo;S&rsquo; = SAME &nbsp;&nbsp;&nbsp; &lsquo;K&rsquo; = DIFFERENT</b><br><br><u>Please try to be as accurate as possible.</u><br><br><b>Press any key to begin</b></p>","s","","","","","","","","","","","","","","","","",""
"html-keyboard-response","15","376835","0.0-5.0-3.0-1.0-0.0","61563a4b0def9000ccc976ec","not_provided","desktop","0","0","1","","","","","","working_memory","","null","<div class=""fixation"">+</div>","null","","","","","","","","","","","","","","","","",""
"html-keyboard-response","16","377047","0.0-5.0-3.0-1.0-1.0","61563a4b0def9000ccc976ec","not_provided","desktop","0","0","1","","","","","","working_memory","","null","<img class='upper2' src=images/squares/yellow.png><div class=""fixation"">+</div>","null","","","memory","practice","0","1","","","","","","","","","","",""
"html-keyboard-response","17","377952","0.0-5.0-3.0-1.0-2.0","61563a4b0def9000ccc976ec","not_provided","desktop","0","0","1","","","","","","working_memory","","null","<div class=""fixation"">+</div>","null","","","","","","","","","","","","","","","","",""
"html-keyboard-response","18","379851","0.0-5.0-3.0-1.0-3.0","61563a4b0def9000ccc976ec","not_provided","desktop","0","0","1","","","","","","working_memory","","1898","<img class='upper2' src=images/squares/yellow.png><div class=""fixation"">+</div>","s","","","test","practice","0","1","s","true","","","","","","","","",""
"html-keyboard-response","19","380366","0.0-5.0-3.0-1.0-4.0","61563a4b0def9000ccc976ec","not_provided","desktop","0","0","1","","","","","","working_memory","","null","<div class=""fixation"">Correct</div>","null","","","","","","","","","","","","","","","","",""
"html-keyboard-response","20","381382","0.0-5.0-3.0-1.0-0.1","61563a4b0def9000ccc976ec","not_provided","desktop","0","0","1","","","","","","working_memory","","null","<div class=""fixation"">+</div>","null","","","","","","","","","","","","","","","","",""
"html-keyboard-response","21","381586","0.0-5.0-3.0-1.0-1.1","61563a4b0def9000ccc976ec","not_provided","desktop","0","0","1","","","","","","working_memory","","null","<img class='b' src=images/squares/red.png><img class='a' src=images/squares/cyan.png><img class='e' src=images/squares/yellow.png><img class='f' src=images/squares/orange.png><img class='i' src=images/squares/green.png><img class='h' src=images/squares/black.png><img class='k' src=images/squares/blue.png><img class='j' src=images/squares/brown.png><div class=""fixation"">+</div>","null","","","memory","practice","1","8","","","","","","","","","","",""
"html-keyboard-response","22","382492","0.0-5.0-3.0-1.0-2.1","61563a4b0def9000ccc976ec","not_provided","desktop","0","0","1","","","","","","working_memory","","null","<div class=""fixation"">+</div>","null","","","","","","","","","","","","","","","","",""
"html-keyboard-response","23","383882","0.0-5.0-3.0-1.0-3.1","61563a4b0def9000ccc976ec","not_provided","desktop","0","0","1","","","","","","working_memory","","1390","<img class='i' src=images/squares/green.png><div class=""fixation"">+</div>","k","","","test","practice","1","8","s","false","","","","","","","","",""
"html-keyboard-response","24","384390","0.0-5.0-3.0-1.0-4.1","61563a4b0def9000ccc976ec","not_provided","desktop","0","0","1","","","","","","working_memory","","null","<div class=""fixation"">Incorrect</div>","null","","","","","","","","","","","","","","","","",""
"html-keyboard-response","25","385405","0.0-5.0-3.0-1.0-0.2","61563a4b0def9000ccc976ec","not_provided","desktop","0","0","1","","","","","","working_memory","","null","<div class=""fixation"">+</div>","null","","","","","","","","","","","","","","","","",""
"html-keyboard-response","26","385617","0.0-5.0-3.0-1.0-1.2","61563a4b0def9000ccc976ec","not_provided","desktop","0","0","1","","","","","","working_memory","","null","<img class='lower3' src=images/squares/magenta.png><div class=""fixation"">+</div>","null","","","memory","practice","2","1","","","","","","","","","","",""
"html-keyboard-response","27","386532","0.0-5.0-3.0-1.0-2.2","61563a4b0def9000ccc976ec","not_provided","desktop","0","0","1","","","","","","working_memory","","null","<div class=""fixation"">+</div>","null","","","","","","","","","","","","","","","","",""
"html-keyboard-response","28","387238","0.0-5.0-3.0-1.0-3.2","61563a4b0def9000ccc976ec","not_provided","desktop","0","0","1","","","","","","working_memory","","706","<img class='lower3' src=images/squares/magenta.png><div class=""fixation"">+</div>","s","","","test","practice","2","1","s","true","","","","","","","","",""
"html-keyboard-response","29","387741","0.0-5.0-3.0-1.0-4.2","61563a4b0def9000ccc976ec","not_provided","desktop","0","0","1","","","","","","working_memory","","null","<div class=""fixation"">Correct</div>","null","","","","","","","","","","","","","","","","",""
"html-keyboard-response","30","388757","0.0-5.0-3.0-1.0-0.3","61563a4b0def9000ccc976ec","not_provided","desktop","0","0","1","","","","","","working_memory","","null","<div class=""fixation"">+</div>","null","","","","","","","","","","","","","","","","",""
"html-keyboard-response","31","388960","0.0-5.0-3.0-1.0-1.3","61563a4b0def9000ccc976ec","not_provided","desktop","0","0","1","","","","","","working_memory","","null","<img class='c' src=images/squares/green.png><img class='b' src=images/squares/red.png><img class='f' src=images/squares/brown.png><img class='d' src=images/squares/orange.png><img class='i' src=images/squares/magenta.png><img class='g' src=images/squares/cyan.png><img class='j' src=images/squares/black.png><img class='l' src=images/squares/blue.png><div class=""fixation"">+</div>","null","","","memory","practice","3","8","","","","","","","","","","",""
"html-keyboard-response","32","389866","0.0-5.0-3.0-1.0-2.3","61563a4b0def9000ccc976ec","not_provided","desktop","0","0","1","","","","","","working_memory","","null","<div class=""fixation"">+</div>","null","","","","","","","","","","","","","","","","",""
"html-keyboard-response","33","391062","0.0-5.0-3.0-1.0-3.3","61563a4b0def9000ccc976ec","not_provided","desktop","0","0","1","","","","","","working_memory","","1196","<img class='d' src=images/squares/orange.png><div class=""fixation"">+</div>","k","","","test","practice","3","8","s","false","","","","","","","","",""
"html-keyboard-response","34","391569","0.0-5.0-3.0-1.0-4.3","61563a4b0def9000ccc976ec","not_provided","desktop","0","0","1","","","","","","working_memory","","null","<div class=""fixation"">Incorrect</div>","null","","","","","","","","","","","","","","","","",""
"html-keyboard-response","35","392585","0.0-5.0-3.0-1.0-0.4","61563a4b0def9000ccc976ec","not_provided","desktop","0","0","1","","","","","","working_memory","","null","<div class=""fixation"">+</div>","null","","","","","","","","","","","","","","","","",""
"html-keyboard-response","36","392788","0.0-5.0-3.0-1.0-1.4","61563a4b0def9000ccc976ec","not_provided","desktop","0","0","1","","","","","","working_memory","","null","<img class='b' src=images/squares/blue.png><img class='f' src=images/squares/green.png><img class='i' src=images/squares/yellow.png><img class='l' src=images/squares/magenta.png><div class=""fixation"">+</div>","null","","","memory","practice","4","4","","","","","","","","","","",""
"html-keyboard-response","37","393695","0.0-5.0-3.0-1.0-2.4","61563a4b0def9000ccc976ec","not_provided","desktop","0","0","1","","","","","","working_memory","","null","<div class=""fixation"">+</div>","null","","","","","","","","","","","","","","","","",""
"html-keyboard-response","38","395734","0.0-5.0-3.0-1.0-3.4","61563a4b0def9000ccc976ec","not_provided","desktop","0","0","1","","","","","","working_memory","","2039","<img class='i' src=images/squares/cyan.png><div class=""fixation"">+</div>","k","","","test","practice","4","4","k","true","","","","","","","","",""
"html-keyboard-response","39","396241","0.0-5.0-3.0-1.0-4.4","61563a4b0def9000ccc976ec","not_provided","desktop","0","0","1","","","","","","working_memory","","null","<div class=""fixation"">Correct</div>","null","","","","","","","","","","","","","","","","",""
"html-keyboard-response","40","397257","0.0-5.0-3.0-1.0-0.5","61563a4b0def9000ccc976ec","not_provided","desktop","0","0","1","","","","","","working_memory","","null","<div class=""fixation"">+</div>","null","","","","","","","","","","","","","","","","",""
"html-keyboard-response","41","397460","0.0-5.0-3.0-1.0-1.5","61563a4b0def9000ccc976ec","not_provided","desktop","0","0","1","","","","","","working_memory","","null","<img class='c' src=images/squares/black.png><img class='f' src=images/squares/blue.png><img class='g' src=images/squares/yellow.png><img class='l' src=images/squares/red.png><div class=""fixation"">+</div>","null","","","memory","practice","5","4","","","","","","","","","","",""
"html-keyboard-response","42","398367","0.0-5.0-3.0-1.0-2.5","61563a4b0def9000ccc976ec","not_provided","desktop","0","0","1","","","","","","working_memory","","null","<div class=""fixation"">+</div>","null","","","","","","","","","","","","","","","","",""
"html-keyboard-response","43","399334","0.0-5.0-3.0-1.0-3.5","61563a4b0def9000ccc976ec","not_provided","desktop","0","0","1","","","","","","working_memory","","967","<img class='c' src=images/squares/magenta.png><div class=""fixation"">+</div>","k","","","test","practice","5","4","k","true","","","","","","","","",""
"html-keyboard-response","44","399835","0.0-5.0-3.0-1.0-4.5","61563a4b0def9000ccc976ec","not_provided","desktop","0","0","1","","","","","","working_memory","","null","<div class=""fixation"">Correct</div>","null","","","","","","","","","","","","","","","","",""
"html-keyboard-response","45","400843","0.0-5.0-3.0-1.0-0.6","61563a4b0def9000ccc976ec","not_provided","desktop","0","0","1","","","","","","working_memory","","null","<div class=""fixation"">+</div>","null","","","","","","","","","","","","","","","","",""
"html-keyboard-response","46","401046","0.0-5.0-3.0-1.0-1.6","61563a4b0def9000ccc976ec","not_provided","desktop","0","0","1","","","","","","working_memory","","null","<img class='upper2' src=images/squares/brown.png><div class=""fixation"">+</div>","null","","","memory","practice","6","1","","","","","","","","","","",""
"html-keyboard-response","47","401961","0.0-5.0-3.0-1.0-2.6","61563a4b0def9000ccc976ec","not_provided","desktop","0","0","1","","","","","","working_memory","","null","<div class=""fixation"">+</div>","null","","","","","","","","","","","","","","","","",""
"html-keyboard-response","48","402851","0.0-5.0-3.0-1.0-3.6","61563a4b0def9000ccc976ec","not_provided","desktop","0","0","1","","","","","","working_memory","","889","<img class='upper2' src=images/squares/black.png><div class=""fixation"">+</div>","k","","","test","practice","6","1","k","true","","","","","","","","",""
"html-keyboard-response","49","403359","0.0-5.0-3.0-1.0-4.6","61563a4b0def9000ccc976ec","not_provided","desktop","0","0","1","","","","","","working_memory","","null","<div class=""fixation"">Correct</div>","null","","","","","","","","","","","","","","","","",""
"html-keyboard-response","50","404366","0.0-5.0-3.0-1.0-0.7","61563a4b0def9000ccc976ec","not_provided","desktop","0","0","1","","","","","","working_memory","","null","<div class=""fixation"">+</div>","null","","","","","","","","","","","","","","","","",""
"html-keyboard-response","51","404577","0.0-5.0-3.0-1.0-1.7","61563a4b0def9000ccc976ec","not_provided","desktop","0","0","1","","","","","","working_memory","","null","<img class='b' src=images/squares/brown.png><img class='c' src=images/squares/blue.png><img class='e' src=images/squares/green.png><img class='d' src=images/squares/magenta.png><img class='h' src=images/squares/red.png><img class='i' src=images/squares/orange.png><img class='j' src=images/squares/cyan.png><img class='k' src=images/squares/yellow.png><div class=""fixation"">+</div>","null","","","memory","practice","7","8","","","","","","","","","","",""
"html-keyboard-response","52","405484","0.0-5.0-3.0-1.0-2.7","61563a4b0def9000ccc976ec","not_provided","desktop","0","0","1","","","","","","working_memory","","null","<div class=""fixation"">+</div>","null","","","","","","","","","","","","","","","","",""
"html-keyboard-response","53","406739","0.0-5.0-3.0-1.0-3.7","61563a4b0def9000ccc976ec","not_provided","desktop","0","0","1","","","","","","working_memory","","1254","<img class='j' src=images/squares/black.png><div class=""fixation"">+</div>","k","","","test","practice","7","8","k","true","","","","","","","","",""
"html-keyboard-response","54","407242","0.0-5.0-3.0-1.0-4.7","61563a4b0def9000ccc976ec","not_provided","desktop","0","0","1","","","","","","working_memory","","null","<div class=""fixation"">Correct</div>","null","","","","","","","","","","","","","","","","",""
"html-keyboard-response","55","408257","0.0-5.0-3.0-1.0-0.8","61563a4b0def9000ccc976ec","not_provided","desktop","0","0","1","","","","","","working_memory","","null","<div class=""fixation"">+</div>","null","","","","","","","","","","","","","","","","",""
"html-keyboard-response","56","408461","0.0-5.0-3.0-1.0-1.8","61563a4b0def9000ccc976ec","not_provided","desktop","0","0","1","","","","","","working_memory","","null","<img class='a' src=images/squares/red.png><img class='c' src=images/squares/blue.png><img class='f' src=images/squares/cyan.png><img class='d' src=images/squares/orange.png><img class='g' src=images/squares/green.png><img class='h' src=images/squares/black.png><img class='k' src=images/squares/brown.png><img class='l' src=images/squares/magenta.png><div class=""fixation"">+</div>","null","","","memory","practice","8","8","","","","","","","","","","",""
"html-keyboard-response","57","409366","0.0-5.0-3.0-1.0-2.8","61563a4b0def9000ccc976ec","not_provided","desktop","0","0","1","","","","","","working_memory","","null","<div class=""fixation"">+</div>","null","","","","","","","","","","","","","","","","",""
"html-keyboard-response","58","410354","0.0-5.0-3.0-1.0-3.8","61563a4b0def9000ccc976ec","not_provided","desktop","0","0","1","","","","","","working_memory","","987","<img class='k' src=images/squares/brown.png><div class=""fixation"">+</div>","s","","","test","practice","8","8","s","true","","","","","","","","",""
"html-keyboard-response","59","410867","0.0-5.0-3.0-1.0-4.8","61563a4b0def9000ccc976ec","not_provided","desktop","0","0","1","","","","","","working_memory","","null","<div class=""fixation"">Correct</div>","null","","","","","","","","","","","","","","","","",""
"html-keyboard-response","60","411882","0.0-5.0-3.0-1.0-0.9","61563a4b0def9000ccc976ec","not_provided","desktop","0","0","1","","","","","","working_memory","","null","<div class=""fixation"">+</div>","null","","","","","","","","","","","","","","","","",""
"html-keyboard-response","61","412086","0.0-5.0-3.0-1.0-1.9","61563a4b0def9000ccc976ec","not_provided","desktop","0","0","1","","","","","","working_memory","","null","<img class='upper2' src=images/squares/orange.png><div class=""fixation"">+</div>","null","","","memory","practice","9","1","","","","","","","","","","",""
"html-keyboard-response","62","413000","0.0-5.0-3.0-1.0-2.9","61563a4b0def9000ccc976ec","not_provided","desktop","0","0","1","","","","","","working_memory","","null","<div class=""fixation"">+</div>","null","","","","","","","","","","","","","","","","",""
"html-keyboard-response","63","413907","0.0-5.0-3.0-1.0-3.9","61563a4b0def9000ccc976ec","not_provided","desktop","0","0","1","","","","","","working_memory","","905","<img class='upper2' src=images/squares/red.png><div class=""fixation"">+</div>","s","","","test","practice","9","1","k","false","","","","","","","","",""
"html-keyboard-response","64","414414","0.0-5.0-3.0-1.0-4.9","61563a4b0def9000ccc976ec","not_provided","desktop","0","0","1","","","","","","working_memory","","null","<div class=""fixation"">Incorrect</div>","null","","","","","","","","","","","","","","","","",""
"html-keyboard-response","65","415429","0.0-5.0-3.0-1.0-0.10","61563a4b0def9000ccc976ec","not_provided","desktop","0","0","1","","","","","","working_memory","","null","<div class=""fixation"">+</div>","null","","","","","","","","","","","","","","","","",""
"html-keyboard-response","66","415633","0.0-5.0-3.0-1.0-1.10","61563a4b0def9000ccc976ec","not_provided","desktop","0","0","1","","","","","","working_memory","","null","<img class='lower1' src=images/squares/yellow.png><div class=""fixation"">+</div>","null","","","memory","practice","10","1","","","","","","","","","","",""
"html-keyboard-response","67","416539","0.0-5.0-3.0-1.0-2.10","61563a4b0def9000ccc976ec","not_provided","desktop","0","0","1","","","","","","working_memory","","null","<div class=""fixation"">+</div>","null","","","","","","","","","","","","","","","","",""
"html-keyboard-response","68","417183","0.0-5.0-3.0-1.0-3.10","61563a4b0def9000ccc976ec","not_provided","desktop","0","0","1","","","","","","working_memory","","643","<img class='lower1' src=images/squares/yellow.png><div class=""fixation"">+</div>","s","","","test","practice","10","1","s","true","","","","","","","","",""
"html-keyboard-response","69","417687","0.0-5.0-3.0-1.0-4.10","61563a4b0def9000ccc976ec","not_provided","desktop","0","0","1","","","","","","working_memory","","null","<div class=""fixation"">Correct</div>","null","","","","","","","","","","","","","","","","",""
"html-keyboard-response","70","418695","0.0-5.0-3.0-1.0-0.11","61563a4b0def9000ccc976ec","not_provided","desktop","0","0","1","","","","","","working_memory","","null","<div class=""fixation"">+</div>","null","","","","","","","","","","","","","","","","",""
"html-keyboard-response","71","418898","0.0-5.0-3.0-1.0-1.11","61563a4b0def9000ccc976ec","not_provided","desktop","0","0","1","","","","","","working_memory","","null","<img class='upper1' src=images/squares/orange.png><div class=""fixation"">+</div>","null","","","memory","practice","11","1","","","","","","","","","","",""
"html-keyboard-response","72","419812","0.0-5.0-3.0-1.0-2.11","61563a4b0def9000ccc976ec","not_provided","desktop","0","0","1","","","","","","working_memory","","null","<div class=""fixation"">+</div>","null","","","","","","","","","","","","","","","","",""
"html-keyboard-response","73","421375","0.0-5.0-3.0-1.0-3.11","61563a4b0def9000ccc976ec","not_provided","desktop","0","0","1","","","","","","working_memory","","1563","<img class='upper1' src=images/squares/orange.png><div class=""fixation"">+</div>","s","","","test","practice","11","1","s","true","","","","","","","","",""
"html-keyboard-response","74","421881","0.0-5.0-3.0-1.0-4.11","61563a4b0def9000ccc976ec","not_provided","desktop","0","0","1","","","","","","working_memory","","null","<div class=""fixation"">Correct</div>","null","","","","","","","","","","","","","","","","",""
"html-keyboard-response","75","422883","0.0-5.0-3.0-1.0-0.12","61563a4b0def9000ccc976ec","not_provided","desktop","0","0","1","","","","","","working_memory","","null","<div class=""fixation"">+</div>","null","","","","","","","","","","","","","","","","",""
"html-keyboard-response","76","423086","0.0-5.0-3.0-1.0-1.12","61563a4b0def9000ccc976ec","not_provided","desktop","0","0","1","","","","","","working_memory","","null","<img class='b' src=images/squares/green.png><img class='f' src=images/squares/orange.png><img class='g' src=images/squares/magenta.png><img class='k' src=images/squares/blue.png><div class=""fixation"">+</div>","null","","","memory","practice","12","4","","","","","","","","","","",""
"html-keyboard-response","77","423991","0.0-5.0-3.0-1.0-2.12","61563a4b0def9000ccc976ec","not_provided","desktop","0","0","1","","","","","","working_memory","","null","<div class=""fixation"">+</div>","null","","","","","","","","","","","","","","","","",""
"html-keyboard-response","78","424846","0.0-5.0-3.0-1.0-3.12","61563a4b0def9000ccc976ec","not_provided","desktop","0","0","1","","","","","","working_memory","","855","<img class='b' src=images/squares/green.png><div class=""fixation"">+</div>","s","","","test","practice","12","4","s","true","","","","","","","","",""
"html-keyboard-response","79","425358","0.0-5.0-3.0-1.0-4.12","61563a4b0def9000ccc976ec","not_provided","desktop","0","0","1","","","","","","working_memory","","null","<div class=""fixation"">Correct</div>","null","","","","","","","","","","","","","","","","",""
"html-keyboard-response","80","426366","0.0-5.0-3.0-1.0-0.13","61563a4b0def9000ccc976ec","not_provided","desktop","0","0","1","","","","","","working_memory","","null","<div class=""fixation"">+</div>","null","","","","","","","","","","","","","","","","",""
"html-keyboard-response","81","426575","0.0-5.0-3.0-1.0-1.13","61563a4b0def9000ccc976ec","not_provided","desktop","0","0","1","","","","","","working_memory","","null","<img class='c' src=images/squares/black.png><img class='b' src=images/squares/blue.png><img class='d' src=images/squares/cyan.png><img class='e' src=images/squares/magenta.png><img class='h' src=images/squares/brown.png><img class='i' src=images/squares/red.png><img class='l' src=images/squares/yellow.png><img class='k' src=images/squares/green.png><div class=""fixation"">+</div>","null","","","memory","practice","13","8","","","","","","","","","","",""
"html-keyboard-response","82","427491","0.0-5.0-3.0-1.0-2.13","61563a4b0def9000ccc976ec","not_provided","desktop","0","0","1","","","","","","working_memory","","null","<div class=""fixation"">+</div>","null","","","","","","","","","","","","","","","","",""
"html-keyboard-response","83","428798","0.0-5.0-3.0-1.0-3.13","61563a4b0def9000ccc976ec","not_provided","desktop","0","0","1","","","","","","working_memory","","1306","<img class='i' src=images/squares/red.png><div class=""fixation"">+</div>","k","","","test","practice","13","8","s","false","","","","","","","","",""
"html-keyboard-response","84","429304","0.0-5.0-3.0-1.0-4.13","61563a4b0def9000ccc976ec","not_provided","desktop","0","0","1","","","","","","working_memory","","null","<div class=""fixation"">Incorrect</div>","null","","","","","","","","","","","","","","","","",""
"html-keyboard-response","85","430320","0.0-5.0-3.0-1.0-0.14","61563a4b0def9000ccc976ec","not_provided","desktop","0","0","1","","","","","","working_memory","","null","<div class=""fixation"">+</div>","null","","","","","","","","","","","","","","","","",""
"html-keyboard-response","86","430523","0.0-5.0-3.0-1.0-1.14","61563a4b0def9000ccc976ec","not_provided","desktop","0","0","1","","","","","","working_memory","","null","<img class='c' src=images/squares/yellow.png><img class='b' src=images/squares/magenta.png><img class='f' src=images/squares/cyan.png><img class='d' src=images/squares/brown.png><img class='g' src=images/squares/orange.png><img class='i' src=images/squares/green.png><img class='k' src=images/squares/black.png><img class='l' src=images/squares/red.png><div class=""fixation"">+</div>","null","","","memory","practice","14","8","","","","","","","","","","",""
"html-keyboard-response","87","431429","0.0-5.0-3.0-1.0-2.14","61563a4b0def9000ccc976ec","not_provided","desktop","0","0","1","","","","","","working_memory","","null","<div class=""fixation"">+</div>","null","","","","","","","","","","","","","","","","",""
"html-keyboard-response","88","432363","0.0-5.0-3.0-1.0-3.14","61563a4b0def9000ccc976ec","not_provided","desktop","0","0","1","","","","","","working_memory","","933","<img class='d' src=images/squares/blue.png><div class=""fixation"">+</div>","k","","","test","practice","14","8","k","true","","","","","","","","",""
"html-keyboard-response","89","432867","0.0-5.0-3.0-1.0-4.14","61563a4b0def9000ccc976ec","not_provided","desktop","0","0","1","","","","","","working_memory","","null","<div class=""fixation"">Correct</div>","null","","","","","","","","","","","","","","","","",""
"html-keyboard-response","90","436043","0.0-5.0-3.0-2.0-0.0","61563a4b0def9000ccc976ec","not_provided","desktop","0","0","1","","","","","","working_memory","","3174","<p>Sorry. You made too many mistakes.<br>Let's do the practice session once again.<br><br><b>Press any key to continue</b></p>"," ","","","","","","","","","","","","","","","","",""
"html-keyboard-response","91","436967","0.0-5.0-3.1-0.1","61563a4b0def9000ccc976ec","not_provided","desktop","0","0","1","","","","","","working_memory","","923","<p>We will now start some practice trials.<br><b>The practice trials will also include some trials in which you will need to remember only one square to make sure you understood the instructions.</b><br>You may already want to be ready with your fingers on '<b>s</b>' and '<b>k</b>'.<br><img class=""wm-example-img"" src=""images/examples/keyboard.png""><br><b style=""font-size:1.2em;"">&lsquo;S&rsquo; = SAME &nbsp;&nbsp;&nbsp; &lsquo;K&rsquo; = DIFFERENT</b><br><br><u>Please try to be as accurate as possible.</u><br><br><b>Press any key to begin</b></p>"," ","","","","","","","","","","","","","","","","",""
"html-keyboard-response","92","438991","0.0-5.0-3.1-1.1-0.15","61563a4b0def9000ccc976ec","not_provided","desktop","0","0","1","","","","","","working_memory","","null","<div class=""fixation"">+</div>","null","","","","","","","","","","","","","","","","",""
"html-keyboard-response","93","439194","0.0-5.0-3.1-1.1-1.15","61563a4b0def9000ccc976ec","not_provided","desktop","0","0","1","","","","","","working_memory","","null","<img class='a' src=images/squares/yellow.png><img class='c' src=images/squares/magenta.png><img class='f' src=images/squares/blue.png><img class='e' src=images/squares/orange.png><img class='h' src=images/squares/green.png><img class='i' src=images/squares/black.png><img class='l' src=images/squares/brown.png><img class='j' src=images/squares/red.png><div class=""fixation"">+</div>","null","","","memory","practice","15","8","","","","","","","","","","",""
"html-keyboard-response","94","440101","0.0-5.0-3.1-1.1-2.15","61563a4b0def9000ccc976ec","not_provided","desktop","0","0","1","","","","","","working_memory","","null","<div class=""fixation"">+</div>","null","","","","","","","","","","","","","","","","",""
"html-keyboard-response","95","441114","0.0-5.0-3.1-1.1-3.15","61563a4b0def9000ccc976ec","not_provided","desktop","0","0","1","","","","","","working_memory","","1013","<img class='i' src=images/squares/black.png><div class=""fixation"">+</div>","k","","","test","practice","15","8","s","false","","","","","","","","",""
"html-keyboard-response","96","441617","0.0-5.0-3.1-1.1-4.15","61563a4b0def9000ccc976ec","not_provided","desktop","0","0","1","","","","","","working_memory","","null","<div class=""fixation"">Incorrect</div>","null","","","","","","","","","","","","","","","","",""
"html-keyboard-response","97","442625","0.0-5.0-3.1-1.1-0.16","61563a4b0def9000ccc976ec","not_provided","desktop","0","0","1","","","","","","working_memory","","null","<div class=""fixation"">+</div>","null","","","","","","","","","","","","","","","","",""
"html-keyboard-response","98","442835","0.0-5.0-3.1-1.1-1.16","61563a4b0def9000ccc976ec","not_provided","desktop","0","0","1","","","","","","working_memory","","null","<img class='b' src=images/squares/cyan.png><img class='c' src=images/squares/brown.png><img class='d' src=images/squares/yellow.png><img class='f' src=images/squares/red.png><img class='i' src=images/squares/magenta.png><img class='g' src=images/squares/orange.png><img class='k' src=images/squares/green.png><img class='j' src=images/squares/black.png><div class=""fixation"">+</div>","null","","","memory","practice","16","8","","","","","","","","","","",""
"html-keyboard-response","99","443749","0.0-5.0-3.1-1.1-2.16","61563a4b0def9000ccc976ec","not_provided","desktop","0","0","1","","","","","","working_memory","","null","<div class=""fixation"">+</div>","null","","","","","","","","","","","","","","","","",""
"html-keyboard-response","100","444698","0.0-5.0-3.1-1.1-3.16","61563a4b0def9000ccc976ec","not_provided","desktop","0","0","1","","","","","","working_memory","","949","<img class='d' src=images/squares/blue.png><div class=""fixation"">+</div>","k","","","test","practice","16","8","k","true","","","","","","","","",""
"html-keyboard-response","101","445209","0.0-5.0-3.1-1.1-4.16","61563a4b0def9000ccc976ec","not_provided","desktop","0","0","1","","","","","","working_memory","","null","<div class=""fixation"">Correct</div>","null","","","","","","","","","","","","","","","","",""
"html-keyboard-response","102","446211","0.0-5.0-3.1-1.1-0.17","61563a4b0def9000ccc976ec","not_provided","desktop","0","0","1","","","","","","working_memory","","null","<div class=""fixation"">+</div>","null","","","","","","","","","","","","","","","","",""
"html-keyboard-response","103","446422","0.0-5.0-3.1-1.1-1.17","61563a4b0def9000ccc976ec","not_provided","desktop","0","0","1","","","","","","working_memory","","null","<img class='upper3' src=images/squares/brown.png><div class=""fixation"">+</div>","null","","","memory","practice","17","1","","","","","","","","","","",""
"html-keyboard-response","104","447343","0.0-5.0-3.1-1.1-2.17","61563a4b0def9000ccc976ec","not_provided","desktop","0","0","1","","","","","","working_memory","","null","<div class=""fixation"">+</div>","null","","","","","","","","","","","","","","","","",""
"html-keyboard-response","105","448407","0.0-5.0-3.1-1.1-3.17","61563a4b0def9000ccc976ec","not_provided","desktop","0","0","1","","","","","","working_memory","","1063","<img class='upper3' src=images/squares/blue.png><div class=""fixation"">+</div>","k","","","test","practice","17","1","k","true","","","","","","","","",""
"html-keyboard-response","106","448914","0.0-5.0-3.1-1.1-4.17","61563a4b0def9000ccc976ec","not_provided","desktop","0","0","1","","","","","","working_memory","","null","<div class=""fixation"">Correct</div>","null","","","","","","","","","","","","","","","","",""
"html-keyboard-response","107","449930","0.0-5.0-3.1-1.1-0.18","61563a4b0def9000ccc976ec","not_provided","desktop","0","0","1","","","","","","working_memory","","null","<div class=""fixation"">+</div>","null","","","","","","","","","","","","","","","","",""
"html-keyboard-response","108","450132","0.0-5.0-3.1-1.1-1.18","61563a4b0def9000ccc976ec","not_provided","desktop","0","0","1","","","","","","working_memory","","null","<img class='upper3' src=images/squares/red.png><div class=""fixation"">+</div>","null","","","memory","practice","18","1","","","","","","","","","","",""
"html-keyboard-response","109","451039","0.0-5.0-3.1-1.1-2.18","61563a4b0def9000ccc976ec","not_provided","desktop","0","0","1","","","","","","working_memory","","null","<div class=""fixation"">+</div>","null","","","","","","","","","","","","","","","","",""
"html-keyboard-response","110","451670","0.0-5.0-3.1-1.1-3.18","61563a4b0def9000ccc976ec","not_provided","desktop","0","0","1","","","","","","working_memory","","631","<img class='upper3' src=images/squares/red.png><div class=""fixation"">+</div>","s","","","test","practice","18","1","s","true","","","","","","","","",""
"html-keyboard-response","111","452172","0.0-5.0-3.1-1.1-4.18","61563a4b0def9000ccc976ec","not_provided","desktop","0","0","1","","","","","","working_memory","","null","<div class=""fixation"">Correct</div>","null","","","","","","","","","","","","","","","","",""
"html-keyboard-response","112","453179","0.0-5.0-3.1-1.1-0.19","61563a4b0def9000ccc976ec","not_provided","desktop","0","0","1","","","","","","working_memory","","null","<div class=""fixation"">+</div>","null","","","","","","","","","","","","","","","","",""
"html-keyboard-response","113","453398","0.0-5.0-3.1-1.1-1.19","61563a4b0def9000ccc976ec","not_provided","desktop","0","0","1","","","","","","working_memory","","null","<img class='c' src=images/squares/green.png><img class='a' src=images/squares/brown.png><img class='e' src=images/squares/yellow.png><img class='d' src=images/squares/red.png><img class='i' src=images/squares/orange.png><img class='h' src=images/squares/blue.png><img class='j' src=images/squares/cyan.png><img class='l' src=images/squares/black.png><div class=""fixation"">+</div>","null","","","memory","practice","19","8","","","","","","","","","","",""
"html-keyboard-response","114","454304","0.0-5.0-3.1-1.1-2.19","61563a4b0def9000ccc976ec","not_provided","desktop","0","0","1","","","","","","working_memory","","null","<div class=""fixation"">+</div>","null","","","","","","","","","","","","","","","","",""
"html-keyboard-response","115","455319","0.0-5.0-3.1-1.1-3.19","61563a4b0def9000ccc976ec","not_provided","desktop","0","0","1","","","","","","working_memory","","1013","<img class='j' src=images/squares/cyan.png><div class=""fixation"">+</div>","k","","","test","practice","19","8","s","false","","","","","","","","",""
"html-keyboard-response","116","455828","0.0-5.0-3.1-1.1-4.19","61563a4b0def9000ccc976ec","not_provided","desktop","0","0","1","","","","","","working_memory","","null","<div class=""fixation"">Incorrect</div>","null","","","","","","","","","","","","","","","","",""
"html-keyboard-response","117","456835","0.0-5.0-3.1-1.1-0.20","61563a4b0def9000ccc976ec","not_provided","desktop","0","0","1","","","","","","working_memory","","null","<div class=""fixation"">+</div>","null","","","","","","","","","","","","","","","","",""
"html-keyboard-response","118","457038","0.0-5.0-3.1-1.1-1.20","61563a4b0def9000ccc976ec","not_provided","desktop","0","0","1","","","","","","working_memory","","null","<img class='b' src=images/squares/green.png><img class='a' src=images/squares/cyan.png><img class='d' src=images/squares/red.png><img class='f' src=images/squares/blue.png><img class='h' src=images/squares/magenta.png><img class='g' src=images/squares/black.png><img class='k' src=images/squares/yellow.png><img class='l' src=images/squares/orange.png><div class=""fixation"">+</div>","null","","","memory","practice","20","8","","","","","","","","","","",""
"html-keyboard-response","119","457953","0.0-5.0-3.1-1.1-2.20","61563a4b0def9000ccc976ec","not_provided","desktop","0","0","1","","","","","","working_memory","","null","<div class=""fixation"">+</div>","null","","","","","","","","","","","","","","","","",""
"html-keyboard-response","120","459334","0.0-5.0-3.1-1.1-3.20","61563a4b0def9000ccc976ec","not_provided","desktop","0","0","1","","","","","","working_memory","","1381","<img class='h' src=images/squares/brown.png><div class=""fixation"">+</div>","k","","","test","practice","20","8","k","true","","","","","","","","",""
"html-keyboard-response","121","459850","0.0-5.0-3.1-1.1-4.20","61563a4b0def9000ccc976ec","not_provided","desktop","0","0","1","","","","","","working_memory","","null","<div class=""fixation"">Correct</div>","null","","","","","","","","","","","","","","","","",""
"html-keyboard-response","122","460866","0.0-5.0-3.1-1.1-0.21","61563a4b0def9000ccc976ec","not_provided","desktop","0","0","1","","","","","","working_memory","","null","<div class=""fixation"">+</div>","null","","","","","","","","","","","","","","","","",""
"html-keyboard-response","123","461070","0.0-5.0-3.1-1.1-1.21","61563a4b0def9000ccc976ec","not_provided","desktop","0","0","1","","","","","","working_memory","","null","<img class='b' src=images/squares/yellow.png><img class='e' src=images/squares/orange.png><img class='h' src=images/squares/cyan.png><img class='j' src=images/squares/black.png><div class=""fixation"">+</div>","null","","","memory","practice","21","4","","","","","","","","","","",""
"html-keyboard-response","124","461977","0.0-5.0-3.1-1.1-2.21","61563a4b0def9000ccc976ec","not_provided","desktop","0","0","1","","","","","","working_memory","","null","<div class=""fixation"">+</div>","null","","","","","","","","","","","","","","","","",""
"html-keyboard-response","125","462658","0.0-5.0-3.1-1.1-3.21","61563a4b0def9000ccc976ec","not_provided","desktop","0","0","1","","","","","","working_memory","","681","<img class='j' src=images/squares/magenta.png><div class=""fixation"">+</div>","k","","","test","practice","21","4","k","true","","","","","","","","",""
"html-keyboard-response","126","463164","0.0-5.0-3.1-1.1-4.21","61563a4b0def9000ccc976ec","not_provided","desktop","0","0","1","","","","","","working_memory","","null","<div class=""fixation"">Correct</div>","null","","","","","","","","","","","","","","","","",""
"html-keyboard-response","127","464195","0.0-5.0-3.1-1.1-0.22","61563a4b0def9000ccc976ec","not_provided","desktop","0","0","1","","","","","","working_memory","","null","<div class=""fixation"">+</div>","null","","","","","","","","","","","","","","","","",""
"html-keyboard-response","128","464398","0.0-5.0-3.1-1.1-1.22","61563a4b0def9000ccc976ec","not_provided","desktop","0","0","1","","","","","","working_memory","","null","<img class='c' src=images/squares/yellow.png><img class='b' src=images/squares/blue.png><img class='e' src=images/squares/magenta.png><img class='d' src=images/squares/black.png><img class='h' src=images/squares/red.png><img class='g' src=images/squares/green.png><img class='k' src=images/squares/cyan.png><img class='j' src=images/squares/orange.png><div class=""fixation"">+</div>","null","","","memory","practice","22","8","","","","","","","","","","",""
"html-keyboard-response","129","465298","0.0-5.0-3.1-1.1-2.22","61563a4b0def9000ccc976ec","not_provided","desktop","0","0","1","","","","","","working_memory","","null","<div class=""fixation"">+</div>","null","","","","","","","","","","","","","","","","",""
"html-keyboard-response","130","466707","0.0-5.0-3.1-1.1-3.22","61563a4b0def9000ccc976ec","not_provided","desktop","0","0","1","","","","","","working_memory","","1407","<img class='h' src=images/squares/red.png><div class=""fixation"">+</div>","k","","","test","practice","22","8","s","false","","","","","","","","",""
"html-keyboard-response","131","467211","0.0-5.0-3.1-1.1-4.22","61563a4b0def9000ccc976ec","not_provided","desktop","0","0","1","","","","","","working_memory","","null","<div class=""fixation"">Incorrect</div>","null","","","","","","","","","","","","","","","","",""
"html-keyboard-response","132","468226","0.0-5.0-3.1-1.1-0.23","61563a4b0def9000ccc976ec","not_provided","desktop","0","0","1","","","","","","working_memory","","null","<div class=""fixation"">+</div>","null","","","","","","","","","","","","","","","","",""
"html-keyboard-response","133","468440","0.0-5.0-3.1-1.1-1.23","61563a4b0def9000ccc976ec","not_provided","desktop","0","0","1","","","","","","working_memory","","null","<img class='upper1' src=images/squares/cyan.png><div class=""fixation"">+</div>","null","","","memory","practice","23","1","","","","","","","","","","",""
"html-keyboard-response","134","469351","0.0-5.0-3.1-1.1-2.23","61563a4b0def9000ccc976ec","not_provided","desktop","0","0","1","","","","","","working_memory","","null","<div class=""fixation"">+</div>","null","","","","","","","","","","","","","","","","",""
"html-keyboard-response","135","470498","0.0-5.0-3.1-1.1-3.23","61563a4b0def9000ccc976ec","not_provided","desktop","0","0","1","","","","","","working_memory","","1147","<img class='upper1' src=images/squares/magenta.png><div class=""fixation"">+</div>","k","","","test","practice","23","1","k","true","","","","","","","","",""
"html-keyboard-response","136","471007","0.0-5.0-3.1-1.1-4.23","61563a4b0def9000ccc976ec","not_provided","desktop","0","0","1","","","","","","working_memory","","null","<div class=""fixation"">Correct</div>","null","","","","","","","","","","","","","","","","",""
"html-keyboard-response","137","472023","0.0-5.0-3.1-1.1-0.24","61563a4b0def9000ccc976ec","not_provided","desktop","0","0","1","","","","","","working_memory","","null","<div class=""fixation"">+</div>","null","","","","","","","","","","","","","","","","",""
"html-keyboard-response","138","472223","0.0-5.0-3.1-1.1-1.24","61563a4b0def9000ccc976ec","not_provided","desktop","0","0","1","","","","","","working_memory","","null","<img class='c' src=images/squares/green.png><img class='d' src=images/squares/brown.png><img class='g' src=images/squares/cyan.png><img class='j' src=images/squares/red.png><div class=""fixation"">+</div>","null","","","memory","practice","24","4","","","","","","","","","","",""
"html-keyboard-response","139","473132","0.0-5.0-3.1-1.1-2.24","61563a4b0def9000ccc976ec","not_provided","desktop","0","0","1","","","","","","working_memory","","null","<div class=""fixation"">+</div>","null","","","","","","","","","","","","","","","","",""
"html-keyboard-response","140","474786","0.0-5.0-3.1-1.1-3.24","61563a4b0def9000ccc976ec","not_provided","desktop","0","0","1","","","","","","working_memory","","1654","<img class='j' src=images/squares/red.png><div class=""fixation"">+</div>","s","","","test","practice","24","4","s","true","","","","","","","","",""
"html-keyboard-response","141","475289","0.0-5.0-3.1-1.1-4.24","61563a4b0def9000ccc976ec","not_provided","desktop","0","0","1","","","","","","working_memory","","null","<div class=""fixation"">Correct</div>","null","","","","","","","","","","","","","","","","",""
"html-keyboard-response","142","476304","0.0-5.0-3.1-1.1-0.25","61563a4b0def9000ccc976ec","not_provided","desktop","0","0","1","","","","","","working_memory","","null","<div class=""fixation"">+</div>","null","","","","","","","","","","","","","","","","",""
"html-keyboard-response","143","476515","0.0-5.0-3.1-1.1-1.25","61563a4b0def9000ccc976ec","not_provided","desktop","0","0","1","","","","","","working_memory","","null","<img class='upper3' src=images/squares/cyan.png><div class=""fixation"">+</div>","null","","","memory","practice","25","1","","","","","","","","","","",""
"html-keyboard-response","144","477429","0.0-5.0-3.1-1.1-2.25","61563a4b0def9000ccc976ec","not_provided","desktop","0","0","1","","","","","","working_memory","","null","<div class=""fixation"">+</div>","null","","","","","","","","","","","","","","","","",""
"html-keyboard-response","145","478382","0.0-5.0-3.1-1.1-3.25","61563a4b0def9000ccc976ec","not_provided","desktop","0","0","1","","","","","","working_memory","","953","<img class='upper3' src=images/squares/green.png><div class=""fixation"">+</div>","k","","","test","practice","25","1","k","true","","","","","","","","",""
"html-keyboard-response","146","478898","0.0-5.0-3.1-1.1-4.25","61563a4b0def9000ccc976ec","not_provided","desktop","0","0","1","","","","","","working_memory","","null","<div class=""fixation"">Correct</div>","null","","","","","","","","","","","","","","","","",""
"html-keyboard-response","147","479913","0.0-5.0-3.1-1.1-0.26","61563a4b0def9000ccc976ec","not_provided","desktop","0","0","1","","","","","","working_memory","","null","<div class=""fixation"">+</div>","null","","","","","","","","","","","","","","","","",""
"html-keyboard-response","148","480116","0.0-5.0-3.1-1.1-1.26","61563a4b0def9000ccc976ec","not_provided","desktop","0","0","1","","","","","","working_memory","","null","<img class='a' src=images/squares/blue.png><img class='e' src=images/squares/brown.png><img class='g' src=images/squares/green.png><img class='k' src=images/squares/magenta.png><div class=""fixation"">+</div>","null","","","memory","practice","26","4","","","","","","","","","","",""
"html-keyboard-response","149","481023","0.0-5.0-3.1-1.1-2.26","61563a4b0def9000ccc976ec","not_provided","desktop","0","0","1","","","","","","working_memory","","null","<div class=""fixation"">+</div>","null","","","","","","","","","","","","","","","","",""
"html-keyboard-response","150","482142","0.0-5.0-3.1-1.1-3.26","61563a4b0def9000ccc976ec","not_provided","desktop","0","0","1","","","","","","working_memory","","1119","<img class='k' src=images/squares/magenta.png><div class=""fixation"">+</div>","s","","","test","practice","26","4","s","true","","","","","","","","",""
"html-keyboard-response","151","482648","0.0-5.0-3.1-1.1-4.26","61563a4b0def9000ccc976ec","not_provided","desktop","0","0","1","","","","","","working_memory","","null","<div class=""fixation"">Correct</div>","null","","","","","","","","","","","","","","","","",""
"html-keyboard-response","152","483663","0.0-5.0-3.1-1.1-0.27","61563a4b0def9000ccc976ec","not_provided","desktop","0","0","1","","","","","","working_memory","","null","<div class=""fixation"">+</div>","null","","","","","","","","","","","","","","","","",""
"html-keyboard-response","153","483867","0.0-5.0-3.1-1.1-1.27","61563a4b0def9000ccc976ec","not_provided","desktop","0","0","1","","","","","","working_memory","","null","<img class='upper3' src=images/squares/black.png><div class=""fixation"">+</div>","null","","","memory","practice","27","1","","","","","","","","","","",""
"html-keyboard-response","154","484772","0.0-5.0-3.1-1.1-2.27","61563a4b0def9000ccc976ec","not_provided","desktop","0","0","1","","","","","","working_memory","","null","<div class=""fixation"">+</div>","null","","","","","","","","","","","","","","","","",""
"html-keyboard-response","155","485454","0.0-5.0-3.1-1.1-3.27","61563a4b0def9000ccc976ec","not_provided","desktop","0","0","1","","","","","","working_memory","","681","<img class='upper3' src=images/squares/black.png><div class=""fixation"">+</div>","s","","","test","practice","27","1","s","true","","","","","","","","",""
"html-keyboard-response","156","485960","0.0-5.0-3.1-1.1-4.27","61563a4b0def9000ccc976ec","not_provided","desktop","0","0","1","","","","","","working_memory","","null","<div class=""fixation"">Correct</div>","null","","","","","","","","","","","","","","","","",""
"html-keyboard-response","157","486975","0.0-5.0-3.1-1.1-0.28","61563a4b0def9000ccc976ec","not_provided","desktop","0","0","1","","","","","","working_memory","","null","<div class=""fixation"">+</div>","null","","","","","","","","","","","","","","","","",""
"html-keyboard-response","158","487180","0.0-5.0-3.1-1.1-1.28","61563a4b0def9000ccc976ec","not_provided","desktop","0","0","1","","","","","","working_memory","","null","<img class='b' src=images/squares/cyan.png><img class='a' src=images/squares/magenta.png><img class='f' src=images/squares/orange.png><img class='d' src=images/squares/brown.png><img class='g' src=images/squares/red.png><img class='h' src=images/squares/blue.png><img class='j' src=images/squares/yellow.png><img class='k' src=images/squares/green.png><div class=""fixation"">+</div>","null","","","memory","practice","28","8","","","","","","","","","","",""
"html-keyboard-response","159","488086","0.0-5.0-3.1-1.1-2.28","61563a4b0def9000ccc976ec","not_provided","desktop","0","0","1","","","","","","working_memory","","null","<div class=""fixation"">+</div>","null","","","","","","","","","","","","","","","","",""
"html-keyboard-response","160","489055","0.0-5.0-3.1-1.1-3.28","61563a4b0def9000ccc976ec","not_provided","desktop","0","0","1","","","","","","working_memory","","968","<img class='k' src=images/squares/green.png><div class=""fixation"">+</div>","k","","","test","practice","28","8","s","false","","","","","","","","",""
"html-keyboard-response","161","489569","0.0-5.0-3.1-1.1-4.28","61563a4b0def9000ccc976ec","not_provided","desktop","0","0","1","","","","","","working_memory","","null","<div class=""fixation"">Incorrect</div>","null","","","","","","","","","","","","","","","","",""
"html-keyboard-response","162","490585","0.0-5.0-3.1-1.1-0.29","61563a4b0def9000ccc976ec","not_provided","desktop","0","0","1","","","","","","working_memory","","null","<div class=""fixation"">+</div>","null","","","","","","","","","","","","","","","","",""
"html-keyboard-response","163","490788","0.0-5.0-3.1-1.1-1.29","61563a4b0def9000ccc976ec","not_provided","desktop","0","0","1","","","","","","working_memory","","null","<img class='c' src=images/squares/blue.png><img class='b' src=images/squares/red.png><img class='d' src=images/squares/green.png><img class='e' src=images/squares/yellow.png><img class='i' src=images/squares/black.png><img class='g' src=images/squares/orange.png><img class='l' src=images/squares/magenta.png><img class='j' src=images/squares/cyan.png><div class=""fixation"">+</div>","null","","","memory","practice","29","8","","","","","","","","","","",""
"html-keyboard-response","164","491694","0.0-5.0-3.1-1.1-2.29","61563a4b0def9000ccc976ec","not_provided","desktop","0","0","1","","","","","","working_memory","","null","<div class=""fixation"">+</div>","null","","","","","","","","","","","","","","","","",""
"html-keyboard-response","165","492782","0.0-5.0-3.1-1.1-3.29","61563a4b0def9000ccc976ec","not_provided","desktop","0","0","1","","","","","","working_memory","","1087","<img class='d' src=images/squares/green.png><div class=""fixation"">+</div>","k","","","test","practice","29","8","s","false","","","","","","","","",""
"html-keyboard-response","166","493288","0.0-5.0-3.1-1.1-4.29","61563a4b0def9000ccc976ec","not_provided","desktop","0","0","1","","","","","","working_memory","","null","<div class=""fixation"">Incorrect</div>","null","","","","","","","","","","","","","","","","",""
"html-keyboard-response","167","499723","0.0-5.0-4.0","61563a4b0def9000ccc976ec","not_provided","desktop","0","0","1","","","","","","working_memory","","6434","<div style=""text-align:center;font-family:sans-serif;""><p>Good job! You have finished the practice.</p><p>We will now start the real experiment.</p><p>Please try to be as accurate as possible.</p><p><b><u>Note: random guessing may risk your payment.</u></b></p><br><p><b>Press any key to begin.</b></p></div>"," ","","","","","","","","","","","","","","","","",""
"html-keyboard-response","168","500726","0.0-5.0-5.0-0.0","61563a4b0def9000ccc976ec","not_provided","desktop","0","0","1","","","","","","working_memory","","null","<div class=""fixation"">+</div>","null","","","","","","","","","","","","","","","","",""
"html-keyboard-response","169","500939","0.0-5.0-5.0-1.0","61563a4b0def9000ccc976ec","not_provided","desktop","0","0","1","","","","","","working_memory","","null","<img class='a' src=images/squares/orange.png><img class='c' src=images/squares/red.png><img class='d' src=images/squares/black.png><img class='f' src=images/squares/blue.png><img class='g' src=images/squares/brown.png><img class='h' src=images/squares/magenta.png><img class='l' src=images/squares/cyan.png><img class='k' src=images/squares/yellow.png><div class=""fixation"">+</div>","null","","","memory","exp","0","","","","","","","","","","","",""
"html-keyboard-response","170","501851","0.0-5.0-5.0-2.0","61563a4b0def9000ccc976ec","not_provided","desktop","0","0","1","","","","","","working_memory","","null","<div class=""fixation"">+</div>","null","","","","","","","","","","","","","","","","",""
"html-keyboard-response","171","502822","0.0-5.0-5.0-3.0","61563a4b0def9000ccc976ec","not_provided","desktop","0","0","1","","","","","","working_memory","","971","<img class='k' src=images/squares/yellow.png><div class=""fixation"">+</div>","k","","","test_squares","exp","0","8","s","false","sk","s","","","","","","",""
"html-keyboard-response","172","503336","0.0-5.0-5.0-4.0","61563a4b0def9000ccc976ec","not_provided","desktop","0","0","1","","","","","","working_memory","","null","<div class=""fixation"">Incorrect</div>","null","","","","","","","","","","","","","","","","",""
"html-keyboard-response","173","504351","0.0-5.0-5.0-0.1","61563a4b0def9000ccc976ec","not_provided","desktop","0","0","1","","","","","","working_memory","","null","<div class=""fixation"">+</div>","null","","","","","","","","","","","","","","","","",""
"html-keyboard-response","174","504555","0.0-5.0-5.0-1.1","61563a4b0def9000ccc976ec","not_provided","desktop","0","0","1","","","","","","working_memory","","null","<img class='a' src=images/squares/magenta.png><img class='b' src=images/squares/orange.png><img class='f' src=images/squares/red.png><img class='d' src=images/squares/cyan.png><img class='i' src=images/squares/green.png><img class='h' src=images/squares/black.png><img class='j' src=images/squares/brown.png><img class='k' src=images/squares/blue.png><div class=""fixation"">+</div>","null","","","memory","exp","1","","","","","","","","","","","",""
"html-keyboard-response","175","505461","0.0-5.0-5.0-2.1","61563a4b0def9000ccc976ec","not_provided","desktop","0","0","1","","","","","","working_memory","","null","<div class=""fixation"">+</div>","null","","","","","","","","","","","","","","","","",""
"html-keyboard-response","176","507018","0.0-5.0-5.0-3.1","61563a4b0def9000ccc976ec","not_provided","desktop","0","0","1","","","","","","working_memory","","1557","<img class='i' src=images/squares/yellow.png><div class=""fixation"">+</div>","k","","","test_squares","exp","1","8","k","true","sk","d","","","","","","",""
"html-keyboard-response","177","507523","0.0-5.0-5.0-4.1","61563a4b0def9000ccc976ec","not_provided","desktop","0","0","1","","","","","","working_memory","","null","<div class=""fixation"">Correct</div>","null","","","","","","","","","","","","","","","","",""
"html-keyboard-response","178","508539","0.0-5.0-5.0-0.2","61563a4b0def9000ccc976ec","not_provided","desktop","0","0","1","","","","","","working_memory","","null","<div class=""fixation"">+</div>","null","","","","","","","","","","","","","","","","",""
"html-keyboard-response","179","508742","0.0-5.0-5.0-1.2","61563a4b0def9000ccc976ec","not_provided","desktop","0","0","1","","","","","","working_memory","","null","<img class='c' src=images/squares/red.png><img class='d' src=images/squares/brown.png><img class='g' src=images/squares/blue.png><img class='l' src=images/squares/magenta.png><div class=""fixation"">+</div>","null","","","memory","exp","2","","","","","","","","","","","",""
"html-keyboard-response","180","509648","0.0-5.0-5.0-2.2","61563a4b0def9000ccc976ec","not_provided","desktop","0","0","1","","","","","","working_memory","","null","<div class=""fixation"">+</div>","null","","","","","","","","","","","","","","","","",""
"html-keyboard-response","181","510982","0.0-5.0-5.0-3.2","61563a4b0def9000ccc976ec","not_provided","desktop","0","0","1","","","","","","working_memory","","1333","<img class='d' src=images/squares/brown.png><div class=""fixation"">+</div>","k","","","test_squares","exp","2","4","s","false","sk","s","","","","","","",""
"html-keyboard-response","182","511483","0.0-5.0-5.0-4.2","61563a4b0def9000ccc976ec","not_provided","desktop","0","0","1","","","","","","working_memory","","null","<div class=""fixation"">Incorrect</div>","null","","","","","","","","","","","","","","","","",""
"html-keyboard-response","183","512491","0.0-5.0-5.0-0.3","61563a4b0def9000ccc976ec","not_provided","desktop","0","0","1","","","","","","working_memory","","null","<div class=""fixation"">+</div>","null","","","","","","","","","","","","","","","","",""
"html-keyboard-response","184","512695","0.0-5.0-5.0-1.3","61563a4b0def9000ccc976ec","not_provided","desktop","0","0","1","","","","","","working_memory","","null","<img class='a' src=images/squares/black.png><img class='f' src=images/squares/yellow.png><img class='i' src=images/squares/blue.png><img class='j' src=images/squares/magenta.png><div class=""fixation"">+</div>","null","","","memory","exp","3","","","","","","","","","","","",""
"html-keyboard-response","185","513609","0.0-5.0-5.0-2.3","61563a4b0def9000ccc976ec","not_provided","desktop","0","0","1","","","","","","working_memory","","null","<div class=""fixation"">+</div>","null","","","","","","","","","","","","","","","","",""
"html-keyboard-response","186","515046","0.0-5.0-5.0-3.3","61563a4b0def9000ccc976ec","not_provided","desktop","0","0","1","","","","","","working_memory","","1437","<img class='j' src=images/squares/cyan.png><div class=""fixation"">+</div>","k","","","test_squares","exp","3","4","k","true","sk","d","","","","","","",""
"html-keyboard-response","187","515554","0.0-5.0-5.0-4.3","61563a4b0def9000ccc976ec","not_provided","desktop","0","0","1","","","","","","working_memory","","null","<div class=""fixation"">Correct</div>","null","","","","","","","","","","","","","","","","",""
"html-keyboard-response","188","516570","0.0-5.0-5.0-0.4","61563a4b0def9000ccc976ec","not_provided","desktop","0","0","1","","","","","","working_memory","","null","<div class=""fixation"">+</div>","null","","","","","","","","","","","","","","","","",""
"html-keyboard-response","189","516786","0.0-5.0-5.0-1.4","61563a4b0def9000ccc976ec","not_provided","desktop","0","0","1","","","","","","working_memory","","null","<img class='b' src=images/squares/blue.png><img class='c' src=images/squares/orange.png><img class='e' src=images/squares/magenta.png><img class='f' src=images/squares/cyan.png><img class='i' src=images/squares/yellow.png><img class='h' src=images/squares/black.png><img class='l' src=images/squares/red.png><img class='j' src=images/squares/brown.png><div class=""fixation"">+</div>","null","","","memory","exp","4","","","","","","","","","","","",""
"html-keyboard-response","190","517695","0.0-5.0-5.0-2.4","61563a4b0def9000ccc976ec","not_provided","desktop","0","0","1","","","","","","working_memory","","null","<div class=""fixation"">+</div>","null","","","","","","","","","","","","","","","","",""
"html-keyboard-response","191","518678","0.0-5.0-5.0-3.4","61563a4b0def9000ccc976ec","not_provided","desktop","0","0","1","","","","","","working_memory","","982","<img class='f' src=images/squares/cyan.png><div class=""fixation"">+</div>","s","","","test_squares","exp","4","8","s","true","sk","s","","","","","","",""
"html-keyboard-response","192","519179","0.0-5.0-5.0-4.4","61563a4b0def9000ccc976ec","not_provided","desktop","0","0","1","","","","","","working_memory","","null","<div class=""fixation"">Correct</div>","null","","","","","","","","","","","","","","","","",""
"html-keyboard-response","193","520187","0.0-5.0-5.0-0.5","61563a4b0def9000ccc976ec","not_provided","desktop","0","0","1","","","","","","working_memory","","null","<div class=""fixation"">+</div>","null","","","","","","","","","","","","","","","","",""
"html-keyboard-response","194","520398","0.0-5.0-5.0-1.5","61563a4b0def9000ccc976ec","not_provided","desktop","0","0","1","","","","","","working_memory","","null","<img class='c' src=images/squares/black.png><img class='f' src=images/squares/blue.png><img class='i' src=images/squares/red.png><img class='l' src=images/squares/cyan.png><div class=""fixation"">+</div>","null","","","memory","exp","5","","","","","","","","","","","",""
"html-keyboard-response","195","521305","0.0-5.0-5.0-2.5","61563a4b0def9000ccc976ec","not_provided","desktop","0","0","1","","","","","","working_memory","","null","<div class=""fixation"">+</div>","null","","","","","","","","","","","","","","","","",""
"html-keyboard-response","196","522262","0.0-5.0-5.0-3.5","61563a4b0def9000ccc976ec","not_provided","desktop","0","0","1","","","","","","working_memory","","957","<img class='c' src=images/squares/yellow.png><div class=""fixation"">+</div>","k","","","test_squares","exp","5","4","k","true","sk","d","","","","","","",""
"html-keyboard-response","197","522772","0.0-5.0-5.0-4.5","61563a4b0def9000ccc976ec","not_provided","desktop","0","0","1","","","","","","working_memory","","null","<div class=""fixation"">Correct</div>","null","","","","","","","","","","","","","","","","",""
"html-keyboard-response","198","523789","0.0-5.0-5.0-0.6","61563a4b0def9000ccc976ec","not_provided","desktop","0","0","1","","","","","","working_memory","","null","<div class=""fixation"">+</div>","null","","","","","","","","","","","","","","","","",""
"html-keyboard-response","199","523991","0.0-5.0-5.0-1.6","61563a4b0def9000ccc976ec","not_provided","desktop","0","0","1","","","","","","working_memory","","null","<img class='a' src=images/squares/cyan.png><img class='c' src=images/squares/orange.png><img class='f' src=images/squares/red.png><img class='d' src=images/squares/brown.png><img class='i' src=images/squares/black.png><img class='g' src=images/squares/green.png><img class='j' src=images/squares/yellow.png><img class='l' src=images/squares/blue.png><div class=""fixation"">+</div>","null","","","memory","exp","6","","","","","","","","","","","",""
"html-keyboard-response","200","524898","0.0-5.0-5.0-2.6","61563a4b0def9000ccc976ec","not_provided","desktop","0","0","1","","","","","","working_memory","","null","<div class=""fixation"">+</div>","null","","","","","","","","","","","","","","","","",""
"html-keyboard-response","201","526018","0.0-5.0-5.0-3.6","61563a4b0def9000ccc976ec","not_provided","desktop","0","0","1","","","","","","working_memory","","1120","<img class='f' src=images/squares/magenta.png><div class=""fixation"">+</div>","k","","","test_squares","exp","6","8","k","true","sk","d","","","","","","",""
"html-keyboard-response","202","526522","0.0-5.0-5.0-4.6","61563a4b0def9000ccc976ec","not_provided","desktop","0","0","1","","","","","","working_memory","","null","<div class=""fixation"">Correct</div>","null","","","","","","","","","","","","","","","","",""
"html-keyboard-response","203","527539","0.0-5.0-5.0-0.7","61563a4b0def9000ccc976ec","not_provided","desktop","0","0","1","","","","","","working_memory","","null","<div class=""fixation"">+</div>","null","","","","","","","","","","","","","","","","",""
"html-keyboard-response","204","527741","0.0-5.0-5.0-1.7","61563a4b0def9000ccc976ec","not_provided","desktop","0","0","1","","","","","","working_memory","","null","<img class='c' src=images/squares/red.png><img class='a' src=images/squares/blue.png><img class='d' src=images/squares/cyan.png><img class='f' src=images/squares/orange.png><img class='i' src=images/squares/green.png><img class='g' src=images/squares/magenta.png><img class='j' src=images/squares/brown.png><img class='l' src=images/squares/yellow.png><div class=""fixation"">+</div>","null","","","memory","exp","7","","","","","","","","","","","",""
"html-keyboard-response","205","528649","0.0-5.0-5.0-2.7","61563a4b0def9000ccc976ec","not_provided","desktop","0","0","1","","","","","","working_memory","","null","<div class=""fixation"">+</div>","null","","","","","","","","","","","","","","","","",""
"html-keyboard-response","206","529986","0.0-5.0-5.0-3.7","61563a4b0def9000ccc976ec","not_provided","desktop","0","0","1","","","","","","working_memory","","1337","<img class='d' src=images/squares/cyan.png><div class=""fixation"">+</div>","k","","","test_squares","exp","7","8","s","false","sk","s","","","","","","",""
"html-keyboard-response","207","530492","0.0-5.0-5.0-4.7","61563a4b0def9000ccc976ec","not_provided","desktop","0","0","1","","","","","","working_memory","","null","<div class=""fixation"">Incorrect</div>","null","","","","","","","","","","","","","","","","",""
"html-keyboard-response","208","531507","0.0-5.0-5.0-0.8","61563a4b0def9000ccc976ec","not_provided","desktop","0","0","1","","","","","","working_memory","","null","<div class=""fixation"">+</div>","null","","","","","","","","","","","","","","","","",""
"html-keyboard-response","209","531721","0.0-5.0-5.0-1.8","61563a4b0def9000ccc976ec","not_provided","desktop","0","0","1","","","","","","working_memory","","null","<img class='b' src=images/squares/cyan.png><img class='c' src=images/squares/orange.png><img class='e' src=images/squares/yellow.png><img class='f' src=images/squares/blue.png><img class='i' src=images/squares/green.png><img class='h' src=images/squares/red.png><img class='j' src=images/squares/magenta.png><img class='l' src=images/squares/black.png><div class=""fixation"">+</div>","null","","","memory","exp","8","","","","","","","","","","","",""
"html-keyboard-response","210","532631","0.0-5.0-5.0-2.8","61563a4b0def9000ccc976ec","not_provided","desktop","0","0","1","","","","","","working_memory","","null","<div class=""fixation"">+</div>","null","","","","","","","","","","","","","","","","",""
"html-keyboard-response","211","533614","0.0-5.0-5.0-3.8","61563a4b0def9000ccc976ec","not_provided","desktop","0","0","1","","","","","","working_memory","","983","<img class='h' src=images/squares/red.png><div class=""fixation"">+</div>","k","","","test_squares","exp","8","8","s","false","sk","s","","","","","","",""
"html-keyboard-response","212","534117","0.0-5.0-5.0-4.8","61563a4b0def9000ccc976ec","not_provided","desktop","0","0","1","","","","","","working_memory","","null","<div class=""fixation"">Incorrect</div>","null","","","","","","","","","","","","","","","","",""
"html-keyboard-response","213","535132","0.0-5.0-5.0-0.9","61563a4b0def9000ccc976ec","not_provided","desktop","0","0","1","","","","","","working_memory","","null","<div class=""fixation"">+</div>","null","","","","","","","","","","","","","","","","",""
"html-keyboard-response","214","535343","0.0-5.0-5.0-1.9","61563a4b0def9000ccc976ec","not_provided","desktop","0","0","1","","","","","","working_memory","","null","<img class='b' src=images/squares/green.png><img class='e' src=images/squares/magenta.png><img class='i' src=images/squares/blue.png><img class='k' src=images/squares/yellow.png><div class=""fixation"">+</div>","null","","","memory","exp","9","","","","","","","","","","","",""
"html-keyboard-response","215","536257","0.0-5.0-5.0-2.9","61563a4b0def9000ccc976ec","not_provided","desktop","0","0","1","","","","","","working_memory","","null","<div class=""fixation"">+</div>","null","","","","","","","","","","","","","","","","",""
"html-keyboard-response","216","537170","0.0-5.0-5.0-3.9","61563a4b0def9000ccc976ec","not_provided","desktop","0","0","1","","","","","","working_memory","","913","<img class='e' src=images/squares/magenta.png><div class=""fixation"">+</div>","k","","","test_squares","exp","9","4","s","false","sk","s","","","","","","",""
"html-keyboard-response","217","537678","0.0-5.0-5.0-4.9","61563a4b0def9000ccc976ec","not_provided","desktop","0","0","1","","","","","","working_memory","","null","<div class=""fixation"">Incorrect</div>","null","","","","","","","","","","","","","","","","",""
"html-keyboard-response","218","538695","0.0-5.0-5.0-0.10","61563a4b0def9000ccc976ec","not_provided","desktop","0","0","1","","","","","","working_memory","","null","<div class=""fixation"">+</div>","null","","","","","","","","","","","","","","","","",""
"html-keyboard-response","219","538898","0.0-5.0-5.0-1.10","61563a4b0def9000ccc976ec","not_provided","desktop","0","0","1","","","","","","working_memory","","null","<img class='c' src=images/squares/cyan.png><img class='b' src=images/squares/red.png><img class='f' src=images/squares/black.png><img class='e' src=images/squares/brown.png><img class='g' src=images/squares/magenta.png><img class='i' src=images/squares/green.png><img class='j' src=images/squares/orange.png><img class='l' src=images/squares/blue.png><div class=""fixation"">+</div>","null","","","memory","exp","10","","","","","","","","","","","",""
"html-keyboard-response","220","539812","0.0-5.0-5.0-2.10","61563a4b0def9000ccc976ec","not_provided","desktop","0","0","1","","","","","","working_memory","","null","<div class=""fixation"">+</div>","null","","","","","","","","","","","","","","","","",""
"html-keyboard-response","221","540814","0.0-5.0-5.0-3.10","61563a4b0def9000ccc976ec","not_provided","desktop","0","0","1","","","","","","working_memory","","1001","<img class='l' src=images/squares/yellow.png><div class=""fixation"">+</div>","k","","","test_squares","exp","10","8","k","true","sk","d","","","","","","",""
"html-keyboard-response","222","541320","0.0-5.0-5.0-4.10","61563a4b0def9000ccc976ec","not_provided","desktop","0","0","1","","","","","","working_memory","","null","<div class=""fixation"">Correct</div>","null","","","","","","","","","","","","","","","","",""
"html-keyboard-response","223","542328","0.0-5.0-5.0-0.11","61563a4b0def9000ccc976ec","not_provided","desktop","0","0","1","","","","","","working_memory","","null","<div class=""fixation"">+</div>","null","","","","","","","","","","","","","","","","",""
"html-keyboard-response","224","542538","0.0-5.0-5.0-1.11","61563a4b0def9000ccc976ec","not_provided","desktop","0","0","1","","","","","","working_memory","","null","<img class='a' src=images/squares/blue.png><img class='d' src=images/squares/yellow.png><img class='h' src=images/squares/red.png><img class='j' src=images/squares/magenta.png><div class=""fixation"">+</div>","null","","","memory","exp","11","","","","","","","","","","","",""
"html-keyboard-response","225","543444","0.0-5.0-5.0-2.11","61563a4b0def9000ccc976ec","not_provided","desktop","0","0","1","","","","","","working_memory","","null","<div class=""fixation"">+</div>","null","","","","","","","","","","","","","","","","",""
"html-keyboard-response","226","544414","0.0-5.0-5.0-3.11","61563a4b0def9000ccc976ec","not_provided","desktop","0","0","1","","","","","","working_memory","","970","<img class='h' src=images/squares/red.png><div class=""fixation"">+</div>","s","","","test_squares","exp","11","4","s","true","sk","s","","","","","","",""
"html-keyboard-response","227","544921","0.0-5.0-5.0-4.11","61563a4b0def9000ccc976ec","not_provided","desktop","0","0","1","","","","","","working_memory","","null","<div class=""fixation"">Correct</div>","null","","","","","","","","","","","","","","","","",""
"html-keyboard-response","228","545936","0.0-5.0-5.0-0.12","61563a4b0def9000ccc976ec","not_provided","desktop","0","0","1","","","","","","working_memory","","null","<div class=""fixation"">+</div>","null","","","","","","","","","","","","","","","","",""
"html-keyboard-response","229","546148","0.0-5.0-5.0-1.12","61563a4b0def9000ccc976ec","not_provided","desktop","0","0","1","","","","","","working_memory","","null","<img class='a' src=images/squares/orange.png><img class='e' src=images/squares/red.png><img class='i' src=images/squares/brown.png><img class='k' src=images/squares/yellow.png><div class=""fixation"">+</div>","null","","","memory","exp","12","","","","","","","","","","","",""
"html-keyboard-response","230","547061","0.0-5.0-5.0-2.12","61563a4b0def9000ccc976ec","not_provided","desktop","0","0","1","","","","","","working_memory","","null","<div class=""fixation"">+</div>","null","","","","","","","","","","","","","","","","",""
"html-keyboard-response","231","547918","0.0-5.0-5.0-3.12","61563a4b0def9000ccc976ec","not_provided","desktop","0","0","1","","","","","","working_memory","","856","<img class='a' src=images/squares/cyan.png><div class=""fixation"">+</div>","k","","","test_squares","exp","12","4","k","true","sk","d","","","","","","",""
"html-keyboard-response","232","548430","0.0-5.0-5.0-4.12","61563a4b0def9000ccc976ec","not_provided","desktop","0","0","1","","","","","","working_memory","","null","<div class=""fixation"">Correct</div>","null","","","","","","","","","","","","","","","","",""
"html-keyboard-response","233","549444","0.0-5.0-5.0-0.13","61563a4b0def9000ccc976ec","not_provided","desktop","0","0","1","","","","","","working_memory","","null","<div class=""fixation"">+</div>","null","","","","","","","","","","","","","","","","",""
"html-keyboard-response","234","549646","0.0-5.0-5.0-1.13","61563a4b0def9000ccc976ec","not_provided","desktop","0","0","1","","","","","","working_memory","","null","<img class='b' src=images/squares/black.png><img class='c' src=images/squares/magenta.png><img class='d' src=images/squares/blue.png><img class='f' src=images/squares/yellow.png><img class='i' src=images/squares/orange.png><img class='g' src=images/squares/brown.png><img class='k' src=images/squares/green.png><img class='l' src=images/squares/cyan.png><div class=""fixation"">+</div>","null","","","memory","exp","13","","","","","","","","","","","",""
"html-keyboard-response","235","550554","0.0-5.0-5.0-2.13","61563a4b0def9000ccc976ec","not_provided","desktop","0","0","1","","","","","","working_memory","","null","<div class=""fixation"">+</div>","null","","","","","","","","","","","","","","","","",""
"html-keyboard-response","236","552222","0.0-5.0-5.0-3.13","61563a4b0def9000ccc976ec","not_provided","desktop","0","0","1","","","","","","working_memory","","1667","<img class='i' src=images/squares/red.png><div class=""fixation"">+</div>","k","","","test_squares","exp","13","8","k","true","sk","d","","","","","","",""
"html-keyboard-response","237","552726","0.0-5.0-5.0-4.13","61563a4b0def9000ccc976ec","not_provided","desktop","0","0","1","","","","","","working_memory","","null","<div class=""fixation"">Correct</div>","null","","","","","","","","","","","","","","","","",""
"html-keyboard-response","238","553742","0.0-5.0-5.0-0.14","61563a4b0def9000ccc976ec","not_provided","desktop","0","0","1","","","","","","working_memory","","null","<div class=""fixation"">+</div>","null","","","","","","","","","","","","","","","","",""
"html-keyboard-response","239","553958","0.0-5.0-5.0-1.14","61563a4b0def9000ccc976ec","not_provided","desktop","0","0","1","","","","","","working_memory","","null","<img class='a' src=images/squares/red.png><img class='d' src=images/squares/brown.png><img class='i' src=images/squares/yellow.png><img class='k' src=images/squares/magenta.png><div class=""fixation"">+</div>","null","","","memory","exp","14","","","","","","","","","","","",""
"html-keyboard-response","240","554867","0.0-5.0-5.0-2.14","61563a4b0def9000ccc976ec","not_provided","desktop","0","0","1","","","","","","working_memory","","null","<div class=""fixation"">+</div>","null","","","","","","","","","","","","","","","","",""
"html-keyboard-response","241","556490","0.0-5.0-5.0-3.14","61563a4b0def9000ccc976ec","not_provided","desktop","0","0","1","","","","","","working_memory","","1622","<img class='d' src=images/squares/blue.png><div class=""fixation"">+</div>","s","","","test_squares","exp","14","4","k","false","sk","d","","","","","","",""
"html-keyboard-response","242","556993","0.0-5.0-5.0-4.14","61563a4b0def9000ccc976ec","not_provided","desktop","0","0","1","","","","","","working_memory","","null","<div class=""fixation"">Incorrect</div>","null","","","","","","","","","","","","","","","","",""
"html-keyboard-response","243","558008","0.0-5.0-5.0-0.15","61563a4b0def9000ccc976ec","not_provided","desktop","0","0","1","","","","","","working_memory","","null","<div class=""fixation"">+</div>","null","","","","","","","","","","","","","","","","",""
"html-keyboard-response","244","558210","0.0-5.0-5.0-1.15","61563a4b0def9000ccc976ec","not_provided","desktop","0","0","1","","","","","","working_memory","","null","<img class='c' src=images/squares/magenta.png><img class='b' src=images/squares/red.png><img class='f' src=images/squares/black.png><img class='d' src=images/squares/yellow.png><img class='g' src=images/squares/cyan.png><img class='i' src=images/squares/green.png><img class='l' src=images/squares/blue.png><img class='j' src=images/squares/brown.png><div class=""fixation"">+</div>","null","","","memory","exp","15","","","","","","","","","","","",""
"html-keyboard-response","245","559117","0.0-5.0-5.0-2.15","61563a4b0def9000ccc976ec","not_provided","desktop","0","0","1","","","","","","working_memory","","null","<div class=""fixation"">+</div>","null","","","","","","","","","","","","","","","","",""
"html-keyboard-response","246","560010","0.0-5.0-5.0-3.15","61563a4b0def9000ccc976ec","not_provided","desktop","0","0","1","","","","","","working_memory","","893","<img class='b' src=images/squares/red.png><div class=""fixation"">+</div>","k","","","test_squares","exp","15","8","s","false","sk","s","","","","","","",""
"html-keyboard-response","247","560522","0.0-5.0-5.0-4.15","61563a4b0def9000ccc976ec","not_provided","desktop","0","0","1","","","","","","working_memory","","null","<div class=""fixation"">Incorrect</div>","null","","","","","","","","","","","","","","","","",""
"html-keyboard-response","248","561531","0.0-5.0-5.0-0.16","61563a4b0def9000ccc976ec","not_provided","desktop","0","0","1","","","","","","working_memory","","null","<div class=""fixation"">+</div>","null","","","","","","","","","","","","","","","","",""
"html-keyboard-response","249","561742","0.0-5.0-5.0-1.16","61563a4b0def9000ccc976ec","not_provided","desktop","0","0","1","","","","","","working_memory","","null","<img class='b' src=images/squares/green.png><img class='c' src=images/squares/orange.png><img class='e' src=images/squares/blue.png><img class='d' src=images/squares/cyan.png><img class='g' src=images/squares/brown.png><img class='h' src=images/squares/magenta.png><img class='k' src=images/squares/black.png><img class='j' src=images/squares/yellow.png><div class=""fixation"">+</div>","null","","","memory","exp","16","","","","","","","","","","","",""
"html-keyboard-response","250","562663","0.0-5.0-5.0-2.16","61563a4b0def9000ccc976ec","not_provided","desktop","0","0","1","","","","","","working_memory","","null","<div class=""fixation"">+</div>","null","","","","","","","","","","","","","","","","",""
"html-keyboard-response","251","563946","0.0-5.0-5.0-3.16","61563a4b0def9000ccc976ec","not_provided","desktop","0","0","1","","","","","","working_memory","","1282","<img class='h' src=images/squares/red.png><div class=""fixation"">+</div>","s","","","test_squares","exp","16","8","k","false","sk","d","","","","","","",""
"html-keyboard-response","252","564459","0.0-5.0-5.0-4.16","61563a4b0def9000ccc976ec","not_provided","desktop","0","0","1","","","","","","working_memory","","null","<div class=""fixation"">Incorrect</div>","null","","","","","","","","","","","","","","","","",""
"html-keyboard-response","253","565461","0.0-5.0-5.0-0.17","61563a4b0def9000ccc976ec","not_provided","desktop","0","0","1","","","","","","working_memory","","null","<div class=""fixation"">+</div>","null","","","","","","","","","","","","","","","","",""
"html-keyboard-response","254","565672","0.0-5.0-5.0-1.17","61563a4b0def9000ccc976ec","not_provided","desktop","0","0","1","","","","","","working_memory","","null","<img class='b' src=images/squares/brown.png><img class='d' src=images/squares/black.png><img class='i' src=images/squares/magenta.png><img class='k' src=images/squares/red.png><div class=""fixation"">+</div>","null","","","memory","exp","17","","","","","","","","","","","",""
"html-keyboard-response","255","566593","0.0-5.0-5.0-2.17","61563a4b0def9000ccc976ec","not_provided","desktop","0","0","1","","","","","","working_memory","","null","<div class=""fixation"">+</div>","null","","","","","","","","","","","","","","","","",""
"html-keyboard-response","256","568042","0.0-5.0-5.0-3.17","61563a4b0def9000ccc976ec","not_provided","desktop","0","0","1","","","","","","working_memory","","1448","<img class='i' src=images/squares/green.png><div class=""fixation"">+</div>","k","","","test_squares","exp","17","4","k","true","sk","d","","","","","","",""
"html-keyboard-response","257","568554","0.0-5.0-5.0-4.17","61563a4b0def9000ccc976ec","not_provided","desktop","0","0","1","","","","","","working_memory","","null","<div class=""fixation"">Correct</div>","null","","","","","","","","","","","","","","","","",""
"html-keyboard-response","258","569570","0.0-5.0-5.0-0.18","61563a4b0def9000ccc976ec","not_provided","desktop","0","0","1","","","","","","working_memory","","null","<div class=""fixation"">+</div>","null","","","","","","","","","","","","","","","","",""
"html-keyboard-response","259","569775","0.0-5.0-5.0-1.18","61563a4b0def9000ccc976ec","not_provided","desktop","0","0","1","","","","","","working_memory","","null","<img class='a' src=images/squares/yellow.png><img class='e' src=images/squares/magenta.png><img class='g' src=images/squares/black.png><img class='j' src=images/squares/cyan.png><div class=""fixation"">+</div>","null","","","memory","exp","18","","","","","","","","","","","",""
"html-keyboard-response","260","570679","0.0-5.0-5.0-2.18","61563a4b0def9000ccc976ec","not_provided","desktop","0","0","1","","","","","","working_memory","","null","<div class=""fixation"">+</div>","null","","","","","","","","","","","","","","","","",""
"html-keyboard-response","261","571878","0.0-5.0-5.0-3.18","61563a4b0def9000ccc976ec","not_provided","desktop","0","0","1","","","","","","working_memory","","1199","<img class='g' src=images/squares/brown.png><div class=""fixation"">+</div>","k","","","test_squares","exp","18","4","k","true","sk","d","","","","","","",""
"html-keyboard-response","262","572383","0.0-5.0-5.0-4.18","61563a4b0def9000ccc976ec","not_provided","desktop","0","0","1","","","","","","working_memory","","null","<div class=""fixation"">Correct</div>","null","","","","","","","","","","","","","","","","",""
"html-keyboard-response","263","573397","0.0-5.0-5.0-0.19","61563a4b0def9000ccc976ec","not_provided","desktop","0","0","1","","","","","","working_memory","","null","<div class=""fixation"">+</div>","null","","","","","","","","","","","","","","","","",""
"html-keyboard-response","264","573610","0.0-5.0-5.0-1.19","61563a4b0def9000ccc976ec","not_provided","desktop","0","0","1","","","","","","working_memory","","null","<img class='a' src=images/squares/yellow.png><img class='d' src=images/squares/green.png><img class='g' src=images/squares/black.png><img class='l' src=images/squares/blue.png><div class=""fixation"">+</div>","null","","","memory","exp","19","","","","","","","","","","","",""
"html-keyboard-response","265","574522","0.0-5.0-5.0-2.19","61563a4b0def9000ccc976ec","not_provided","desktop","0","0","1","","","","","","working_memory","","null","<div class=""fixation"">+</div>","null","","","","","","","","","","","","","","","","",""
"html-keyboard-response","266","576246","0.0-5.0-5.0-3.19","61563a4b0def9000ccc976ec","not_provided","desktop","0","0","1","","","","","","working_memory","","1724","<img class='a' src=images/squares/red.png><div class=""fixation"">+</div>","k","","","test_squares","exp","19","4","k","true","sk","d","","","","","","",""
"html-keyboard-response","267","576749","0.0-5.0-5.0-4.19","61563a4b0def9000ccc976ec","not_provided","desktop","0","0","1","","","","","","working_memory","","null","<div class=""fixation"">Correct</div>","null","","","","","","","","","","","","","","","","",""
"html-keyboard-response","268","577750","0.0-5.0-5.0-0.20","61563a4b0def9000ccc976ec","not_provided","desktop","0","0","1","","","","","","working_memory","","null","<div class=""fixation"">+</div>","null","","","","","","","","","","","","","","","","",""
"html-keyboard-response","269","577960","0.0-5.0-5.0-1.20","61563a4b0def9000ccc976ec","not_provided","desktop","0","0","1","","","","","","working_memory","","null","<img class='a' src=images/squares/blue.png><img class='b' src=images/squares/brown.png><img class='d' src=images/squares/cyan.png><img class='e' src=images/squares/yellow.png><img class='h' src=images/squares/orange.png><img class='i' src=images/squares/black.png><img class='j' src=images/squares/magenta.png><img class='l' src=images/squares/green.png><div class=""fixation"">+</div>","null","","","memory","exp","20","","","","","","","","","","","",""
"html-keyboard-response","270","578882","0.0-5.0-5.0-2.20","61563a4b0def9000ccc976ec","not_provided","desktop","0","0","1","","","","","","working_memory","","null","<div class=""fixation"">+</div>","null","","","","","","","","","","","","","","","","",""
"html-keyboard-response","271","579718","0.0-5.0-5.0-3.20","61563a4b0def9000ccc976ec","not_provided","desktop","0","0","1","","","","","","working_memory","","835","<img class='j' src=images/squares/magenta.png><div class=""fixation"">+</div>","k","","","test_squares","exp","20","8","s","false","sk","s","","","","","","",""
"html-keyboard-response","272","580226","0.0-5.0-5.0-4.20","61563a4b0def9000ccc976ec","not_provided","desktop","0","0","1","","","","","","working_memory","","null","<div class=""fixation"">Incorrect</div>","null","","","","","","","","","","","","","","","","",""
"html-keyboard-response","273","581242","0.0-5.0-5.0-0.21","61563a4b0def9000ccc976ec","not_provided","desktop","0","0","1","","","","","","working_memory","","null","<div class=""fixation"">+</div>","null","","","","","","","","","","","","","","","","",""
"html-keyboard-response","274","581457","0.0-5.0-5.0-1.21","61563a4b0def9000ccc976ec","not_provided","desktop","0","0","1","","","","","","working_memory","","null","<img class='c' src=images/squares/black.png><img class='e' src=images/squares/magenta.png><img class='h' src=images/squares/cyan.png><img class='k' src=images/squares/red.png><div class=""fixation"">+</div>","null","","","memory","exp","21","","","","","","","","","","","",""
"html-keyboard-response","275","582370","0.0-5.0-5.0-2.21","61563a4b0def9000ccc976ec","not_provided","desktop","0","0","1","","","","","","working_memory","","null","<div class=""fixation"">+</div>","null","","","","","","","","","","","","","","","","",""
"html-keyboard-response","276","583830","0.0-5.0-5.0-3.21","61563a4b0def9000ccc976ec","not_provided","desktop","0","0","1","","","","","","working_memory","","1460","<img class='k' src=images/squares/red.png><div class=""fixation"">+</div>","s","","","test_squares","exp","21","4","s","true","sk","s","","","","","","",""
"html-keyboard-response","277","584342","0.0-5.0-5.0-4.21","61563a4b0def9000ccc976ec","not_provided","desktop","0","0","1","","","","","","working_memory","","null","<div class=""fixation"">Correct</div>","null","","","","","","","","","","","","","","","","",""
"html-keyboard-response","278","585348","0.0-5.0-5.0-0.22","61563a4b0def9000ccc976ec","not_provided","desktop","0","0","1","","","","","","working_memory","","null","<div class=""fixation"">+</div>","null","","","","","","","","","","","","","","","","",""
"html-keyboard-response","279","585553","0.0-5.0-5.0-1.22","61563a4b0def9000ccc976ec","not_provided","desktop","0","0","1","","","","","","working_memory","","null","<img class='b' src=images/squares/brown.png><img class='d' src=images/squares/black.png><img class='g' src=images/squares/red.png><img class='j' src=images/squares/blue.png><div class=""fixation"">+</div>","null","","","memory","exp","22","","","","","","","","","","","",""
"html-keyboard-response","280","586460","0.0-5.0-5.0-2.22","61563a4b0def9000ccc976ec","not_provided","desktop","0","0","1","","","","","","working_memory","","null","<div class=""fixation"">+</div>","null","","","","","","","","","","","","","","","","",""
"html-keyboard-response","281","587250","0.0-5.0-5.0-3.22","61563a4b0def9000ccc976ec","not_provided","desktop","0","0","1","","","","","","working_memory","","790","<img class='j' src=images/squares/blue.png><div class=""fixation"">+</div>","k","","","test_squares","exp","22","4","s","false","sk","s","","","","","","",""
"html-keyboard-response","282","587759","0.0-5.0-5.0-4.22","61563a4b0def9000ccc976ec","not_provided","desktop","0","0","1","","","","","","working_memory","","null","<div class=""fixation"">Incorrect</div>","null","","","","","","","","","","","","","","","","",""
"html-keyboard-response","283","588773","0.0-5.0-5.0-0.23","61563a4b0def9000ccc976ec","not_provided","desktop","0","0","1","","","","","","working_memory","","null","<div class=""fixation"">+</div>","null","","","","","","","","","","","","","","","","",""
"html-keyboard-response","284","588976","0.0-5.0-5.0-1.23","61563a4b0def9000ccc976ec","not_provided","desktop","0","0","1","","","","","","working_memory","","null","<img class='a' src=images/squares/red.png><img class='f' src=images/squares/brown.png><img class='i' src=images/squares/green.png><img class='k' src=images/squares/black.png><div class=""fixation"">+</div>","null","","","memory","exp","23","","","","","","","","","","","",""
"html-keyboard-response","285","589881","0.0-5.0-5.0-2.23","61563a4b0def9000ccc976ec","not_provided","desktop","0","0","1","","","","","","working_memory","","null","<div class=""fixation"">+</div>","null","","","","","","","","","","","","","","","","",""
"html-keyboard-response","286","591490","0.0-5.0-5.0-3.23","61563a4b0def9000ccc976ec","not_provided","desktop","0","0","1","","","","","","working_memory","","1609","<img class='i' src=images/squares/green.png><div class=""fixation"">+</div>","s","","","test_squares","exp","23","4","s","true","sk","s","","","","","","",""
"html-keyboard-response","287","591991","0.0-5.0-5.0-4.23","61563a4b0def9000ccc976ec","not_provided","desktop","0","0","1","","","","","","working_memory","","null","<div class=""fixation"">Correct</div>","null","","","","","","","","","","","","","","","","",""
"html-keyboard-response","288","593007","0.0-5.0-5.0-0.24","61563a4b0def9000ccc976ec","not_provided","desktop","0","0","1","","","","","","working_memory","","null","<div class=""fixation"">+</div>","null","","","","","","","","","","","","","","","","",""
"html-keyboard-response","289","593211","0.0-5.0-5.0-1.24","61563a4b0def9000ccc976ec","not_provided","desktop","0","0","1","","","","","","working_memory","","null","<img class='b' src=images/squares/green.png><img class='e' src=images/squares/orange.png><img class='h' src=images/squares/yellow.png><img class='j' src=images/squares/blue.png><div class=""fixation"">+</div>","null","","","memory","exp","24","","","","","","","","","","","",""
"html-keyboard-response","290","594117","0.0-5.0-5.0-2.24","61563a4b0def9000ccc976ec","not_provided","desktop","0","0","1","","","","","","working_memory","","null","<div class=""fixation"">+</div>","null","","","","","","","","","","","","","","","","",""
"html-keyboard-response","291","594882","0.0-5.0-5.0-3.24","61563a4b0def9000ccc976ec","not_provided","desktop","0","0","1","","","","","","working_memory","","765","<img class='b' src=images/squares/cyan.png><div class=""fixation"">+</div>","k","","","test_squares","exp","24","4","k","true","sk","d","","","","","","",""
"html-keyboard-response","292","595390","0.0-5.0-5.0-4.24","61563a4b0def9000ccc976ec","not_provided","desktop","0","0","1","","","","","","working_memory","","null","<div class=""fixation"">Correct</div>","null","","","","","","","","","","","","","","","","",""
"html-keyboard-response","293","596398","0.0-5.0-5.0-0.25","61563a4b0def9000ccc976ec","not_provided","desktop","0","0","1","","","","","","working_memory","","null","<div class=""fixation"">+</div>","null","","","","","","","","","","","","","","","","",""
"html-keyboard-response","294","596601","0.0-5.0-5.0-1.25","61563a4b0def9000ccc976ec","not_provided","desktop","0","0","1","","","","","","working_memory","","null","<img class='c' src=images/squares/yellow.png><img class='b' src=images/squares/black.png><img class='d' src=images/squares/red.png><img class='e' src=images/squares/brown.png><img class='i' src=images/squares/green.png><img class='g' src=images/squares/blue.png><img class='k' src=images/squares/cyan.png><img class='l' src=images/squares/magenta.png><div class=""fixation"">+</div>","null","","","memory","exp","25","","","","","","","","","","","",""
"html-keyboard-response","295","597507","0.0-5.0-5.0-2.25","61563a4b0def9000ccc976ec","not_provided","desktop","0","0","1","","","","","","working_memory","","null","<div class=""fixation"">+</div>","null","","","","","","","","","","","","","","","","",""
"html-keyboard-response","296","598626","0.0-5.0-5.0-3.25","61563a4b0def9000ccc976ec","not_provided","desktop","0","0","1","","","","","","working_memory","","1119","<img class='c' src=images/squares/yellow.png><div class=""fixation"">+</div>","k","","","test_squares","exp","25","8","s","false","sk","s","","","","","","",""
"html-keyboard-response","297","599132","0.0-5.0-5.0-4.25","61563a4b0def9000ccc976ec","not_provided","desktop","0","0","1","","","","","","working_memory","","null","<div class=""fixation"">Incorrect</div>","null","","","","","","","","","","","","","","","","",""
"html-keyboard-response","298","600147","0.0-5.0-5.0-0.26","61563a4b0def9000ccc976ec","not_provided","desktop","0","0","1","","","","","","working_memory","","null","<div class=""fixation"">+</div>","null","","","","","","","","","","","","","","","","",""
"html-keyboard-response","299","600363","0.0-5.0-5.0-1.26","61563a4b0def9000ccc976ec","not_provided","desktop","0","0","1","","","","","","working_memory","","null","<img class='c' src=images/squares/orange.png><img class='a' src=images/squares/cyan.png><img class='f' src=images/squares/magenta.png><img class='e' src=images/squares/brown.png><img class='g' src=images/squares/red.png><img class='h' src=images/squares/yellow.png><img class='j' src=images/squares/black.png><img class='k' src=images/squares/green.png><div class=""fixation"">+</div>","null","","","memory","exp","26","","","","","","","","","","","",""
