"trial_type","trial_index","time_elapsed","internal_node_id","subject_id","study_id","device_type","blur_count","fullscreen_exit_count","failed_attention_checks","success","timeout","failed_images","failed_audio","failed_video","phase","value","rt","stimulus","response","view_history","question_order","trial_name","block_type","trial_num","set_size","correct_response","accuracy","mapping","condition","prompt","flipped","attention","expected_answer","category","question_index","task"
"pavlovia","0","2146","0.0-0.0","69dac2125e535db5a698ea18","not_provided","desktop","0","0","0","","","","","","","","","","","","","","","","","","","","","","","","","","",""
"preload","1","3674","0.0-2.0","69dac2125e535db5a698ea18","not_provided","desktop","0","0","0","true","false","[]","[]","[]","","","","","","","","","","","","","","","","","","","","","",""
"html-keyboard-response","2","86719","0.0-3.0-0.0","69dac2125e535db5a698ea18","not_provided","desktop","0","0","0","","","","","","captcha","","","","","","","","","","","","","","","","","","","","",""
"fullscreen","3","97439","0.0-4.0","69dac2125e535db5a698ea18","not_provided","desktop","0","0","0","true","","","","","setup","","","","","","","","","","","","","","","","","","","","",""
"call-function","4","97443","0.0-5.0-0.0","69dac2125e535db5a698ea18","not_provided","desktop","0","0","0","","","","","","working_memory","","","","","","","","","","","","","","","","","","","","",""
"html-keyboard-response","5","120258","0.0-5.0-1.0","69dac2125e535db5a698ea18","not_provided","desktop","0","0","0","","","","","","working_memory","","22812","<div style=""text-align:center;font-family:sans-serif;""><p>Welcome to the luck game experiment!</p><p>This two-day experiment takes part in a study aimed at developing better clinical treatments.</p><p>We appreciate your participation and require your full concentration.</p><br><p>This is a two-day study. Payment (£6/hour) is only given upon completing both parts today and tomorrow.</p><p>You must finish the second part for compensation. After today, you'll receive an invitation for tomorrow's session.</p><p>Please ensure you can attend both sessions before proceeding. Otherwise, you may exit now.</p><p>If you have any questions, please contact us via prolific.</p><br><p>Please stay attentive and in fullscreen mode to ensure payment.</p><p>Thank you for participating!</p><br><p id=""continue-prompt"" style=""visibility:hidden;""><b>Press any key to continue.</b></p></div>"," ","","","","","","","","","","","","","","","","",""
"instructions","6","227208","0.0-5.0-2.0-0.0","69dac2125e535db5a698ea18","not_provided","desktop","0","0","0","","","","","","working_memory","","106948","","","[{""page_index"":0,""viewing_time"":2571},{""page_index"":1,""viewing_time"":1908},{""page_index"":2,""viewing_time"":18467},{""page_index"":3,""viewing_time"":6251},{""page_index"":4,""viewing_time"":16948},{""page_index"":5,""viewing_time"":28270},{""page_index"":6,""viewing_time"":1067},{""page_index"":7,""viewing_time"":5326},{""page_index"":6,""viewing_time"":17003},{""page_index"":7,""viewing_time"":2472},{""page_index"":8,""viewing_time"":6661}]","","","","","","","","","","","","","","","",""
"survey-multi-choice","7","352856","0.0-5.0-2.0-1.0","69dac2125e535db5a698ea18","not_provided","desktop","0","0","0","","","","","","working_memory","","125606","","{""set_size"":""4 or 8"",""steps"":""True"",""choose_square"":""Press the 'k' or 's' key."",""remember"":""The colors and locations of the 'memory' squares"",""task"":""To tell if the 'test' square is in the same color as the square previously appearing in this location""}","","[0,1,2,3,4]","test_squares_quiz","","","","","","","","","","","","","",""
"html-keyboard-response","8","373080","0.0-5.0-3.0-0.0","69dac2125e535db5a698ea18","not_provided","desktop","0","0","0","","","","","","working_memory","","20218","<p>We will now start some practice trials.<br><b>The practice trials will also include some trials in which you will need to remember only one square to make sure you understood the instructions.</b><br>You may already want to be ready with your fingers on '<b>s</b>' and '<b>k</b>'.<br><img class=""wm-example-img"" src=""images/examples/keyboard.png""><br><b style=""font-size:1.2em;"">&lsquo;K&rsquo; = SAME &nbsp;&nbsp;&nbsp; &lsquo;S&rsquo; = DIFFERENT</b><br><br><u>Please try to be as accurate as possible.</u><br><br><b>Press any key to begin</b></p>"," ","","","","","","","","","","","","","","","","",""
"html-keyboard-response","9","375100","0.0-5.0-3.0-1.0-0.0","69dac2125e535db5a698ea18","not_provided","desktop","0","0","0","","","","","","working_memory","","null","<div class=""fixation"">+</div>","null","","","","","","","","","","","","","","","","",""
"html-keyboard-response","10","375314","0.0-5.0-3.0-1.0-1.0","69dac2125e535db5a698ea18","not_provided","desktop","0","0","0","","","","","","working_memory","","null","<img class='upper3' src=images/squares/magenta.png><div class=""fixation"">+</div>","null","","","memory","practice","0","1","","","","","","","","","","",""
"html-keyboard-response","11","376227","0.0-5.0-3.0-1.0-2.0","69dac2125e535db5a698ea18","not_provided","desktop","0","0","0","","","","","","working_memory","","null","<div class=""fixation"">+</div>","null","","","","","","","","","","","","","","","","",""
"html-keyboard-response","12","379548","0.0-5.0-3.0-1.0-3.0","69dac2125e535db5a698ea18","not_provided","desktop","0","0","0","","","","","","working_memory","","3317","<img class='upper3' src=images/squares/black.png><div class=""fixation"">+</div>","s","","","test","practice","0","1","s","true","","","","","","","","",""
"html-keyboard-response","13","380056","0.0-5.0-3.0-1.0-4.0","69dac2125e535db5a698ea18","not_provided","desktop","0","0","0","","","","","","working_memory","","null","<div class=""fixation"">Correct</div>","null","","","","","","","","","","","","","","","","",""
"html-keyboard-response","14","381063","0.0-5.0-3.0-1.0-0.1","69dac2125e535db5a698ea18","not_provided","desktop","0","0","0","","","","","","working_memory","","null","<div class=""fixation"">+</div>","null","","","","","","","","","","","","","","","","",""
"html-keyboard-response","15","381281","0.0-5.0-3.0-1.0-1.1","69dac2125e535db5a698ea18","not_provided","desktop","0","0","0","","","","","","working_memory","","null","<img class='a' src=images/squares/cyan.png><img class='b' src=images/squares/red.png><img class='e' src=images/squares/blue.png><img class='d' src=images/squares/yellow.png><img class='h' src=images/squares/magenta.png><img class='g' src=images/squares/orange.png><img class='l' src=images/squares/black.png><img class='k' src=images/squares/brown.png><div class=""fixation"">+</div>","null","","","memory","practice","1","8","","","","","","","","","","",""
"html-keyboard-response","16","382194","0.0-5.0-3.0-1.0-2.1","69dac2125e535db5a698ea18","not_provided","desktop","0","0","0","","","","","","working_memory","","null","<div class=""fixation"">+</div>","null","","","","","","","","","","","","","","","","",""
"html-keyboard-response","17","384374","0.0-5.0-3.0-1.0-3.1","69dac2125e535db5a698ea18","not_provided","desktop","0","0","0","","","","","","working_memory","","2176","<img class='l' src=images/squares/green.png><div class=""fixation"">+</div>","k","","","test","practice","1","8","s","false","","","","","","","","",""
"html-keyboard-response","18","384883","0.0-5.0-3.0-1.0-4.1","69dac2125e535db5a698ea18","not_provided","desktop","0","0","0","","","","","","working_memory","","null","<div class=""fixation"">Incorrect</div>","null","","","","","","","","","","","","","","","","",""
"html-keyboard-response","19","385886","0.0-5.0-3.0-1.0-0.2","69dac2125e535db5a698ea18","not_provided","desktop","0","0","0","","","","","","working_memory","","null","<div class=""fixation"">+</div>","null","","","","","","","","","","","","","","","","",""
"html-keyboard-response","20","386098","0.0-5.0-3.0-1.0-1.2","69dac2125e535db5a698ea18","not_provided","desktop","0","0","0","","","","","","working_memory","","null","<img class='c' src=images/squares/cyan.png><img class='f' src=images/squares/black.png><img class='g' src=images/squares/orange.png><img class='j' src=images/squares/brown.png><div class=""fixation"">+</div>","null","","","memory","practice","2","4","","","","","","","","","","",""
"html-keyboard-response","21","387014","0.0-5.0-3.0-1.0-2.2","69dac2125e535db5a698ea18","not_provided","desktop","0","0","0","","","","","","working_memory","","null","<div class=""fixation"">+</div>","null","","","","","","","","","","","","","","","","",""
"html-keyboard-response","22","391223","0.0-5.0-3.0-1.0-3.2","69dac2125e535db5a698ea18","not_provided","desktop","0","0","0","","","","","","working_memory","","4206","<img class='c' src=images/squares/magenta.png><div class=""fixation"">+</div>","s","","","test","practice","2","4","s","true","","","","","","","","",""
"html-keyboard-response","23","391740","0.0-5.0-3.0-1.0-4.2","69dac2125e535db5a698ea18","not_provided","desktop","0","0","0","","","","","","working_memory","","null","<div class=""fixation"">Correct</div>","null","","","","","","","","","","","","","","","","",""
"html-keyboard-response","24","392742","0.0-5.0-3.0-1.0-0.3","69dac2125e535db5a698ea18","not_provided","desktop","0","0","0","","","","","","working_memory","","null","<div class=""fixation"">+</div>","null","","","","","","","","","","","","","","","","",""
"html-keyboard-response","25","392950","0.0-5.0-3.0-1.0-1.3","69dac2125e535db5a698ea18","not_provided","desktop","0","0","0","","","","","","working_memory","","null","<img class='b' src=images/squares/yellow.png><img class='c' src=images/squares/red.png><img class='e' src=images/squares/cyan.png><img class='d' src=images/squares/brown.png><img class='h' src=images/squares/blue.png><img class='i' src=images/squares/black.png><img class='j' src=images/squares/orange.png><img class='k' src=images/squares/magenta.png><div class=""fixation"">+</div>","null","","","memory","practice","3","8","","","","","","","","","","",""
"html-keyboard-response","26","393854","0.0-5.0-3.0-1.0-2.3","69dac2125e535db5a698ea18","not_provided","desktop","0","0","0","","","","","","working_memory","","null","<div class=""fixation"">+</div>","null","","","","","","","","","","","","","","","","",""
"html-keyboard-response","27","395900","0.0-5.0-3.0-1.0-3.3","69dac2125e535db5a698ea18","not_provided","desktop","0","0","0","","","","","","working_memory","","2042","<img class='h' src=images/squares/blue.png><div class=""fixation"">+</div>","s","","","test","practice","3","8","k","false","","","","","","","","",""
"html-keyboard-response","28","396408","0.0-5.0-3.0-1.0-4.3","69dac2125e535db5a698ea18","not_provided","desktop","0","0","0","","","","","","working_memory","","null","<div class=""fixation"">Incorrect</div>","null","","","","","","","","","","","","","","","","",""
"html-keyboard-response","29","397425","0.0-5.0-3.0-1.0-0.4","69dac2125e535db5a698ea18","not_provided","desktop","0","0","0","","","","","","working_memory","","null","<div class=""fixation"">+</div>","null","","","","","","","","","","","","","","","","",""
"html-keyboard-response","30","397641","0.0-5.0-3.0-1.0-1.4","69dac2125e535db5a698ea18","not_provided","desktop","0","0","0","","","","","","working_memory","","null","<img class='c' src=images/squares/blue.png><img class='b' src=images/squares/orange.png><img class='d' src=images/squares/black.png><img class='f' src=images/squares/cyan.png><img class='h' src=images/squares/brown.png><img class='g' src=images/squares/red.png><img class='k' src=images/squares/yellow.png><img class='l' src=images/squares/green.png><div class=""fixation"">+</div>","null","","","memory","practice","4","8","","","","","","","","","","",""
"html-keyboard-response","31","398546","0.0-5.0-3.0-1.0-2.4","69dac2125e535db5a698ea18","not_provided","desktop","0","0","0","","","","","","working_memory","","null","<div class=""fixation"">+</div>","null","","","","","","","","","","","","","","","","",""
"html-keyboard-response","32","400272","0.0-5.0-3.0-1.0-3.4","69dac2125e535db5a698ea18","not_provided","desktop","0","0","0","","","","","","working_memory","","1721","<img class='g' src=images/squares/magenta.png><div class=""fixation"">+</div>","k","","","test","practice","4","8","s","false","","","","","","","","",""
"html-keyboard-response","33","400785","0.0-5.0-3.0-1.0-4.4","69dac2125e535db5a698ea18","not_provided","desktop","0","0","0","","","","","","working_memory","","null","<div class=""fixation"">Incorrect</div>","null","","","","","","","","","","","","","","","","",""
"html-keyboard-response","34","401800","0.0-5.0-3.0-1.0-0.5","69dac2125e535db5a698ea18","not_provided","desktop","0","0","0","","","","","","working_memory","","null","<div class=""fixation"">+</div>","null","","","","","","","","","","","","","","","","",""
"html-keyboard-response","35","402013","0.0-5.0-3.0-1.0-1.5","69dac2125e535db5a698ea18","not_provided","desktop","0","0","0","","","","","","working_memory","","null","<img class='b' src=images/squares/blue.png><img class='a' src=images/squares/green.png><img class='d' src=images/squares/yellow.png><img class='f' src=images/squares/orange.png><img class='i' src=images/squares/brown.png><img class='h' src=images/squares/red.png><img class='k' src=images/squares/cyan.png><img class='l' src=images/squares/magenta.png><div class=""fixation"">+</div>","null","","","memory","practice","5","8","","","","","","","","","","",""
"html-keyboard-response","36","402922","0.0-5.0-3.0-1.0-2.5","69dac2125e535db5a698ea18","not_provided","desktop","0","0","0","","","","","","working_memory","","null","<div class=""fixation"">+</div>","null","","","","","","","","","","","","","","","","",""
"html-keyboard-response","37","404602","0.0-5.0-3.0-1.0-3.5","69dac2125e535db5a698ea18","not_provided","desktop","0","0","0","","","","","","working_memory","","1677","<img class='d' src=images/squares/black.png><div class=""fixation"">+</div>","s","","","test","practice","5","8","s","true","","","","","","","","",""
"html-keyboard-response","38","405115","0.0-5.0-3.0-1.0-4.5","69dac2125e535db5a698ea18","not_provided","desktop","0","0","0","","","","","","working_memory","","null","<div class=""fixation"">Correct</div>","null","","","","","","","","","","","","","","","","",""
"html-keyboard-response","39","406134","0.0-5.0-3.0-1.0-0.6","69dac2125e535db5a698ea18","not_provided","desktop","0","0","0","","","","","","working_memory","","null","<div class=""fixation"">+</div>","null","","","","","","","","","","","","","","","","",""
"html-keyboard-response","40","406349","0.0-5.0-3.0-1.0-1.6","69dac2125e535db5a698ea18","not_provided","desktop","0","0","0","","","","","","working_memory","","null","<img class='c' src=images/squares/black.png><img class='d' src=images/squares/green.png><img class='h' src=images/squares/yellow.png><img class='k' src=images/squares/brown.png><div class=""fixation"">+</div>","null","","","memory","practice","6","4","","","","","","","","","","",""
"html-keyboard-response","41","407262","0.0-5.0-3.0-1.0-2.6","69dac2125e535db5a698ea18","not_provided","desktop","0","0","0","","","","","","working_memory","","null","<div class=""fixation"">+</div>","null","","","","","","","","","","","","","","","","",""
"html-keyboard-response","42","408504","0.0-5.0-3.0-1.0-3.6","69dac2125e535db5a698ea18","not_provided","desktop","0","0","0","","","","","","working_memory","","1239","<img class='c' src=images/squares/black.png><div class=""fixation"">+</div>","k","","","test","practice","6","4","k","true","","","","","","","","",""
"html-keyboard-response","43","409008","0.0-5.0-3.0-1.0-4.6","69dac2125e535db5a698ea18","not_provided","desktop","0","0","0","","","","","","working_memory","","null","<div class=""fixation"">Correct</div>","null","","","","","","","","","","","","","","","","",""
"html-keyboard-response","44","410024","0.0-5.0-3.0-1.0-0.7","69dac2125e535db5a698ea18","not_provided","desktop","0","0","0","","","","","","working_memory","","null","<div class=""fixation"">+</div>","null","","","","","","","","","","","","","","","","",""
"html-keyboard-response","45","410232","0.0-5.0-3.0-1.0-1.7","69dac2125e535db5a698ea18","not_provided","desktop","0","0","0","","","","","","working_memory","","null","<img class='b' src=images/squares/red.png><img class='e' src=images/squares/brown.png><img class='i' src=images/squares/magenta.png><img class='l' src=images/squares/blue.png><div class=""fixation"">+</div>","null","","","memory","practice","7","4","","","","","","","","","","",""
"html-keyboard-response","46","411146","0.0-5.0-3.0-1.0-2.7","69dac2125e535db5a698ea18","not_provided","desktop","0","0","0","","","","","","working_memory","","null","<div class=""fixation"">+</div>","null","","","","","","","","","","","","","","","","",""
"html-keyboard-response","47","412442","0.0-5.0-3.0-1.0-3.7","69dac2125e535db5a698ea18","not_provided","desktop","0","0","0","","","","","","working_memory","","1294","<img class='e' src=images/squares/brown.png><div class=""fixation"">+</div>","k","","","test","practice","7","4","k","true","","","","","","","","",""
"html-keyboard-response","48","412953","0.0-5.0-3.0-1.0-4.7","69dac2125e535db5a698ea18","not_provided","desktop","0","0","0","","","","","","working_memory","","null","<div class=""fixation"">Correct</div>","null","","","","","","","","","","","","","","","","",""
"html-keyboard-response","49","413961","0.0-5.0-3.0-1.0-0.8","69dac2125e535db5a698ea18","not_provided","desktop","0","0","0","","","","","","working_memory","","null","<div class=""fixation"">+</div>","null","","","","","","","","","","","","","","","","",""
"html-keyboard-response","50","414166","0.0-5.0-3.0-1.0-1.8","69dac2125e535db5a698ea18","not_provided","desktop","0","0","0","","","","","","working_memory","","null","<img class='lower2' src=images/squares/cyan.png><div class=""fixation"">+</div>","null","","","memory","practice","8","1","","","","","","","","","","",""
"html-keyboard-response","51","415077","0.0-5.0-3.0-1.0-2.8","69dac2125e535db5a698ea18","not_provided","desktop","0","0","0","","","","","","working_memory","","null","<div class=""fixation"">+</div>","null","","","","","","","","","","","","","","","","",""
"html-keyboard-response","52","416675","0.0-5.0-3.0-1.0-3.8","69dac2125e535db5a698ea18","not_provided","desktop","0","0","0","","","","","","working_memory","","1593","<img class='lower2' src=images/squares/red.png><div class=""fixation"">+</div>","s","","","test","practice","8","1","s","true","","","","","","","","",""
"html-keyboard-response","53","417188","0.0-5.0-3.0-1.0-4.8","69dac2125e535db5a698ea18","not_provided","desktop","0","0","0","","","","","","working_memory","","null","<div class=""fixation"">Correct</div>","null","","","","","","","","","","","","","","","","",""
"html-keyboard-response","54","418193","0.0-5.0-3.0-1.0-0.9","69dac2125e535db5a698ea18","not_provided","desktop","0","0","0","","","","","","working_memory","","null","<div class=""fixation"">+</div>","null","","","","","","","","","","","","","","","","",""
"html-keyboard-response","55","418409","0.0-5.0-3.0-1.0-1.9","69dac2125e535db5a698ea18","not_provided","desktop","0","0","0","","","","","","working_memory","","null","<img class='lower1' src=images/squares/red.png><div class=""fixation"">+</div>","null","","","memory","practice","9","1","","","","","","","","","","",""
"html-keyboard-response","56","419322","0.0-5.0-3.0-1.0-2.9","69dac2125e535db5a698ea18","not_provided","desktop","0","0","0","","","","","","working_memory","","null","<div class=""fixation"">+</div>","null","","","","","","","","","","","","","","","","",""
"html-keyboard-response","57","420904","0.0-5.0-3.0-1.0-3.9","69dac2125e535db5a698ea18","not_provided","desktop","0","0","0","","","","","","working_memory","","1578","<img class='lower1' src=images/squares/cyan.png><div class=""fixation"">+</div>","s","","","test","practice","9","1","s","true","","","","","","","","",""
"html-keyboard-response","58","421419","0.0-5.0-3.0-1.0-4.9","69dac2125e535db5a698ea18","not_provided","desktop","0","0","0","","","","","","working_memory","","null","<div class=""fixation"">Correct</div>","null","","","","","","","","","","","","","","","","",""
"html-keyboard-response","59","422425","0.0-5.0-3.0-1.0-0.10","69dac2125e535db5a698ea18","not_provided","desktop","0","0","0","","","","","","working_memory","","null","<div class=""fixation"">+</div>","null","","","","","","","","","","","","","","","","",""
"html-keyboard-response","60","422633","0.0-5.0-3.0-1.0-1.10","69dac2125e535db5a698ea18","not_provided","desktop","0","0","0","","","","","","working_memory","","null","<img class='c' src=images/squares/blue.png><img class='b' src=images/squares/green.png><img class='f' src=images/squares/yellow.png><img class='e' src=images/squares/orange.png><img class='h' src=images/squares/cyan.png><img class='i' src=images/squares/black.png><img class='l' src=images/squares/magenta.png><img class='k' src=images/squares/brown.png><div class=""fixation"">+</div>","null","","","memory","practice","10","8","","","","","","","","","","",""
"html-keyboard-response","61","423547","0.0-5.0-3.0-1.0-2.10","69dac2125e535db5a698ea18","not_provided","desktop","0","0","0","","","","","","working_memory","","null","<div class=""fixation"">+</div>","null","","","","","","","","","","","","","","","","",""
"html-keyboard-response","62","426150","0.0-5.0-3.0-1.0-3.10","69dac2125e535db5a698ea18","not_provided","desktop","0","0","0","","","","","","working_memory","","2599","<img class='c' src=images/squares/red.png><div class=""fixation"">+</div>","s","","","test","practice","10","8","s","true","","","","","","","","",""
"html-keyboard-response","63","426652","0.0-5.0-3.0-1.0-4.10","69dac2125e535db5a698ea18","not_provided","desktop","0","0","0","","","","","","working_memory","","null","<div class=""fixation"">Correct</div>","null","","","","","","","","","","","","","","","","",""
"html-keyboard-response","64","427654","0.0-5.0-3.0-1.0-0.11","69dac2125e535db5a698ea18","not_provided","desktop","0","0","0","","","","","","working_memory","","null","<div class=""fixation"">+</div>","null","","","","","","","","","","","","","","","","",""
"html-keyboard-response","65","427860","0.0-5.0-3.0-1.0-1.11","69dac2125e535db5a698ea18","not_provided","desktop","0","0","0","","","","","","working_memory","","null","<img class='lower1' src=images/squares/brown.png><div class=""fixation"">+</div>","null","","","memory","practice","11","1","","","","","","","","","","",""
"html-keyboard-response","66","428764","0.0-5.0-3.0-1.0-2.11","69dac2125e535db5a698ea18","not_provided","desktop","0","0","0","","","","","","working_memory","","null","<div class=""fixation"">+</div>","null","","","","","","","","","","","","","","","","",""
"html-keyboard-response","67","430838","0.0-5.0-3.0-1.0-3.11","69dac2125e535db5a698ea18","not_provided","desktop","0","0","0","","","","","","working_memory","","2070","<img class='lower1' src=images/squares/brown.png><div class=""fixation"">+</div>","k","","","test","practice","11","1","k","true","","","","","","","","",""
"html-keyboard-response","68","431341","0.0-5.0-3.0-1.0-4.11","69dac2125e535db5a698ea18","not_provided","desktop","0","0","0","","","","","","working_memory","","null","<div class=""fixation"">Correct</div>","null","","","","","","","","","","","","","","","","",""
"html-keyboard-response","69","432345","0.0-5.0-3.0-1.0-0.12","69dac2125e535db5a698ea18","not_provided","desktop","0","0","0","","","","","","working_memory","","null","<div class=""fixation"">+</div>","null","","","","","","","","","","","","","","","","",""
"html-keyboard-response","70","432552","0.0-5.0-3.0-1.0-1.12","69dac2125e535db5a698ea18","not_provided","desktop","0","0","0","","","","","","working_memory","","null","<img class='upper3' src=images/squares/brown.png><div class=""fixation"">+</div>","null","","","memory","practice","12","1","","","","","","","","","","",""
"html-keyboard-response","71","433459","0.0-5.0-3.0-1.0-2.12","69dac2125e535db5a698ea18","not_provided","desktop","0","0","0","","","","","","working_memory","","null","<div class=""fixation"">+</div>","null","","","","","","","","","","","","","","","","",""
"html-keyboard-response","72","434409","0.0-5.0-3.0-1.0-3.12","69dac2125e535db5a698ea18","not_provided","desktop","0","0","0","","","","","","working_memory","","946","<img class='upper3' src=images/squares/brown.png><div class=""fixation"">+</div>","k","","","test","practice","12","1","k","true","","","","","","","","",""
"html-keyboard-response","73","434921","0.0-5.0-3.0-1.0-4.12","69dac2125e535db5a698ea18","not_provided","desktop","0","0","0","","","","","","working_memory","","null","<div class=""fixation"">Correct</div>","null","","","","","","","","","","","","","","","","",""
"html-keyboard-response","74","435927","0.0-5.0-3.0-1.0-0.13","69dac2125e535db5a698ea18","not_provided","desktop","0","0","0","","","","","","working_memory","","null","<div class=""fixation"">+</div>","null","","","","","","","","","","","","","","","","",""
"html-keyboard-response","75","436135","0.0-5.0-3.0-1.0-1.13","69dac2125e535db5a698ea18","not_provided","desktop","0","0","0","","","","","","working_memory","","null","<img class='b' src=images/squares/brown.png><img class='d' src=images/squares/orange.png><img class='i' src=images/squares/black.png><img class='j' src=images/squares/green.png><div class=""fixation"">+</div>","null","","","memory","practice","13","4","","","","","","","","","","",""
"html-keyboard-response","76","437046","0.0-5.0-3.0-1.0-2.13","69dac2125e535db5a698ea18","not_provided","desktop","0","0","0","","","","","","working_memory","","null","<div class=""fixation"">+</div>","null","","","","","","","","","","","","","","","","",""
"html-keyboard-response","77","438657","0.0-5.0-3.0-1.0-3.13","69dac2125e535db5a698ea18","not_provided","desktop","0","0","0","","","","","","working_memory","","1607","<img class='j' src=images/squares/green.png><div class=""fixation"">+</div>","s","","","test","practice","13","4","k","false","","","","","","","","",""
"html-keyboard-response","78","439174","0.0-5.0-3.0-1.0-4.13","69dac2125e535db5a698ea18","not_provided","desktop","0","0","0","","","","","","working_memory","","null","<div class=""fixation"">Incorrect</div>","null","","","","","","","","","","","","","","","","",""
"html-keyboard-response","79","440192","0.0-5.0-3.0-1.0-0.14","69dac2125e535db5a698ea18","not_provided","desktop","0","0","0","","","","","","working_memory","","null","<div class=""fixation"">+</div>","null","","","","","","","","","","","","","","","","",""
"html-keyboard-response","80","440411","0.0-5.0-3.0-1.0-1.14","69dac2125e535db5a698ea18","not_provided","desktop","0","0","0","","","","","","working_memory","","null","<img class='b' src=images/squares/blue.png><img class='a' src=images/squares/cyan.png><img class='d' src=images/squares/magenta.png><img class='e' src=images/squares/black.png><img class='g' src=images/squares/red.png><img class='h' src=images/squares/brown.png><img class='k' src=images/squares/orange.png><img class='j' src=images/squares/green.png><div class=""fixation"">+</div>","null","","","memory","practice","14","8","","","","","","","","","","",""
"html-keyboard-response","81","441326","0.0-5.0-3.0-1.0-2.14","69dac2125e535db5a698ea18","not_provided","desktop","0","0","0","","","","","","working_memory","","null","<div class=""fixation"">+</div>","null","","","","","","","","","","","","","","","","",""
"html-keyboard-response","82","442978","0.0-5.0-3.0-1.0-3.14","69dac2125e535db5a698ea18","not_provided","desktop","0","0","0","","","","","","working_memory","","1648","<img class='a' src=images/squares/yellow.png><div class=""fixation"">+</div>","s","","","test","practice","14","8","s","true","","","","","","","","",""
"html-keyboard-response","83","443491","0.0-5.0-3.0-1.0-4.14","69dac2125e535db5a698ea18","not_provided","desktop","0","0","0","","","","","","working_memory","","null","<div class=""fixation"">Correct</div>","null","","","","","","","","","","","","","","","","",""
"html-keyboard-response","84","456761","0.0-5.0-4.0","69dac2125e535db5a698ea18","not_provided","desktop","0","0","0","","","","","","working_memory","","13264","<div style=""text-align:center;font-family:sans-serif;""><p>Good job! You have finished the practice.</p><p>We will now start the real experiment.</p><p>Please try to be as accurate as possible.</p><p><b><u>Note: random guessing may risk your payment.</u></b></p><br><p><b>Press any key to begin.</b></p></div>"," ","","","","","","","","","","","","","","","","",""
"html-keyboard-response","85","457763","0.0-5.0-5.0-0.0","69dac2125e535db5a698ea18","not_provided","desktop","0","0","0","","","","","","working_memory","","null","<div class=""fixation"">+</div>","null","","","","","","","","","","","","","","","","",""
"html-keyboard-response","86","457969","0.0-5.0-5.0-1.0","69dac2125e535db5a698ea18","not_provided","desktop","0","0","0","","","","","","working_memory","","null","<img class='a' src=images/squares/red.png><img class='e' src=images/squares/magenta.png><img class='h' src=images/squares/yellow.png><img class='l' src=images/squares/green.png><div class=""fixation"">+</div>","null","","","memory","exp","0","","","","","","","","","","","",""
"html-keyboard-response","87","458879","0.0-5.0-5.0-2.0","69dac2125e535db5a698ea18","not_provided","desktop","0","0","0","","","","","","working_memory","","null","<div class=""fixation"">+</div>","null","","","","","","","","","","","","","","","","",""
"html-keyboard-response","88","460535","0.0-5.0-5.0-3.0","69dac2125e535db5a698ea18","not_provided","desktop","0","0","0","","","","","","working_memory","","1653","<img class='l' src=images/squares/green.png><div class=""fixation"">+</div>","k","","","test_squares","exp","0","4","k","true","ks","s","","","","","","",""
"html-keyboard-response","89","461044","0.0-5.0-5.0-4.0","69dac2125e535db5a698ea18","not_provided","desktop","0","0","0","","","","","","working_memory","","null","<div class=""fixation"">Correct</div>","null","","","","","","","","","","","","","","","","",""
"html-keyboard-response","90","462050","0.0-5.0-5.0-0.1","69dac2125e535db5a698ea18","not_provided","desktop","0","0","0","","","","","","working_memory","","null","<div class=""fixation"">+</div>","null","","","","","","","","","","","","","","","","",""
"html-keyboard-response","91","462269","0.0-5.0-5.0-1.1","69dac2125e535db5a698ea18","not_provided","desktop","0","0","0","","","","","","working_memory","","null","<img class='a' src=images/squares/cyan.png><img class='f' src=images/squares/blue.png><img class='i' src=images/squares/yellow.png><img class='k' src=images/squares/green.png><div class=""fixation"">+</div>","null","","","memory","exp","1","","","","","","","","","","","",""
"html-keyboard-response","92","463175","0.0-5.0-5.0-2.1","69dac2125e535db5a698ea18","not_provided","desktop","0","0","0","","","","","","working_memory","","null","<div class=""fixation"">+</div>","null","","","","","","","","","","","","","","","","",""
"html-keyboard-response","93","464886","0.0-5.0-5.0-3.1","69dac2125e535db5a698ea18","not_provided","desktop","0","0","0","","","","","","working_memory","","1707","<img class='k' src=images/squares/brown.png><div class=""fixation"">+</div>","s","","","test_squares","exp","1","4","s","true","ks","d","","","","","","",""
"html-keyboard-response","94","465391","0.0-5.0-5.0-4.1","69dac2125e535db5a698ea18","not_provided","desktop","0","0","0","","","","","","working_memory","","null","<div class=""fixation"">Correct</div>","null","","","","","","","","","","","","","","","","",""
"html-keyboard-response","95","466397","0.0-5.0-5.0-0.2","69dac2125e535db5a698ea18","not_provided","desktop","0","0","0","","","","","","working_memory","","null","<div class=""fixation"">+</div>","null","","","","","","","","","","","","","","","","",""
"html-keyboard-response","96","466617","0.0-5.0-5.0-1.2","69dac2125e535db5a698ea18","not_provided","desktop","0","0","0","","","","","","working_memory","","null","<img class='c' src=images/squares/green.png><img class='a' src=images/squares/yellow.png><img class='d' src=images/squares/magenta.png><img class='f' src=images/squares/blue.png><img class='i' src=images/squares/cyan.png><img class='h' src=images/squares/brown.png><img class='j' src=images/squares/red.png><img class='k' src=images/squares/orange.png><div class=""fixation"">+</div>","null","","","memory","exp","2","","","","","","","","","","","",""
"html-keyboard-response","97","467532","0.0-5.0-5.0-2.2","69dac2125e535db5a698ea18","not_provided","desktop","0","0","0","","","","","","working_memory","","null","<div class=""fixation"">+</div>","null","","","","","","","","","","","","","","","","",""
"html-keyboard-response","98","469453","0.0-5.0-5.0-3.2","69dac2125e535db5a698ea18","not_provided","desktop","0","0","0","","","","","","working_memory","","1918","<img class='i' src=images/squares/black.png><div class=""fixation"">+</div>","k","","","test_squares","exp","2","8","s","false","ks","d","","","","","","",""
"html-keyboard-response","99","469971","0.0-5.0-5.0-4.2","69dac2125e535db5a698ea18","not_provided","desktop","0","0","0","","","","","","working_memory","","null","<div class=""fixation"">Incorrect</div>","null","","","","","","","","","","","","","","","","",""
"html-keyboard-response","100","470985","0.0-5.0-5.0-0.3","69dac2125e535db5a698ea18","not_provided","desktop","0","0","0","","","","","","working_memory","","null","<div class=""fixation"">+</div>","null","","","","","","","","","","","","","","","","",""
"html-keyboard-response","101","471204","0.0-5.0-5.0-1.3","69dac2125e535db5a698ea18","not_provided","desktop","0","0","0","","","","","","working_memory","","null","<img class='b' src=images/squares/brown.png><img class='e' src=images/squares/black.png><img class='h' src=images/squares/magenta.png><img class='j' src=images/squares/cyan.png><div class=""fixation"">+</div>","null","","","memory","exp","3","","","","","","","","","","","",""
"html-keyboard-response","102","472109","0.0-5.0-5.0-2.3","69dac2125e535db5a698ea18","not_provided","desktop","0","0","0","","","","","","working_memory","","null","<div class=""fixation"">+</div>","null","","","","","","","","","","","","","","","","",""
"html-keyboard-response","103","473749","0.0-5.0-5.0-3.3","69dac2125e535db5a698ea18","not_provided","desktop","0","0","0","","","","","","working_memory","","1637","<img class='j' src=images/squares/yellow.png><div class=""fixation"">+</div>","s","","","test_squares","exp","3","4","s","true","ks","d","","","","","","",""
"html-keyboard-response","104","474258","0.0-5.0-5.0-4.3","69dac2125e535db5a698ea18","not_provided","desktop","0","0","0","","","","","","working_memory","","null","<div class=""fixation"">Correct</div>","null","","","","","","","","","","","","","","","","",""
"html-keyboard-response","105","475269","0.0-5.0-5.0-0.4","69dac2125e535db5a698ea18","not_provided","desktop","0","0","0","","","","","","working_memory","","null","<div class=""fixation"">+</div>","null","","","","","","","","","","","","","","","","",""
"html-keyboard-response","106","475479","0.0-5.0-5.0-1.4","69dac2125e535db5a698ea18","not_provided","desktop","0","0","0","","","","","","working_memory","","null","<img class='a' src=images/squares/cyan.png><img class='e' src=images/squares/magenta.png><img class='i' src=images/squares/blue.png><img class='l' src=images/squares/orange.png><div class=""fixation"">+</div>","null","","","memory","exp","4","","","","","","","","","","","",""
"html-keyboard-response","107","476385","0.0-5.0-5.0-2.4","69dac2125e535db5a698ea18","not_provided","desktop","0","0","0","","","","","","working_memory","","null","<div class=""fixation"">+</div>","null","","","","","","","","","","","","","","","","",""
"html-keyboard-response","108","477418","0.0-5.0-5.0-3.4","69dac2125e535db5a698ea18","not_provided","desktop","0","0","0","","","","","","working_memory","","1029","<img class='a' src=images/squares/cyan.png><div class=""fixation"">+</div>","k","","","test_squares","exp","4","4","k","true","ks","s","","","","","","",""
"html-keyboard-response","109","477934","0.0-5.0-5.0-4.4","69dac2125e535db5a698ea18","not_provided","desktop","0","0","0","","","","","","working_memory","","null","<div class=""fixation"">Correct</div>","null","","","","","","","","","","","","","","","","",""
"html-keyboard-response","110","478942","0.0-5.0-5.0-0.5","69dac2125e535db5a698ea18","not_provided","desktop","0","0","0","","","","","","working_memory","","null","<div class=""fixation"">+</div>","null","","","","","","","","","","","","","","","","",""
"html-keyboard-response","111","479150","0.0-5.0-5.0-1.5","69dac2125e535db5a698ea18","not_provided","desktop","0","0","0","","","","","","working_memory","","null","<img class='c' src=images/squares/red.png><img class='b' src=images/squares/black.png><img class='d' src=images/squares/yellow.png><img class='f' src=images/squares/orange.png><img class='g' src=images/squares/green.png><img class='h' src=images/squares/magenta.png><img class='k' src=images/squares/brown.png><img class='j' src=images/squares/blue.png><div class=""fixation"">+</div>","null","","","memory","exp","5","","","","","","","","","","","",""
"html-keyboard-response","112","480064","0.0-5.0-5.0-2.5","69dac2125e535db5a698ea18","not_provided","desktop","0","0","0","","","","","","working_memory","","null","<div class=""fixation"">+</div>","null","","","","","","","","","","","","","","","","",""
"html-keyboard-response","113","481098","0.0-5.0-5.0-3.5","69dac2125e535db5a698ea18","not_provided","desktop","0","0","0","","","","","","working_memory","","1033","<img class='c' src=images/squares/red.png><div class=""fixation"">+</div>","k","","","test_squares","exp","5","8","k","true","ks","s","","","","","","",""
"html-keyboard-response","114","481602","0.0-5.0-5.0-4.5","69dac2125e535db5a698ea18","not_provided","desktop","0","0","0","","","","","","working_memory","","null","<div class=""fixation"">Correct</div>","null","","","","","","","","","","","","","","","","",""
"html-keyboard-response","115","482620","0.0-5.0-5.0-0.6","69dac2125e535db5a698ea18","not_provided","desktop","0","0","0","","","","","","working_memory","","null","<div class=""fixation"">+</div>","null","","","","","","","","","","","","","","","","",""
"html-keyboard-response","116","482829","0.0-5.0-5.0-1.6","69dac2125e535db5a698ea18","not_provided","desktop","0","0","0","","","","","","working_memory","","null","<img class='b' src=images/squares/brown.png><img class='d' src=images/squares/green.png><img class='i' src=images/squares/orange.png><img class='k' src=images/squares/red.png><div class=""fixation"">+</div>","null","","","memory","exp","6","","","","","","","","","","","",""
"html-keyboard-response","117","483747","0.0-5.0-5.0-2.6","69dac2125e535db5a698ea18","not_provided","desktop","0","0","0","","","","","","working_memory","","null","<div class=""fixation"">+</div>","null","","","","","","","","","","","","","","","","",""
"html-keyboard-response","118","485224","0.0-5.0-5.0-3.6","69dac2125e535db5a698ea18","not_provided","desktop","0","0","0","","","","","","working_memory","","1473","<img class='k' src=images/squares/red.png><div class=""fixation"">+</div>","k","","","test_squares","exp","6","4","k","true","ks","s","","","","","","",""
"html-keyboard-response","119","485743","0.0-5.0-5.0-4.6","69dac2125e535db5a698ea18","not_provided","desktop","0","0","0","","","","","","working_memory","","null","<div class=""fixation"">Correct</div>","null","","","","","","","","","","","","","","","","",""
"html-keyboard-response","120","486755","0.0-5.0-5.0-0.7","69dac2125e535db5a698ea18","not_provided","desktop","0","0","0","","","","","","working_memory","","null","<div class=""fixation"">+</div>","null","","","","","","","","","","","","","","","","",""
"html-keyboard-response","121","486965","0.0-5.0-5.0-1.7","69dac2125e535db5a698ea18","not_provided","desktop","0","0","0","","","","","","working_memory","","null","<img class='a' src=images/squares/cyan.png><img class='b' src=images/squares/blue.png><img class='d' src=images/squares/black.png><img class='e' src=images/squares/green.png><img class='i' src=images/squares/magenta.png><img class='g' src=images/squares/red.png><img class='l' src=images/squares/orange.png><img class='k' src=images/squares/yellow.png><div class=""fixation"">+</div>","null","","","memory","exp","7","","","","","","","","","","","",""
"html-keyboard-response","122","487874","0.0-5.0-5.0-2.7","69dac2125e535db5a698ea18","not_provided","desktop","0","0","0","","","","","","working_memory","","null","<div class=""fixation"">+</div>","null","","","","","","","","","","","","","","","","",""
"html-keyboard-response","123","488813","0.0-5.0-5.0-3.7","69dac2125e535db5a698ea18","not_provided","desktop","0","0","0","","","","","","working_memory","","936","<img class='d' src=images/squares/brown.png><div class=""fixation"">+</div>","s","","","test_squares","exp","7","8","s","true","ks","d","","","","","","",""
"html-keyboard-response","124","489322","0.0-5.0-5.0-4.7","69dac2125e535db5a698ea18","not_provided","desktop","0","0","0","","","","","","working_memory","","null","<div class=""fixation"">Correct</div>","null","","","","","","","","","","","","","","","","",""
"html-keyboard-response","125","490340","0.0-5.0-5.0-0.8","69dac2125e535db5a698ea18","not_provided","desktop","0","0","0","","","","","","working_memory","","null","<div class=""fixation"">+</div>","null","","","","","","","","","","","","","","","","",""
"html-keyboard-response","126","490554","0.0-5.0-5.0-1.8","69dac2125e535db5a698ea18","not_provided","desktop","0","0","0","","","","","","working_memory","","null","<img class='a' src=images/squares/yellow.png><img class='e' src=images/squares/black.png><img class='h' src=images/squares/green.png><img class='j' src=images/squares/red.png><div class=""fixation"">+</div>","null","","","memory","exp","8","","","","","","","","","","","",""
"html-keyboard-response","127","491467","0.0-5.0-5.0-2.8","69dac2125e535db5a698ea18","not_provided","desktop","0","0","0","","","","","","working_memory","","null","<div class=""fixation"">+</div>","null","","","","","","","","","","","","","","","","",""
"html-keyboard-response","128","492788","0.0-5.0-5.0-3.8","69dac2125e535db5a698ea18","not_provided","desktop","0","0","0","","","","","","working_memory","","1318","<img class='e' src=images/squares/cyan.png><div class=""fixation"">+</div>","k","","","test_squares","exp","8","4","s","false","ks","d","","","","","","",""
"html-keyboard-response","129","493293","0.0-5.0-5.0-4.8","69dac2125e535db5a698ea18","not_provided","desktop","0","0","0","","","","","","working_memory","","null","<div class=""fixation"">Incorrect</div>","null","","","","","","","","","","","","","","","","",""
"html-keyboard-response","130","494309","0.0-5.0-5.0-0.9","69dac2125e535db5a698ea18","not_provided","desktop","0","0","0","","","","","","working_memory","","null","<div class=""fixation"">+</div>","null","","","","","","","","","","","","","","","","",""
"html-keyboard-response","131","494521","0.0-5.0-5.0-1.9","69dac2125e535db5a698ea18","not_provided","desktop","0","0","0","","","","","","working_memory","","null","<img class='a' src=images/squares/orange.png><img class='c' src=images/squares/brown.png><img class='e' src=images/squares/cyan.png><img class='d' src=images/squares/yellow.png><img class='g' src=images/squares/blue.png><img class='h' src=images/squares/green.png><img class='k' src=images/squares/black.png><img class='l' src=images/squares/red.png><div class=""fixation"">+</div>","null","","","memory","exp","9","","","","","","","","","","","",""
"html-keyboard-response","132","495432","0.0-5.0-5.0-2.9","69dac2125e535db5a698ea18","not_provided","desktop","0","0","0","","","","","","working_memory","","null","<div class=""fixation"">+</div>","null","","","","","","","","","","","","","","","","",""
"html-keyboard-response","133","496924","0.0-5.0-5.0-3.9","69dac2125e535db5a698ea18","not_provided","desktop","0","0","0","","","","","","working_memory","","1488","<img class='a' src=images/squares/magenta.png><div class=""fixation"">+</div>","s","","","test_squares","exp","9","8","s","true","ks","d","","","","","","",""
"html-keyboard-response","134","497429","0.0-5.0-5.0-4.9","69dac2125e535db5a698ea18","not_provided","desktop","0","0","0","","","","","","working_memory","","null","<div class=""fixation"">Correct</div>","null","","","","","","","","","","","","","","","","",""
"html-keyboard-response","135","498441","0.0-5.0-5.0-0.10","69dac2125e535db5a698ea18","not_provided","desktop","0","0","0","","","","","","working_memory","","null","<div class=""fixation"">+</div>","null","","","","","","","","","","","","","","","","",""
"html-keyboard-response","136","498647","0.0-5.0-5.0-1.10","69dac2125e535db5a698ea18","not_provided","desktop","0","0","0","","","","","","working_memory","","null","<img class='c' src=images/squares/magenta.png><img class='e' src=images/squares/brown.png><img class='g' src=images/squares/green.png><img class='k' src=images/squares/orange.png><div class=""fixation"">+</div>","null","","","memory","exp","10","","","","","","","","","","","",""
"html-keyboard-response","137","499557","0.0-5.0-5.0-2.10","69dac2125e535db5a698ea18","not_provided","desktop","0","0","0","","","","","","working_memory","","null","<div class=""fixation"">+</div>","null","","","","","","","","","","","","","","","","",""
"html-keyboard-response","138","501555","0.0-5.0-5.0-3.10","69dac2125e535db5a698ea18","not_provided","desktop","0","0","0","","","","","","working_memory","","1994","<img class='k' src=images/squares/black.png><div class=""fixation"">+</div>","s","","","test_squares","exp","10","4","s","true","ks","d","","","","","","",""
"html-keyboard-response","139","502060","0.0-5.0-5.0-4.10","69dac2125e535db5a698ea18","not_provided","desktop","0","0","0","","","","","","working_memory","","null","<div class=""fixation"">Correct</div>","null","","","","","","","","","","","","","","","","",""
"html-keyboard-response","140","503064","0.0-5.0-5.0-0.11","69dac2125e535db5a698ea18","not_provided","desktop","0","0","0","","","","","","working_memory","","null","<div class=""fixation"">+</div>","null","","","","","","","","","","","","","","","","",""
"html-keyboard-response","141","503274","0.0-5.0-5.0-1.11","69dac2125e535db5a698ea18","not_provided","desktop","0","0","0","","","","","","working_memory","","null","<img class='b' src=images/squares/red.png><img class='e' src=images/squares/yellow.png><img class='g' src=images/squares/blue.png><img class='l' src=images/squares/cyan.png><div class=""fixation"">+</div>","null","","","memory","exp","11","","","","","","","","","","","",""
"html-keyboard-response","142","504183","0.0-5.0-5.0-2.11","69dac2125e535db5a698ea18","not_provided","desktop","0","0","0","","","","","","working_memory","","null","<div class=""fixation"">+</div>","null","","","","","","","","","","","","","","","","",""
"html-keyboard-response","143","505088","0.0-5.0-5.0-3.11","69dac2125e535db5a698ea18","not_provided","desktop","0","0","0","","","","","","working_memory","","902","<img class='l' src=images/squares/cyan.png><div class=""fixation"">+</div>","k","","","test_squares","exp","11","4","k","true","ks","s","","","","","","",""
"html-keyboard-response","144","505606","0.0-5.0-5.0-4.11","69dac2125e535db5a698ea18","not_provided","desktop","0","0","0","","","","","","working_memory","","null","<div class=""fixation"">Correct</div>","null","","","","","","","","","","","","","","","","",""
"html-keyboard-response","145","506615","0.0-5.0-5.0-0.12","69dac2125e535db5a698ea18","not_provided","desktop","0","0","0","","","","","","working_memory","","null","<div class=""fixation"">+</div>","null","","","","","","","","","","","","","","","","",""
"html-keyboard-response","146","506822","0.0-5.0-5.0-1.12","69dac2125e535db5a698ea18","not_provided","desktop","0","0","0","","","","","","working_memory","","null","<img class='b' src=images/squares/magenta.png><img class='e' src=images/squares/red.png><img class='g' src=images/squares/black.png><img class='k' src=images/squares/orange.png><div class=""fixation"">+</div>","null","","","memory","exp","12","","","","","","","","","","","",""
"html-keyboard-response","147","507726","0.0-5.0-5.0-2.12","69dac2125e535db5a698ea18","not_provided","desktop","0","0","0","","","","","","working_memory","","null","<div class=""fixation"">+</div>","null","","","","","","","","","","","","","","","","",""
"html-keyboard-response","148","508617","0.0-5.0-5.0-3.12","69dac2125e535db5a698ea18","not_provided","desktop","0","0","0","","","","","","working_memory","","889","<img class='b' src=images/squares/magenta.png><div class=""fixation"">+</div>","k","","","test_squares","exp","12","4","k","true","ks","s","","","","","","",""
"html-keyboard-response","149","509128","0.0-5.0-5.0-4.12","69dac2125e535db5a698ea18","not_provided","desktop","0","0","0","","","","","","working_memory","","null","<div class=""fixation"">Correct</div>","null","","","","","","","","","","","","","","","","",""
"html-keyboard-response","150","510139","0.0-5.0-5.0-0.13","69dac2125e535db5a698ea18","not_provided","desktop","0","0","0","","","","","","working_memory","","null","<div class=""fixation"">+</div>","null","","","","","","","","","","","","","","","","",""
"html-keyboard-response","151","510356","0.0-5.0-5.0-1.13","69dac2125e535db5a698ea18","not_provided","desktop","0","0","0","","","","","","working_memory","","null","<img class='c' src=images/squares/blue.png><img class='a' src=images/squares/brown.png><img class='d' src=images/squares/cyan.png><img class='e' src=images/squares/green.png><img class='h' src=images/squares/yellow.png><img class='g' src=images/squares/black.png><img class='k' src=images/squares/orange.png><img class='j' src=images/squares/red.png><div class=""fixation"">+</div>","null","","","memory","exp","13","","","","","","","","","","","",""
"html-keyboard-response","152","511265","0.0-5.0-5.0-2.13","69dac2125e535db5a698ea18","not_provided","desktop","0","0","0","","","","","","working_memory","","null","<div class=""fixation"">+</div>","null","","","","","","","","","","","","","","","","",""
"html-keyboard-response","153","512383","0.0-5.0-5.0-3.13","69dac2125e535db5a698ea18","not_provided","desktop","0","0","0","","","","","","working_memory","","1114","<img class='d' src=images/squares/cyan.png><div class=""fixation"">+</div>","s","","","test_squares","exp","13","8","k","false","ks","s","","","","","","",""
"html-keyboard-response","154","512890","0.0-5.0-5.0-4.13","69dac2125e535db5a698ea18","not_provided","desktop","0","0","0","","","","","","working_memory","","null","<div class=""fixation"">Incorrect</div>","null","","","","","","","","","","","","","","","","",""
"html-keyboard-response","155","513897","0.0-5.0-5.0-0.14","69dac2125e535db5a698ea18","not_provided","desktop","0","0","0","","","","","","working_memory","","null","<div class=""fixation"">+</div>","null","","","","","","","","","","","","","","","","",""
"html-keyboard-response","156","514116","0.0-5.0-5.0-1.14","69dac2125e535db5a698ea18","not_provided","desktop","0","0","0","","","","","","working_memory","","null","<img class='b' src=images/squares/black.png><img class='a' src=images/squares/cyan.png><img class='f' src=images/squares/orange.png><img class='e' src=images/squares/red.png><img class='g' src=images/squares/yellow.png><img class='h' src=images/squares/blue.png><img class='j' src=images/squares/magenta.png><img class='l' src=images/squares/green.png><div class=""fixation"">+</div>","null","","","memory","exp","14","","","","","","","","","","","",""
"html-keyboard-response","157","515033","0.0-5.0-5.0-2.14","69dac2125e535db5a698ea18","not_provided","desktop","0","0","0","","","","","","working_memory","","null","<div class=""fixation"">+</div>","null","","","","","","","","","","","","","","","","",""
"html-keyboard-response","158","515785","0.0-5.0-5.0-3.14","69dac2125e535db5a698ea18","not_provided","desktop","0","0","0","","","","","","working_memory","","749","<img class='a' src=images/squares/cyan.png><div class=""fixation"">+</div>","k","","","test_squares","exp","14","8","k","true","ks","s","","","","","","",""
"html-keyboard-response","159","516302","0.0-5.0-5.0-4.14","69dac2125e535db5a698ea18","not_provided","desktop","0","0","0","","","","","","working_memory","","null","<div class=""fixation"">Correct</div>","null","","","","","","","","","","","","","","","","",""
"html-keyboard-response","160","517307","0.0-5.0-5.0-0.15","69dac2125e535db5a698ea18","not_provided","desktop","0","0","0","","","","","","working_memory","","null","<div class=""fixation"">+</div>","null","","","","","","","","","","","","","","","","",""
"html-keyboard-response","161","517515","0.0-5.0-5.0-1.15","69dac2125e535db5a698ea18","not_provided","desktop","0","0","0","","","","","","working_memory","","null","<img class='b' src=images/squares/red.png><img class='f' src=images/squares/cyan.png><img class='h' src=images/squares/blue.png><img class='k' src=images/squares/yellow.png><div class=""fixation"">+</div>","null","","","memory","exp","15","","","","","","","","","","","",""
"html-keyboard-response","162","518431","0.0-5.0-5.0-2.15","69dac2125e535db5a698ea18","not_provided","desktop","0","0","0","","","","","","working_memory","","null","<div class=""fixation"">+</div>","null","","","","","","","","","","","","","","","","",""
"html-keyboard-response","163","519358","0.0-5.0-5.0-3.15","69dac2125e535db5a698ea18","not_provided","desktop","0","0","0","","","","","","working_memory","","922","<img class='f' src=images/squares/cyan.png><div class=""fixation"">+</div>","k","","","test_squares","exp","15","4","k","true","ks","s","","","","","","",""
"html-keyboard-response","164","519872","0.0-5.0-5.0-4.15","69dac2125e535db5a698ea18","not_provided","desktop","0","0","0","","","","","","working_memory","","null","<div class=""fixation"">Correct</div>","null","","","","","","","","","","","","","","","","",""
"html-keyboard-response","165","520883","0.0-5.0-5.0-0.16","69dac2125e535db5a698ea18","not_provided","desktop","0","0","0","","","","","","working_memory","","null","<div class=""fixation"">+</div>","null","","","","","","","","","","","","","","","","",""
"html-keyboard-response","166","521101","0.0-5.0-5.0-1.16","69dac2125e535db5a698ea18","not_provided","desktop","0","0","0","","","","","","working_memory","","null","<img class='c' src=images/squares/brown.png><img class='d' src=images/squares/black.png><img class='h' src=images/squares/yellow.png><img class='l' src=images/squares/red.png><div class=""fixation"">+</div>","null","","","memory","exp","16","","","","","","","","","","","",""
"html-keyboard-response","167","522014","0.0-5.0-5.0-2.16","69dac2125e535db5a698ea18","not_provided","desktop","0","0","0","","","","","","working_memory","","null","<div class=""fixation"">+</div>","null","","","","","","","","","","","","","","","","",""
"html-keyboard-response","168","523186","0.0-5.0-5.0-3.16","69dac2125e535db5a698ea18","not_provided","desktop","0","0","0","","","","","","working_memory","","1168","<img class='l' src=images/squares/cyan.png><div class=""fixation"">+</div>","s","","","test_squares","exp","16","4","s","true","ks","d","","","","","","",""
"html-keyboard-response","169","523689","0.0-5.0-5.0-4.16","69dac2125e535db5a698ea18","not_provided","desktop","0","0","0","","","","","","working_memory","","null","<div class=""fixation"">Correct</div>","null","","","","","","","","","","","","","","","","",""
"html-keyboard-response","170","524698","0.0-5.0-5.0-0.17","69dac2125e535db5a698ea18","not_provided","desktop","0","0","0","","","","","","working_memory","","null","<div class=""fixation"">+</div>","null","","","","","","","","","","","","","","","","",""
"html-keyboard-response","171","524902","0.0-5.0-5.0-1.17","69dac2125e535db5a698ea18","not_provided","desktop","0","0","0","","","","","","working_memory","","null","<img class='c' src=images/squares/cyan.png><img class='e' src=images/squares/blue.png><img class='i' src=images/squares/yellow.png><img class='j' src=images/squares/orange.png><div class=""fixation"">+</div>","null","","","memory","exp","17","","","","","","","","","","","",""
"html-keyboard-response","172","525814","0.0-5.0-5.0-2.17","69dac2125e535db5a698ea18","not_provided","desktop","0","0","0","","","","","","working_memory","","null","<div class=""fixation"">+</div>","null","","","","","","","","","","","","","","","","",""
"html-keyboard-response","173","526882","0.0-5.0-5.0-3.17","69dac2125e535db5a698ea18","not_provided","desktop","0","0","0","","","","","","working_memory","","1064","<img class='i' src=images/squares/black.png><div class=""fixation"">+</div>","s","","","test_squares","exp","17","4","s","true","ks","d","","","","","","",""
"html-keyboard-response","174","527398","0.0-5.0-5.0-4.17","69dac2125e535db5a698ea18","not_provided","desktop","0","0","0","","","","","","working_memory","","null","<div class=""fixation"">Correct</div>","null","","","","","","","","","","","","","","","","",""
"html-keyboard-response","175","528412","0.0-5.0-5.0-0.18","69dac2125e535db5a698ea18","not_provided","desktop","0","0","0","","","","","","working_memory","","null","<div class=""fixation"">+</div>","null","","","","","","","","","","","","","","","","",""
"html-keyboard-response","176","528621","0.0-5.0-5.0-1.18","69dac2125e535db5a698ea18","not_provided","desktop","0","0","0","","","","","","working_memory","","null","<img class='c' src=images/squares/blue.png><img class='f' src=images/squares/yellow.png><img class='g' src=images/squares/brown.png><img class='l' src=images/squares/red.png><div class=""fixation"">+</div>","null","","","memory","exp","18","","","","","","","","","","","",""
"html-keyboard-response","177","529533","0.0-5.0-5.0-2.18","69dac2125e535db5a698ea18","not_provided","desktop","0","0","0","","","","","","working_memory","","null","<div class=""fixation"">+</div>","null","","","","","","","","","","","","","","","","",""
"html-keyboard-response","178","530702","0.0-5.0-5.0-3.18","69dac2125e535db5a698ea18","not_provided","desktop","0","0","0","","","","","","working_memory","","1164","<img class='g' src=images/squares/magenta.png><div class=""fixation"">+</div>","s","","","test_squares","exp","18","4","s","true","ks","d","","","","","","",""
"html-keyboard-response","179","531208","0.0-5.0-5.0-4.18","69dac2125e535db5a698ea18","not_provided","desktop","0","0","0","","","","","","working_memory","","null","<div class=""fixation"">Correct</div>","null","","","","","","","","","","","","","","","","",""
"html-keyboard-response","180","532217","0.0-5.0-5.0-0.19","69dac2125e535db5a698ea18","not_provided","desktop","0","0","0","","","","","","working_memory","","null","<div class=""fixation"">+</div>","null","","","","","","","","","","","","","","","","",""
"html-keyboard-response","181","532431","0.0-5.0-5.0-1.19","69dac2125e535db5a698ea18","not_provided","desktop","0","0","0","","","","","","working_memory","","null","<img class='c' src=images/squares/yellow.png><img class='e' src=images/squares/blue.png><img class='g' src=images/squares/magenta.png><img class='l' src=images/squares/orange.png><div class=""fixation"">+</div>","null","","","memory","exp","19","","","","","","","","","","","",""
"html-keyboard-response","182","533340","0.0-5.0-5.0-2.19","69dac2125e535db5a698ea18","not_provided","desktop","0","0","0","","","","","","working_memory","","null","<div class=""fixation"">+</div>","null","","","","","","","","","","","","","","","","",""
"html-keyboard-response","183","534200","0.0-5.0-5.0-3.19","69dac2125e535db5a698ea18","not_provided","desktop","0","0","0","","","","","","working_memory","","856","<img class='g' src=images/squares/magenta.png><div class=""fixation"">+</div>","k","","","test_squares","exp","19","4","k","true","ks","s","","","","","","",""
"html-keyboard-response","184","534712","0.0-5.0-5.0-4.19","69dac2125e535db5a698ea18","not_provided","desktop","0","0","0","","","","","","working_memory","","null","<div class=""fixation"">Correct</div>","null","","","","","","","","","","","","","","","","",""
"html-keyboard-response","185","535714","0.0-5.0-5.0-0.20","69dac2125e535db5a698ea18","not_provided","desktop","0","0","0","","","","","","working_memory","","null","<div class=""fixation"">+</div>","null","","","","","","","","","","","","","","","","",""
"html-keyboard-response","186","535918","0.0-5.0-5.0-1.20","69dac2125e535db5a698ea18","not_provided","desktop","0","0","0","","","","","","working_memory","","null","<img class='b' src=images/squares/red.png><img class='f' src=images/squares/magenta.png><img class='i' src=images/squares/brown.png><img class='j' src=images/squares/green.png><div class=""fixation"">+</div>","null","","","memory","exp","20","","","","","","","","","","","",""
"html-keyboard-response","187","536827","0.0-5.0-5.0-2.20","69dac2125e535db5a698ea18","not_provided","desktop","0","0","0","","","","","","working_memory","","null","<div class=""fixation"">+</div>","null","","","","","","","","","","","","","","","","",""
"html-keyboard-response","188","538451","0.0-5.0-5.0-3.20","69dac2125e535db5a698ea18","not_provided","desktop","0","0","0","","","","","","working_memory","","1620","<img class='b' src=images/squares/cyan.png><div class=""fixation"">+</div>","s","","","test_squares","exp","20","4","s","true","ks","d","","","","","","",""
"html-keyboard-response","189","538964","0.0-5.0-5.0-4.20","69dac2125e535db5a698ea18","not_provided","desktop","0","0","0","","","","","","working_memory","","null","<div class=""fixation"">Correct</div>","null","","","","","","","","","","","","","","","","",""
"html-keyboard-response","190","539967","0.0-5.0-5.0-0.21","69dac2125e535db5a698ea18","not_provided","desktop","0","0","0","","","","","","working_memory","","null","<div class=""fixation"">+</div>","null","","","","","","","","","","","","","","","","",""
"html-keyboard-response","191","540187","0.0-5.0-5.0-1.21","69dac2125e535db5a698ea18","not_provided","desktop","0","0","0","","","","","","working_memory","","null","<img class='a' src=images/squares/orange.png><img class='d' src=images/squares/yellow.png><img class='g' src=images/squares/magenta.png><img class='j' src=images/squares/black.png><div class=""fixation"">+</div>","null","","","memory","exp","21","","","","","","","","","","","",""
"html-keyboard-response","192","541096","0.0-5.0-5.0-2.21","69dac2125e535db5a698ea18","not_provided","desktop","0","0","0","","","","","","working_memory","","null","<div class=""fixation"">+</div>","null","","","","","","","","","","","","","","","","",""
"html-keyboard-response","193","542290","0.0-5.0-5.0-3.21","69dac2125e535db5a698ea18","not_provided","desktop","0","0","0","","","","","","working_memory","","1190","<img class='a' src=images/squares/red.png><div class=""fixation"">+</div>","s","","","test_squares","exp","21","4","s","true","ks","d","","","","","","",""
"html-keyboard-response","194","542804","0.0-5.0-5.0-4.21","69dac2125e535db5a698ea18","not_provided","desktop","0","0","0","","","","","","working_memory","","null","<div class=""fixation"">Correct</div>","null","","","","","","","","","","","","","","","","",""
"html-keyboard-response","195","543821","0.0-5.0-5.0-0.22","69dac2125e535db5a698ea18","not_provided","desktop","0","0","0","","","","","","working_memory","","null","<div class=""fixation"">+</div>","null","","","","","","","","","","","","","","","","",""
"html-keyboard-response","196","544038","0.0-5.0-5.0-1.22","69dac2125e535db5a698ea18","not_provided","desktop","0","0","0","","","","","","working_memory","","null","<img class='a' src=images/squares/green.png><img class='f' src=images/squares/yellow.png><img class='g' src=images/squares/black.png><img class='l' src=images/squares/blue.png><div class=""fixation"">+</div>","null","","","memory","exp","22","","","","","","","","","","","",""
"html-keyboard-response","197","544953","0.0-5.0-5.0-2.22","69dac2125e535db5a698ea18","not_provided","desktop","0","0","0","","","","","","working_memory","","null","<div class=""fixation"">+</div>","null","","","","","","","","","","","","","","","","",""
"html-keyboard-response","198","546629","0.0-5.0-5.0-3.22","69dac2125e535db5a698ea18","not_provided","desktop","0","0","0","","","","","","working_memory","","1673","<img class='l' src=images/squares/blue.png><div class=""fixation"">+</div>","k","","","test_squares","exp","22","4","k","true","ks","s","","","","","","",""
"html-keyboard-response","199","547138","0.0-5.0-5.0-4.22","69dac2125e535db5a698ea18","not_provided","desktop","0","0","0","","","","","","working_memory","","null","<div class=""fixation"">Correct</div>","null","","","","","","","","","","","","","","","","",""
"html-keyboard-response","200","548149","0.0-5.0-5.0-0.23","69dac2125e535db5a698ea18","not_provided","desktop","0","0","0","","","","","","working_memory","","null","<div class=""fixation"">+</div>","null","","","","","","","","","","","","","","","","",""
"html-keyboard-response","201","548358","0.0-5.0-5.0-1.23","69dac2125e535db5a698ea18","not_provided","desktop","0","0","0","","","","","","working_memory","","null","<img class='a' src=images/squares/brown.png><img class='b' src=images/squares/blue.png><img class='e' src=images/squares/green.png><img class='d' src=images/squares/yellow.png><img class='i' src=images/squares/red.png><img class='h' src=images/squares/orange.png><img class='j' src=images/squares/black.png><img class='l' src=images/squares/magenta.png><div class=""fixation"">+</div>","null","","","memory","exp","23","","","","","","","","","","","",""
"html-keyboard-response","202","549267","0.0-5.0-5.0-2.23","69dac2125e535db5a698ea18","not_provided","desktop","0","0","0","","","","","","working_memory","","null","<div class=""fixation"">+</div>","null","","","","","","","","","","","","","","","","",""
"html-keyboard-response","203","550801","0.0-5.0-5.0-3.23","69dac2125e535db5a698ea18","not_provided","desktop","0","0","0","","","","","","working_memory","","1530","<img class='l' src=images/squares/magenta.png><div class=""fixation"">+</div>","s","","","test_squares","exp","23","8","k","false","ks","s","","","","","","",""
"html-keyboard-response","204","551314","0.0-5.0-5.0-4.23","69dac2125e535db5a698ea18","not_provided","desktop","0","0","0","","","","","","working_memory","","null","<div class=""fixation"">Incorrect</div>","null","","","","","","","","","","","","","","","","",""
"html-keyboard-response","205","552326","0.0-5.0-5.0-0.24","69dac2125e535db5a698ea18","not_provided","desktop","0","0","0","","","","","","working_memory","","null","<div class=""fixation"">+</div>","null","","","","","","","","","","","","","","","","",""
"html-keyboard-response","206","552542","0.0-5.0-5.0-1.24","69dac2125e535db5a698ea18","not_provided","desktop","0","0","0","","","","","","working_memory","","null","<img class='a' src=images/squares/brown.png><img class='c' src=images/squares/green.png><img class='e' src=images/squares/black.png><img class='f' src=images/squares/orange.png><img class='h' src=images/squares/yellow.png><img class='g' src=images/squares/cyan.png><img class='k' src=images/squares/blue.png><img class='j' src=images/squares/red.png><div class=""fixation"">+</div>","null","","","memory","exp","24","","","","","","","","","","","",""
"html-keyboard-response","207","553454","0.0-5.0-5.0-2.24","69dac2125e535db5a698ea18","not_provided","desktop","0","0","0","","","","","","working_memory","","null","<div class=""fixation"">+</div>","null","","","","","","","","","","","","","","","","",""
"html-keyboard-response","208","554506","0.0-5.0-5.0-3.24","69dac2125e535db5a698ea18","not_provided","desktop","0","0","0","","","","","","working_memory","","1048","<img class='g' src=images/squares/cyan.png><div class=""fixation"">+</div>","k","","","test_squares","exp","24","8","k","true","ks","s","","","","","","",""
"html-keyboard-response","209","555009","0.0-5.0-5.0-4.24","69dac2125e535db5a698ea18","not_provided","desktop","0","0","0","","","","","","working_memory","","null","<div class=""fixation"">Correct</div>","null","","","","","","","","","","","","","","","","",""
"html-keyboard-response","210","556015","0.0-5.0-5.0-0.25","69dac2125e535db5a698ea18","not_provided","desktop","0","0","0","","","","","","working_memory","","null","<div class=""fixation"">+</div>","null","","","","","","","","","","","","","","","","",""
"html-keyboard-response","211","556224","0.0-5.0-5.0-1.25","69dac2125e535db5a698ea18","not_provided","desktop","0","0","0","","","","","","working_memory","","null","<img class='b' src=images/squares/yellow.png><img class='f' src=images/squares/magenta.png><img class='i' src=images/squares/brown.png><img class='j' src=images/squares/orange.png><div class=""fixation"">+</div>","null","","","memory","exp","25","","","","","","","","","","","",""
"html-keyboard-response","212","557127","0.0-5.0-5.0-2.25","69dac2125e535db5a698ea18","not_provided","desktop","0","0","0","","","","","","working_memory","","null","<div class=""fixation"">+</div>","null","","","","","","","","","","","","","","","","",""
"html-keyboard-response","213","559422","0.0-5.0-5.0-3.25","69dac2125e535db5a698ea18","not_provided","desktop","0","0","0","","","","","","working_memory","","2290","<img class='j' src=images/squares/blue.png><div class=""fixation"">+</div>","k","","","test_squares","exp","25","4","s","false","ks","d","","","","","","",""
"html-keyboard-response","214","559926","0.0-5.0-5.0-4.25","69dac2125e535db5a698ea18","not_provided","desktop","0","0","0","","","","","","working_memory","","null","<div class=""fixation"">Incorrect</div>","null","","","","","","","","","","","","","","","","",""
"html-keyboard-response","215","560937","0.0-5.0-5.0-0.26","69dac2125e535db5a698ea18","not_provided","desktop","0","0","0","","","","","","working_memory","","null","<div class=""fixation"">+</div>","null","","","","","","","","","","","","","","","","",""
"html-keyboard-response","216","561141","0.0-5.0-5.0-1.26","69dac2125e535db5a698ea18","not_provided","desktop","0","0","0","","","","","","working_memory","","null","<img class='a' src=images/squares/cyan.png><img class='f' src=images/squares/blue.png><img class='g' src=images/squares/orange.png><img class='j' src=images/squares/red.png><div class=""fixation"">+</div>","null","","","memory","exp","26","","","","","","","","","","","",""
"html-keyboard-response","217","562049","0.0-5.0-5.0-2.26","69dac2125e535db5a698ea18","not_provided","desktop","0","0","0","","","","","","working_memory","","null","<div class=""fixation"">+</div>","null","","","","","","","","","","","","","","","","",""
"html-keyboard-response","218","563293","0.0-5.0-5.0-3.26","69dac2125e535db5a698ea18","not_provided","desktop","0","0","0","","","","","","working_memory","","1240","<img class='f' src=images/squares/magenta.png><div class=""fixation"">+</div>","s","","","test_squares","exp","26","4","s","true","ks","d","","","","","","",""
"html-keyboard-response","219","563809","0.0-5.0-5.0-4.26","69dac2125e535db5a698ea18","not_provided","desktop","0","0","0","","","","","","working_memory","","null","<div class=""fixation"">Correct</div>","null","","","","","","","","","","","","","","","","",""
"html-keyboard-response","220","564818","0.0-5.0-5.0-0.27","69dac2125e535db5a698ea18","not_provided","desktop","0","0","0","","","","","","working_memory","","null","<div class=""fixation"">+</div>","null","","","","","","","","","","","","","","","","",""
"html-keyboard-response","221","565024","0.0-5.0-5.0-1.27","69dac2125e535db5a698ea18","not_provided","desktop","0","0","0","","","","","","working_memory","","null","<img class='c' src=images/squares/blue.png><img class='f' src=images/squares/orange.png><img class='h' src=images/squares/magenta.png><img class='j' src=images/squares/green.png><div class=""fixation"">+</div>","null","","","memory","exp","27","","","","","","","","","","","",""
"html-keyboard-response","222","565932","0.0-5.0-5.0-2.27","69dac2125e535db5a698ea18","not_provided","desktop","0","0","0","","","","","","working_memory","","null","<div class=""fixation"">+</div>","null","","","","","","","","","","","","","","","","",""
"html-keyboard-response","223","567372","0.0-5.0-5.0-3.27","69dac2125e535db5a698ea18","not_provided","desktop","0","0","0","","","","","","working_memory","","1437","<img class='j' src=images/squares/brown.png><div class=""fixation"">+</div>","s","","","test_squares","exp","27","4","s","true","ks","d","","","","","","",""
"html-keyboard-response","224","567887","0.0-5.0-5.0-4.27","69dac2125e535db5a698ea18","not_provided","desktop","0","0","0","","","","","","working_memory","","null","<div class=""fixation"">Correct</div>","null","","","","","","","","","","","","","","","","",""
"html-keyboard-response","225","568900","0.0-5.0-5.0-0.28","69dac2125e535db5a698ea18","not_provided","desktop","0","0","0","","","","","","working_memory","","null","<div class=""fixation"">+</div>","null","","","","","","","","","","","","","","","","",""
"html-keyboard-response","226","569109","0.0-5.0-5.0-1.28","69dac2125e535db5a698ea18","not_provided","desktop","0","0","0","","","","","","working_memory","","null","<img class='c' src=images/squares/blue.png><img class='b' src=images/squares/magenta.png><img class='f' src=images/squares/cyan.png><img class='e' src=images/squares/black.png><img class='h' src=images/squares/brown.png><img class='g' src=images/squares/red.png><img class='l' src=images/squares/orange.png><img class='j' src=images/squares/green.png><div class=""fixation"">+</div>","null","","","memory","exp","28","","","","","","","","","","","",""
"html-keyboard-response","227","570015","0.0-5.0-5.0-2.28","69dac2125e535db5a698ea18","not_provided","desktop","0","0","0","","","","","","working_memory","","null","<div class=""fixation"">+</div>","null","","","","","","","","","","","","","","","","",""
"html-keyboard-response","228","571363","0.0-5.0-5.0-3.28","69dac2125e535db5a698ea18","not_provided","desktop","0","0","0","","","","","","working_memory","","1344","<img class='e' src=images/squares/yellow.png><div class=""fixation"">+</div>","s","","","test_squares","exp","28","8","s","true","ks","d","","","","","","",""
"html-keyboard-response","229","571874","0.0-5.0-5.0-4.28","69dac2125e535db5a698ea18","not_provided","desktop","0","0","0","","","","","","working_memory","","null","<div class=""fixation"">Correct</div>","null","","","","","","","","","","","","","","","","",""
"html-keyboard-response","230","572880","0.0-5.0-5.0-0.29","69dac2125e535db5a698ea18","not_provided","desktop","0","0","0","","","","","","working_memory","","null","<div class=""fixation"">+</div>","null","","","","","","","","","","","","","","","","",""
"html-keyboard-response","231","573083","0.0-5.0-5.0-1.29","69dac2125e535db5a698ea18","not_provided","desktop","0","0","0","","","","","","working_memory","","null","<img class='c' src=images/squares/black.png><img class='f' src=images/squares/cyan.png><img class='g' src=images/squares/magenta.png><img class='k' src=images/squares/brown.png><div class=""fixation"">+</div>","null","","","memory","exp","29","","","","","","","","","","","",""
"html-keyboard-response","232","573985","0.0-5.0-5.0-2.29","69dac2125e535db5a698ea18","not_provided","desktop","0","0","0","","","","","","working_memory","","null","<div class=""fixation"">+</div>","null","","","","","","","","","","","","","","","","",""
"html-keyboard-response","233","574820","0.0-5.0-5.0-3.29","69dac2125e535db5a698ea18","not_provided","desktop","0","0","0","","","","","","working_memory","","831","<img class='g' src=images/squares/magenta.png><div class=""fixation"">+</div>","k","","","test_squares","exp","29","4","k","true","ks","s","","","","","","",""
"html-keyboard-response","234","575323","0.0-5.0-5.0-4.29","69dac2125e535db5a698ea18","not_provided","desktop","0","0","0","","","","","","working_memory","","null","<div class=""fixation"">Correct</div>","null","","","","","","","","","","","","","","","","",""
"html-keyboard-response","235","576333","0.0-5.0-5.0-0.30","69dac2125e535db5a698ea18","not_provided","desktop","0","0","0","","","","","","working_memory","","null","<div class=""fixation"">+</div>","null","","","","","","","","","","","","","","","","",""
"html-keyboard-response","236","576542","0.0-5.0-5.0-1.30","69dac2125e535db5a698ea18","not_provided","desktop","0","0","0","","","","","","working_memory","","null","<img class='c' src=images/squares/magenta.png><img class='e' src=images/squares/brown.png><img class='h' src=images/squares/blue.png><img class='j' src=images/squares/yellow.png><div class=""fixation"">+</div>","null","","","memory","exp","30","","","","","","","","","","","",""
"html-keyboard-response","237","577447","0.0-5.0-5.0-2.30","69dac2125e535db5a698ea18","not_provided","desktop","0","0","0","","","","","","working_memory","","null","<div class=""fixation"">+</div>","null","","","","","","","","","","","","","","","","",""
"html-keyboard-response","238","579246","0.0-5.0-5.0-3.30","69dac2125e535db5a698ea18","not_provided","desktop","0","0","0","","","","","","working_memory","","1795","<img class='c' src=images/squares/magenta.png><div class=""fixation"">+</div>","k","","","test_squares","exp","30","4","k","true","ks","s","","","","","","",""
"html-keyboard-response","239","579748","0.0-5.0-5.0-4.30","69dac2125e535db5a698ea18","not_provided","desktop","0","0","0","","","","","","working_memory","","null","<div class=""fixation"">Correct</div>","null","","","","","","","","","","","","","","","","",""
"html-keyboard-response","240","580761","0.0-5.0-5.0-0.31","69dac2125e535db5a698ea18","not_provided","desktop","0","0","0","","","","","","working_memory","","null","<div class=""fixation"">+</div>","null","","","","","","","","","","","","","","","","",""
"html-keyboard-response","241","580968","0.0-5.0-5.0-1.31","69dac2125e535db5a698ea18","not_provided","desktop","0","0","0","","","","","","working_memory","","null","<img class='a' src=images/squares/yellow.png><img class='f' src=images/squares/orange.png><img class='h' src=images/squares/cyan.png><img class='k' src=images/squares/red.png><div class=""fixation"">+</div>","null","","","memory","exp","31","","","","","","","","","","","",""
"html-keyboard-response","242","581881","0.0-5.0-5.0-2.31","69dac2125e535db5a698ea18","not_provided","desktop","0","0","0","","","","","","working_memory","","null","<div class=""fixation"">+</div>","null","","","","","","","","","","","","","","","","",""
"html-keyboard-response","243","582915","0.0-5.0-5.0-3.31","69dac2125e535db5a698ea18","not_provided","desktop","0","0","0","","","","","","working_memory","","1030","<img class='a' src=images/squares/yellow.png><div class=""fixation"">+</div>","k","","","test_squares","exp","31","4","k","true","ks","s","","","","","","",""
"html-keyboard-response","244","583429","0.0-5.0-5.0-4.31","69dac2125e535db5a698ea18","not_provided","desktop","0","0","0","","","","","","working_memory","","null","<div class=""fixation"">Correct</div>","null","","","","","","","","","","","","","","","","",""
"html-keyboard-response","245","584434","0.0-5.0-5.0-0.32","69dac2125e535db5a698ea18","not_provided","desktop","0","0","0","","","","","","working_memory","","null","<div class=""fixation"">+</div>","null","","","","","","","","","","","","","","","","",""
"html-keyboard-response","246","584643","0.0-5.0-5.0-1.32","69dac2125e535db5a698ea18","not_provided","desktop","0","0","0","","","","","","working_memory","","null","<img class='a' src=images/squares/yellow.png><img class='b' src=images/squares/cyan.png><img class='e' src=images/squares/red.png><img class='f' src=images/squares/blue.png><img class='h' src=images/squares/magenta.png><img class='g' src=images/squares/green.png><img class='j' src=images/squares/brown.png><img class='k' src=images/squares/orange.png><div class=""fixation"">+</div>","null","","","memory","exp","32","","","","","","","","","","","",""
"html-keyboard-response","247","585545","0.0-5.0-5.0-2.32","69dac2125e535db5a698ea18","not_provided","desktop","0","0","0","","","","","","working_memory","","null","<div class=""fixation"">+</div>","null","","","","","","","","","","","","","","","","",""
"html-keyboard-response","248","586797","0.0-5.0-5.0-3.32","69dac2125e535db5a698ea18","not_provided","desktop","0","0","0","","","","","","working_memory","","1249","<img class='k' src=images/squares/orange.png><div class=""fixation"">+</div>","s","","","test_squares","exp","32","8","k","false","ks","s","","","","","","",""
"html-keyboard-response","249","587301","0.0-5.0-5.0-4.32","69dac2125e535db5a698ea18","not_provided","desktop","0","0","0","","","","","","working_memory","","null","<div class=""fixation"">Incorrect</div>","null","","","","","","","","","","","","","","","","",""
"html-keyboard-response","250","588313","0.0-5.0-5.0-0.33","69dac2125e535db5a698ea18","not_provided","desktop","0","0","0","","","","","","working_memory","","null","<div class=""fixation"">+</div>","null","","","","","","","","","","","","","","","","",""
"html-keyboard-response","251","588519","0.0-5.0-5.0-1.33","69dac2125e535db5a698ea18","not_provided","desktop","0","0","0","","","","","","working_memory","","null","<img class='c' src=images/squares/cyan.png><img class='a' src=images/squares/brown.png><img class='f' src=images/squares/yellow.png><img class='d' src=images/squares/orange.png><img class='g' src=images/squares/magenta.png><img class='i' src=images/squares/red.png><img class='l' src=images/squares/green.png><img class='k' src=images/squares/blue.png><div class=""fixation"">+</div>","null","","","memory","exp","33","","","","","","","","","","","",""
"html-keyboard-response","252","589422","0.0-5.0-5.0-2.33","69dac2125e535db5a698ea18","not_provided","desktop","0","0","0","","","","","","working_memory","","null","<div class=""fixation"">+</div>","null","","","","","","","","","","","","","","","","",""
"html-keyboard-response","253","590975","0.0-5.0-5.0-3.33","69dac2125e535db5a698ea18","not_provided","desktop","0","0","0","","","","","","working_memory","","1550","<img class='a' src=images/squares/black.png><div class=""fixation"">+</div>","s","","","test_squares","exp","33","8","s","true","ks","d","","","","","","",""
"html-keyboard-response","254","591488","0.0-5.0-5.0-4.33","69dac2125e535db5a698ea18","not_provided","desktop","0","0","0","","","","","","working_memory","","null","<div class=""fixation"">Correct</div>","null","","","","","","","","","","","","","","","","",""
"html-keyboard-response","255","592500","0.0-5.0-5.0-0.34","69dac2125e535db5a698ea18","not_provided","desktop","0","0","0","","","","","","working_memory","","null","<div class=""fixation"">+</div>","null","","","","","","","","","","","","","","","","",""
"html-keyboard-response","256","592706","0.0-5.0-5.0-1.34","69dac2125e535db5a698ea18","not_provided","desktop","0","0","0","","","","","","working_memory","","null","<img class='c' src=images/squares/brown.png><img class='d' src=images/squares/red.png><img class='g' src=images/squares/cyan.png><img class='l' src=images/squares/yellow.png><div class=""fixation"">+</div>","null","","","memory","exp","34","","","","","","","","","","","",""
"html-keyboard-response","257","593615","0.0-5.0-5.0-2.34","69dac2125e535db5a698ea18","not_provided","desktop","0","0","0","","","","","","working_memory","","null","<div class=""fixation"">+</div>","null","","","","","","","","","","","","","","","","",""
"html-keyboard-response","258","595083","0.0-5.0-5.0-3.34","69dac2125e535db5a698ea18","not_provided","desktop","0","0","0","","","","","","working_memory","","1464","<img class='g' src=images/squares/cyan.png><div class=""fixation"">+</div>","s","","","test_squares","exp","34","4","k","false","ks","s","","","","","","",""
"html-keyboard-response","259","595599","0.0-5.0-5.0-4.34","69dac2125e535db5a698ea18","not_provided","desktop","0","0","0","","","","","","working_memory","","null","<div class=""fixation"">Incorrect</div>","null","","","","","","","","","","","","","","","","",""
"html-keyboard-response","260","596613","0.0-5.0-5.0-0.35","69dac2125e535db5a698ea18","not_provided","desktop","0","0","0","","","","","","working_memory","","null","<div class=""fixation"">+</div>","null","","","","","","","","","","","","","","","","",""
"html-keyboard-response","261","596819","0.0-5.0-5.0-1.35","69dac2125e535db5a698ea18","not_provided","desktop","0","0","0","","","","","","working_memory","","null","<img class='a' src=images/squares/orange.png><img class='e' src=images/squares/brown.png><img class='g' src=images/squares/black.png><img class='j' src=images/squares/magenta.png><div class=""fixation"">+</div>","null","","","memory","exp","35","","","","","","","","","","","",""
"html-keyboard-response","262","597736","0.0-5.0-5.0-2.35","69dac2125e535db5a698ea18","not_provided","desktop","0","0","0","","","","","","working_memory","","null","<div class=""fixation"">+</div>","null","","","","","","","","","","","","","","","","",""
"html-keyboard-response","263","598872","0.0-5.0-5.0-3.35","69dac2125e535db5a698ea18","not_provided","desktop","0","0","0","","","","","","working_memory","","1133","<img class='a' src=images/squares/orange.png><div class=""fixation"">+</div>","k","","","test_squares","exp","35","4","k","true","ks","s","","","","","","",""
"html-keyboard-response","264","599380","0.0-5.0-5.0-4.35","69dac2125e535db5a698ea18","not_provided","desktop","0","0","0","","","","","","working_memory","","null","<div class=""fixation"">Correct</div>","null","","","","","","","","","","","","","","","","",""
"html-keyboard-response","265","600384","0.0-5.0-5.0-0.36","69dac2125e535db5a698ea18","not_provided","desktop","0","0","0","","","","","","working_memory","","null","<div class=""fixation"">+</div>","null","","","","","","","","","","","","","","","","",""
"html-keyboard-response","266","600602","0.0-5.0-5.0-1.36","69dac2125e535db5a698ea18","not_provided","desktop","0","0","0","","","","","","working_memory","","null","<img class='b' src=images/squares/cyan.png><img class='c' src=images/squares/magenta.png><img class='f' src=images/squares/blue.png><img class='d' src=images/squares/green.png><img class='g' src=images/squares/black.png><img class='i' src=images/squares/red.png><img class='l' src=images/squares/brown.png><img class='j' src=images/squares/orange.png><div class=""fixation"">+</div>","null","","","memory","exp","36","","","","","","","","","","","",""
"html-keyboard-response","267","601516","0.0-5.0-5.0-2.36","69dac2125e535db5a698ea18","not_provided","desktop","0","0","0","","","","","","working_memory","","null","<div class=""fixation"">+</div>","null","","","","","","","","","","","","","","","","",""
"html-keyboard-response","268","602261","0.0-5.0-5.0-3.36","69dac2125e535db5a698ea18","not_provided","desktop","0","0","0","","","","","","working_memory","","742","<img class='f' src=images/squares/yellow.png><div class=""fixation"">+</div>","k","","","test_squares","exp","36","8","s","false","ks","d","","","","","","",""
"html-keyboard-response","269","602775","0.0-5.0-5.0-4.36","69dac2125e535db5a698ea18","not_provided","desktop","0","0","0","","","","","","working_memory","","null","<div class=""fixation"">Incorrect</div>","null","","","","","","","","","","","","","","","","",""
"html-keyboard-response","270","603778","0.0-5.0-5.0-0.37","69dac2125e535db5a698ea18","not_provided","desktop","0","0","0","","","","","","working_memory","","null","<div class=""fixation"">+</div>","null","","","","","","","","","","","","","","","","",""
"html-keyboard-response","271","603989","0.0-5.0-5.0-1.37","69dac2125e535db5a698ea18","not_provided","desktop","0","0","0","","","","","","working_memory","","null","<img class='b' src=images/squares/blue.png><img class='d' src=images/squares/red.png><img class='h' src=images/squares/magenta.png><img class='l' src=images/squares/black.png><div class=""fixation"">+</div>","null","","","memory","exp","37","","","","","","","","","","","",""
"html-keyboard-response","272","604906","0.0-5.0-5.0-2.37","69dac2125e535db5a698ea18","not_provided","desktop","0","0","0","","","","","","working_memory","","null","<div class=""fixation"">+</div>","null","","","","","","","","","","","","","","","","",""
"html-keyboard-response","273","605425","0.0-5.0-5.0-3.37","69dac2125e535db5a698ea18","not_provided","desktop","0","0","0","","","","","","working_memory","","515","<img class='b' src=images/squares/orange.png><div class=""fixation"">+</div>","s","","","test_squares","exp","37","4","s","true","ks","d","","","","","","",""
"html-keyboard-response","274","605936","0.0-5.0-5.0-4.37","69dac2125e535db5a698ea18","not_provided","desktop","0","0","0","","","","","","working_memory","","null","<div class=""fixation"">Correct</div>","null","","","","","","","","","","","","","","","","",""
"html-keyboard-response","275","606953","0.0-5.0-5.0-0.38","69dac2125e535db5a698ea18","not_provided","desktop","0","0","0","","","","","","working_memory","","null","<div class=""fixation"">+</div>","null","","","","","","","","","","","","","","","","",""
"html-keyboard-response","276","607172","0.0-5.0-5.0-1.38","69dac2125e535db5a698ea18","not_provided","desktop","0","0","0","","","","","","working_memory","","null","<img class='c' src=images/squares/orange.png><img class='a' src=images/squares/magenta.png><img class='e' src=images/squares/green.png><img class='d' src=images/squares/yellow.png><img class='i' src=images/squares/red.png><img class='h' src=images/squares/cyan.png><img class='j' src=images/squares/blue.png><img class='l' src=images/squares/brown.png><div class=""fixation"">+</div>","null","","","memory","exp","38","","","","","","","","","","","",""
"html-keyboard-response","277","608085","0.0-5.0-5.0-2.38","69dac2125e535db5a698ea18","not_provided","desktop","0","0","0","","","","","","working_memory","","null","<div class=""fixation"">+</div>","null","","","","","","","","","","","","","","","","",""
"html-keyboard-response","278","610308","0.0-5.0-5.0-3.38","69dac2125e535db5a698ea18","not_provided","desktop","0","0","0","","","","","","working_memory","","2219","<img class='j' src=images/squares/blue.png><div class=""fixation"">+</div>","k","","","test_squares","exp","38","8","k","true","ks","s","","","","","","",""
"html-keyboard-response","279","610817","0.0-5.0-5.0-4.38","69dac2125e535db5a698ea18","not_provided","desktop","0","0","0","","","","","","working_memory","","null","<div class=""fixation"">Correct</div>","null","","","","","","","","","","","","","","","","",""
"html-keyboard-response","280","611832","0.0-5.0-5.0-0.39","69dac2125e535db5a698ea18","not_provided","desktop","0","0","0","","","","","","working_memory","","null","<div class=""fixation"">+</div>","null","","","","","","","","","","","","","","","","",""
"html-keyboard-response","281","612053","0.0-5.0-5.0-1.39","69dac2125e535db5a698ea18","not_provided","desktop","0","0","0","","","","","","working_memory","","null","<img class='b' src=images/squares/orange.png><img class='a' src=images/squares/brown.png><img class='d' src=images/squares/cyan.png><img class='f' src=images/squares/black.png><img class='g' src=images/squares/green.png><img class='i' src=images/squares/red.png><img class='j' src=images/squares/magenta.png><img class='k' src=images/squares/blue.png><div class=""fixation"">+</div>","null","","","memory","exp","39","","","","","","","","","","","",""
"html-keyboard-response","282","612958","0.0-5.0-5.0-2.39","69dac2125e535db5a698ea18","not_provided","desktop","0","0","0","","","","","","working_memory","","null","<div class=""fixation"">+</div>","null","","","","","","","","","","","","","","","","",""
"html-keyboard-response","283","615549","0.0-5.0-5.0-3.39","69dac2125e535db5a698ea18","not_provided","desktop","0","0","0","","","","","","working_memory","","2586","<img class='j' src=images/squares/yellow.png><div class=""fixation"">+</div>","s","","","test_squares","exp","39","8","s","true","ks","d","","","","","","",""
"html-keyboard-response","284","616053","0.0-5.0-5.0-4.39","69dac2125e535db5a698ea18","not_provided","desktop","0","0","0","","","","","","working_memory","","null","<div class=""fixation"">Correct</div>","null","","","","","","","","","","","","","","","","",""
"html-keyboard-response","285","617063","0.0-5.0-5.0-0.40","69dac2125e535db5a698ea18","not_provided","desktop","0","0","0","","","","","","working_memory","","null","<div class=""fixation"">+</div>","null","","","","","","","","","","","","","","","","",""
"html-keyboard-response","286","617278","0.0-5.0-5.0-1.40","69dac2125e535db5a698ea18","not_provided","desktop","0","0","0","","","","","","working_memory","","null","<img class='a' src=images/squares/cyan.png><img class='b' src=images/squares/magenta.png><img class='f' src=images/squares/blue.png><img class='d' src=images/squares/brown.png><img class='g' src=images/squares/red.png><img class='i' src=images/squares/orange.png><img class='k' src=images/squares/green.png><img class='j' src=images/squares/yellow.png><div class=""fixation"">+</div>","null","","","memory","exp","40","","","","","","","","","","","",""
"html-keyboard-response","287","618183","0.0-5.0-5.0-2.40","69dac2125e535db5a698ea18","not_provided","desktop","0","0","0","","","","","","working_memory","","null","<div class=""fixation"">+</div>","null","","","","","","","","","","","","","","","","",""
"html-keyboard-response","288","621344","0.0-5.0-5.0-3.40","69dac2125e535db5a698ea18","not_provided","desktop","0","0","0","","","","","","working_memory","","3159","<img class='a' src=images/squares/cyan.png><div class=""fixation"">+</div>","k","","","test_squares","exp","40","8","k","true","ks","s","","","","","","",""
"html-keyboard-response","289","621861","0.0-5.0-5.0-4.40","69dac2125e535db5a698ea18","not_provided","desktop","0","0","0","","","","","","working_memory","","null","<div class=""fixation"">Correct</div>","null","","","","","","","","","","","","","","","","",""
"html-keyboard-response","290","622870","0.0-5.0-5.0-0.41","69dac2125e535db5a698ea18","not_provided","desktop","0","0","0","","","","","","working_memory","","null","<div class=""fixation"">+</div>","null","","","","","","","","","","","","","","","","",""
"html-keyboard-response","291","623078","0.0-5.0-5.0-1.41","69dac2125e535db5a698ea18","not_provided","desktop","0","0","0","","","","","","working_memory","","null","<img class='a' src=images/squares/orange.png><img class='f' src=images/squares/black.png><img class='g' src=images/squares/yellow.png><img class='l' src=images/squares/brown.png><div class=""fixation"">+</div>","null","","","memory","exp","41","","","","","","","","","","","",""
"html-keyboard-response","292","623984","0.0-5.0-5.0-2.41","69dac2125e535db5a698ea18","not_provided","desktop","0","0","0","","","","","","working_memory","","null","<div class=""fixation"">+</div>","null","","","","","","","","","","","","","","","","",""
"html-keyboard-response","293","626593","0.0-5.0-5.0-3.41","69dac2125e535db5a698ea18","not_provided","desktop","0","0","0","","","","","","working_memory","","2605","<img class='a' src=images/squares/orange.png><div class=""fixation"">+</div>","s","","","test_squares","exp","41","4","k","false","ks","s","","","","","","",""
"html-keyboard-response","294","627103","0.0-5.0-5.0-4.41","69dac2125e535db5a698ea18","not_provided","desktop","0","0","0","","","","","","working_memory","","null","<div class=""fixation"">Incorrect</div>","null","","","","","","","","","","","","","","","","",""
"html-keyboard-response","295","628107","0.0-5.0-5.0-0.42","69dac2125e535db5a698ea18","not_provided","desktop","0","0","0","","","","","","working_memory","","null","<div class=""fixation"">+</div>","null","","","","","","","","","","","","","","","","",""
"html-keyboard-response","296","628312","0.0-5.0-5.0-1.42","69dac2125e535db5a698ea18","not_provided","desktop","0","0","0","","","","","","working_memory","","null","<img class='c' src=images/squares/green.png><img class='f' src=images/squares/magenta.png><img class='i' src=images/squares/yellow.png><img class='j' src=images/squares/blue.png><div class=""fixation"">+</div>","null","","","memory","exp","42","","","","","","","","","","","",""
"html-keyboard-response","297","629223","0.0-5.0-5.0-2.42","69dac2125e535db5a698ea18","not_provided","desktop","0","0","0","","","","","","working_memory","","null","<div class=""fixation"">+</div>","null","","","","","","","","","","","","","","","","",""
"html-keyboard-response","298","633224","0.0-5.0-5.0-3.42","69dac2125e535db5a698ea18","not_provided","desktop","0","0","0","","","","","","working_memory","","3997","<img class='f' src=images/squares/magenta.png><div class=""fixation"">+</div>","k","","","test_squares","exp","42","4","k","true","ks","s","","","","","","",""
"html-keyboard-response","299","633736","0.0-5.0-5.0-4.42","69dac2125e535db5a698ea18","not_provided","desktop","0","0","0","","","","","","working_memory","","null","<div class=""fixation"">Correct</div>","null","","","","","","","","","","","","","","","","",""
"html-keyboard-response","300","634754","0.0-5.0-5.0-0.43","69dac2125e535db5a698ea18","not_provided","desktop","0","0","0","","","","","","working_memory","","null","<div class=""fixation"">+</div>","null","","","","","","","","","","","","","","","","",""
"html-keyboard-response","301","634962","0.0-5.0-5.0-1.43","69dac2125e535db5a698ea18","not_provided","desktop","0","0","0","","","","","","working_memory","","null","<img class='b' src=images/squares/blue.png><img class='a' src=images/squares/orange.png><img class='d' src=images/squares/brown.png><img class='e' src=images/squares/magenta.png><img class='i' src=images/squares/yellow.png><img class='g' src=images/squares/cyan.png><img class='k' src=images/squares/black.png><img class='l' src=images/squares/green.png><div class=""fixation"">+</div>","null","","","memory","exp","43","","","","","","","","","","","",""
"html-keyboard-response","302","635868","0.0-5.0-5.0-2.43","69dac2125e535db5a698ea18","not_provided","desktop","0","0","0","","","","","","working_memory","","null","<div class=""fixation"">+</div>","null","","","","","","","","","","","","","","","","",""
"html-keyboard-response","303","637949","0.0-5.0-5.0-3.43","69dac2125e535db5a698ea18","not_provided","desktop","0","0","0","","","","","","working_memory","","2076","<img class='b' src=images/squares/red.png><div class=""fixation"">+</div>","k","","","test_squares","exp","43","8","s","false","ks","d","","","","","","",""
"html-keyboard-response","304","638452","0.0-5.0-5.0-4.43","69dac2125e535db5a698ea18","not_provided","desktop","0","0","0","","","","","","working_memory","","null","<div class=""fixation"">Incorrect</div>","null","","","","","","","","","","","","","","","","",""
"html-keyboard-response","305","639457","0.0-5.0-5.0-0.44","69dac2125e535db5a698ea18","not_provided","desktop","0","0","0","","","","","","working_memory","","null","<div class=""fixation"">+</div>","null","","","","","","","","","","","","","","","","",""
