"trial_type","trial_index","time_elapsed","internal_node_id","subject_id","study_id","device_type","blur_count","fullscreen_exit_count","failed_attention_checks","success","timeout","failed_images","failed_audio","failed_video","phase","value","rt","stimulus","response","view_history","question_order","trial_name","block_type","trial_num","set_size","correct_response","accuracy","mapping","condition","prompt","flipped","attention","expected_answer","category","question_index","task"
"pavlovia","0","900","0.0-0.0","6984a9246122d3bd4ca0833e","not_provided","desktop","0","0","0","","","","","","","","","","","","","","","","","","","","","","","","","","",""
"preload","1","1251","0.0-2.0","6984a9246122d3bd4ca0833e","not_provided","desktop","0","0","0","true","false","[]","[]","[]","","","","","","","","","","","","","","","","","","","","","",""
"html-keyboard-response","2","19454","0.0-3.0-0.0","6984a9246122d3bd4ca0833e","not_provided","desktop","0","0","0","","","","","","captcha","","","","","","","","","","","","","","","","","","","","",""
"fullscreen","3","23783","0.0-4.0","6984a9246122d3bd4ca0833e","not_provided","desktop","0","0","0","true","","","","","setup","","","","","","","","","","","","","","","","","","","","",""
"call-function","4","23786","0.0-5.0-0.0","6984a9246122d3bd4ca0833e","not_provided","desktop","0","0","0","","","","","","working_memory","","","","","","","","","","","","","","","","","","","","",""
"html-keyboard-response","5","36217","0.0-5.0-1.0","6984a9246122d3bd4ca0833e","not_provided","desktop","0","0","0","","","","","","working_memory","","12429","<div style=""text-align:center;font-family:sans-serif;""><p>Welcome to the luck game experiment!</p><p>This two-day experiment takes part in a study aimed at developing better clinical treatments.</p><p>We appreciate your participation and require your full concentration.</p><br><p>This is a two-day study. Payment (£6/hour) is only given upon completing both parts today and tomorrow.</p><p>You must finish the second part for compensation. After today, you'll receive an invitation for tomorrow's session.</p><p>Please ensure you can attend both sessions before proceeding. Otherwise, you may exit now.</p><p>If you have any questions, please contact us via prolific.</p><br><p>Please stay attentive and in fullscreen mode to ensure payment.</p><p>Thank you for participating!</p><br><p id=""continue-prompt"" style=""visibility:hidden;""><b>Press any key to continue.</b></p></div>"," ","","","","","","","","","","","","","","","","",""
"instructions","6","87636","0.0-5.0-2.0-0.0","6984a9246122d3bd4ca0833e","not_provided","desktop","0","0","0","","","","","","working_memory","","51417","","","[{""page_index"":0,""viewing_time"":3119},{""page_index"":1,""viewing_time"":2112},{""page_index"":2,""viewing_time"":4371},{""page_index"":3,""viewing_time"":2924},{""page_index"":4,""viewing_time"":12823},{""page_index"":5,""viewing_time"":9416},{""page_index"":6,""viewing_time"":10917},{""page_index"":7,""viewing_time"":4298},{""page_index"":8,""viewing_time"":1438}]","","","","","","","","","","","","","","","",""
"survey-multi-choice","7","128873","0.0-5.0-2.0-1.0","6984a9246122d3bd4ca0833e","not_provided","desktop","0","0","0","","","","","","working_memory","","41232","","{""set_size"":""2 or 4"",""steps"":""True"",""choose_square"":""Press the 's' or 'k' key."",""remember"":""The color and location of the single 'test' square"",""task"":""To tell if the 'test' square is in the same color as the square previously appearing in this location""}","","[0,1,2,3,4]","test_squares_quiz","","","","","","","","","","","","","",""
"html-button-response","8","131657","0.0-5.0-2.0-2.0-0.0","6984a9246122d3bd4ca0833e","not_provided","desktop","0","0","0","","","","","","working_memory","","2781","<p>Sorry, you made a mistake on the quiz.<br>Let's go back to the instructions &mdash; please read carefully before submitting again.<br>Thank you!</p>","0","","","","","","","","","","","","","","","","",""
"instructions","9","208401","0.0-5.0-2.1-0.1","6984a9246122d3bd4ca0833e","not_provided","desktop","0","0","0","","","","","","working_memory","","76743","","","[{""page_index"":0,""viewing_time"":2224},{""page_index"":1,""viewing_time"":1158},{""page_index"":2,""viewing_time"":23919},{""page_index"":3,""viewing_time"":5688},{""page_index"":4,""viewing_time"":12269},{""page_index"":5,""viewing_time"":5144},{""page_index"":6,""viewing_time"":22120},{""page_index"":7,""viewing_time"":2043},{""page_index"":8,""viewing_time"":2178}]","","","","","","","","","","","","","","","",""
"survey-multi-choice","10","321397","0.0-5.0-2.1-1.1","6984a9246122d3bd4ca0833e","not_provided","desktop","0","0","0","","","","","","working_memory","","112994","","{""set_size"":""4 or 8"",""steps"":""True"",""choose_square"":""Press the 's' or 'k' key."",""remember"":""The colors and locations of the 'memory' squares"",""task"":""To tell if the 'test' square is in the same color as the square previously appearing in this location""}","","[0,1,2,3,4]","test_squares_quiz","","","","","","","","","","","","","",""
"html-keyboard-response","11","325489","0.0-5.0-3.0-0.0","6984a9246122d3bd4ca0833e","not_provided","desktop","0","0","0","","","","","","working_memory","","4090","<p>We will now start some practice trials.<br><b>The practice trials will also include some trials in which you will need to remember only one square to make sure you understood the instructions.</b><br>You may already want to be ready with your fingers on '<b>s</b>' and '<b>k</b>'.<br><img class=""wm-example-img"" src=""images/examples/keyboard.png""><br><b style=""font-size:1.2em;"">&lsquo;S&rsquo; = SAME &nbsp;&nbsp;&nbsp; &lsquo;K&rsquo; = DIFFERENT</b><br><br><u>Please try to be as accurate as possible.</u><br><br><b>Press any key to begin</b></p>","enter","","","","","","","","","","","","","","","","",""
"html-keyboard-response","12","327520","0.0-5.0-3.0-1.0-0.0","6984a9246122d3bd4ca0833e","not_provided","desktop","0","0","0","","","","","","working_memory","","null","<div class=""fixation"">+</div>","null","","","","","","","","","","","","","","","","",""
"html-keyboard-response","13","327735","0.0-5.0-3.0-1.0-1.0","6984a9246122d3bd4ca0833e","not_provided","desktop","0","0","0","","","","","","working_memory","","null","<img class='upper2' src=images/squares/orange.png><div class=""fixation"">+</div>","null","","","memory","practice","0","1","","","","","","","","","","",""
"html-keyboard-response","14","328645","0.0-5.0-3.0-1.0-2.0","6984a9246122d3bd4ca0833e","not_provided","desktop","0","0","0","","","","","","working_memory","","null","<div class=""fixation"">+</div>","null","","","","","","","","","","","","","","","","",""
"html-keyboard-response","15","331020","0.0-5.0-3.0-1.0-3.0","6984a9246122d3bd4ca0833e","not_provided","desktop","0","0","0","","","","","","working_memory","","2373","<img class='upper2' src=images/squares/magenta.png><div class=""fixation"">+</div>","k","","","test","practice","0","1","k","true","","","","","","","","",""
"html-keyboard-response","16","331542","0.0-5.0-3.0-1.0-4.0","6984a9246122d3bd4ca0833e","not_provided","desktop","0","0","0","","","","","","working_memory","","null","<div class=""fixation"">Correct</div>","null","","","","","","","","","","","","","","","","",""
"html-keyboard-response","17","332546","0.0-5.0-3.0-1.0-0.1","6984a9246122d3bd4ca0833e","not_provided","desktop","0","0","0","","","","","","working_memory","","null","<div class=""fixation"">+</div>","null","","","","","","","","","","","","","","","","",""
"html-keyboard-response","18","332760","0.0-5.0-3.0-1.0-1.1","6984a9246122d3bd4ca0833e","not_provided","desktop","0","0","0","","","","","","working_memory","","null","<img class='c' src=images/squares/brown.png><img class='e' src=images/squares/orange.png><img class='g' src=images/squares/yellow.png><img class='k' src=images/squares/black.png><div class=""fixation"">+</div>","null","","","memory","practice","1","4","","","","","","","","","","",""
"html-keyboard-response","19","333673","0.0-5.0-3.0-1.0-2.1","6984a9246122d3bd4ca0833e","not_provided","desktop","0","0","0","","","","","","working_memory","","null","<div class=""fixation"">+</div>","null","","","","","","","","","","","","","","","","",""
"html-keyboard-response","20","334517","0.0-5.0-3.0-1.0-3.1","6984a9246122d3bd4ca0833e","not_provided","desktop","0","0","0","","","","","","working_memory","","842","<img class='c' src=images/squares/blue.png><div class=""fixation"">+</div>","k","","","test","practice","1","4","k","true","","","","","","","","",""
"html-keyboard-response","21","335025","0.0-5.0-3.0-1.0-4.1","6984a9246122d3bd4ca0833e","not_provided","desktop","0","0","0","","","","","","working_memory","","null","<div class=""fixation"">Correct</div>","null","","","","","","","","","","","","","","","","",""
"html-keyboard-response","22","336032","0.0-5.0-3.0-1.0-0.2","6984a9246122d3bd4ca0833e","not_provided","desktop","0","0","0","","","","","","working_memory","","null","<div class=""fixation"">+</div>","null","","","","","","","","","","","","","","","","",""
"html-keyboard-response","23","336249","0.0-5.0-3.0-1.0-1.2","6984a9246122d3bd4ca0833e","not_provided","desktop","0","0","0","","","","","","working_memory","","null","<img class='c' src=images/squares/yellow.png><img class='b' src=images/squares/blue.png><img class='d' src=images/squares/brown.png><img class='e' src=images/squares/magenta.png><img class='h' src=images/squares/green.png><img class='g' src=images/squares/cyan.png><img class='k' src=images/squares/red.png><img class='l' src=images/squares/black.png><div class=""fixation"">+</div>","null","","","memory","practice","2","8","","","","","","","","","","",""
"html-keyboard-response","24","337155","0.0-5.0-3.0-1.0-2.2","6984a9246122d3bd4ca0833e","not_provided","desktop","0","0","0","","","","","","working_memory","","null","<div class=""fixation"">+</div>","null","","","","","","","","","","","","","","","","",""
"html-keyboard-response","25","338250","0.0-5.0-3.0-1.0-3.2","6984a9246122d3bd4ca0833e","not_provided","desktop","0","0","0","","","","","","working_memory","","1093","<img class='k' src=images/squares/orange.png><div class=""fixation"">+</div>","k","","","test","practice","2","8","k","true","","","","","","","","",""
"html-keyboard-response","26","338753","0.0-5.0-3.0-1.0-4.2","6984a9246122d3bd4ca0833e","not_provided","desktop","0","0","0","","","","","","working_memory","","null","<div class=""fixation"">Correct</div>","null","","","","","","","","","","","","","","","","",""
"html-keyboard-response","27","339765","0.0-5.0-3.0-1.0-0.3","6984a9246122d3bd4ca0833e","not_provided","desktop","0","0","0","","","","","","working_memory","","null","<div class=""fixation"">+</div>","null","","","","","","","","","","","","","","","","",""
"html-keyboard-response","28","339973","0.0-5.0-3.0-1.0-1.3","6984a9246122d3bd4ca0833e","not_provided","desktop","0","0","0","","","","","","working_memory","","null","<img class='a' src=images/squares/cyan.png><img class='d' src=images/squares/yellow.png><img class='h' src=images/squares/black.png><img class='k' src=images/squares/orange.png><div class=""fixation"">+</div>","null","","","memory","practice","3","4","","","","","","","","","","",""
"html-keyboard-response","29","340884","0.0-5.0-3.0-1.0-2.3","6984a9246122d3bd4ca0833e","not_provided","desktop","0","0","0","","","","","","working_memory","","null","<div class=""fixation"">+</div>","null","","","","","","","","","","","","","","","","",""
"html-keyboard-response","30","341724","0.0-5.0-3.0-1.0-3.3","6984a9246122d3bd4ca0833e","not_provided","desktop","0","0","0","","","","","","working_memory","","838","<img class='h' src=images/squares/red.png><div class=""fixation"">+</div>","k","","","test","practice","3","4","k","true","","","","","","","","",""
"html-keyboard-response","31","342240","0.0-5.0-3.0-1.0-4.3","6984a9246122d3bd4ca0833e","not_provided","desktop","0","0","0","","","","","","working_memory","","null","<div class=""fixation"">Correct</div>","null","","","","","","","","","","","","","","","","",""
"html-keyboard-response","32","343256","0.0-5.0-3.0-1.0-0.4","6984a9246122d3bd4ca0833e","not_provided","desktop","0","0","0","","","","","","working_memory","","null","<div class=""fixation"">+</div>","null","","","","","","","","","","","","","","","","",""
"html-keyboard-response","33","343463","0.0-5.0-3.0-1.0-1.4","6984a9246122d3bd4ca0833e","not_provided","desktop","0","0","0","","","","","","working_memory","","null","<img class='upper1' src=images/squares/green.png><div class=""fixation"">+</div>","null","","","memory","practice","4","1","","","","","","","","","","",""
"html-keyboard-response","34","344379","0.0-5.0-3.0-1.0-2.4","6984a9246122d3bd4ca0833e","not_provided","desktop","0","0","0","","","","","","working_memory","","null","<div class=""fixation"">+</div>","null","","","","","","","","","","","","","","","","",""
"html-keyboard-response","35","345797","0.0-5.0-3.0-1.0-3.4","6984a9246122d3bd4ca0833e","not_provided","desktop","0","0","0","","","","","","working_memory","","1416","<img class='upper1' src=images/squares/yellow.png><div class=""fixation"">+</div>","k","","","test","practice","4","1","k","true","","","","","","","","",""
"html-keyboard-response","36","346307","0.0-5.0-3.0-1.0-4.4","6984a9246122d3bd4ca0833e","not_provided","desktop","0","0","0","","","","","","working_memory","","null","<div class=""fixation"">Correct</div>","null","","","","","","","","","","","","","","","","",""
"html-keyboard-response","37","347311","0.0-5.0-3.0-1.0-0.5","6984a9246122d3bd4ca0833e","not_provided","desktop","0","0","0","","","","","","working_memory","","null","<div class=""fixation"">+</div>","null","","","","","","","","","","","","","","","","",""
"html-keyboard-response","38","347521","0.0-5.0-3.0-1.0-1.5","6984a9246122d3bd4ca0833e","not_provided","desktop","0","0","0","","","","","","working_memory","","null","<img class='lower3' src=images/squares/magenta.png><div class=""fixation"">+</div>","null","","","memory","practice","5","1","","","","","","","","","","",""
"html-keyboard-response","39","348432","0.0-5.0-3.0-1.0-2.5","6984a9246122d3bd4ca0833e","not_provided","desktop","0","0","0","","","","","","working_memory","","null","<div class=""fixation"">+</div>","null","","","","","","","","","","","","","","","","",""
"html-keyboard-response","40","348998","0.0-5.0-3.0-1.0-3.5","6984a9246122d3bd4ca0833e","not_provided","desktop","0","0","0","","","","","","working_memory","","564","<img class='lower3' src=images/squares/green.png><div class=""fixation"">+</div>","k","","","test","practice","5","1","k","true","","","","","","","","",""
"html-keyboard-response","41","349505","0.0-5.0-3.0-1.0-4.5","6984a9246122d3bd4ca0833e","not_provided","desktop","0","0","0","","","","","","working_memory","","null","<div class=""fixation"">Correct</div>","null","","","","","","","","","","","","","","","","",""
"html-keyboard-response","42","350525","0.0-5.0-3.0-1.0-0.6","6984a9246122d3bd4ca0833e","not_provided","desktop","0","0","0","","","","","","working_memory","","null","<div class=""fixation"">+</div>","null","","","","","","","","","","","","","","","","",""
"html-keyboard-response","43","350742","0.0-5.0-3.0-1.0-1.6","6984a9246122d3bd4ca0833e","not_provided","desktop","0","0","0","","","","","","working_memory","","null","<img class='c' src=images/squares/cyan.png><img class='b' src=images/squares/brown.png><img class='d' src=images/squares/yellow.png><img class='e' src=images/squares/green.png><img class='g' src=images/squares/magenta.png><img class='i' src=images/squares/black.png><img class='l' src=images/squares/red.png><img class='j' src=images/squares/blue.png><div class=""fixation"">+</div>","null","","","memory","practice","6","8","","","","","","","","","","",""
"html-keyboard-response","44","351658","0.0-5.0-3.0-1.0-2.6","6984a9246122d3bd4ca0833e","not_provided","desktop","0","0","0","","","","","","working_memory","","null","<div class=""fixation"">+</div>","null","","","","","","","","","","","","","","","","",""
"html-keyboard-response","45","353048","0.0-5.0-3.0-1.0-3.6","6984a9246122d3bd4ca0833e","not_provided","desktop","0","0","0","","","","","","working_memory","","1388","<img class='g' src=images/squares/magenta.png><div class=""fixation"">+</div>","k","","","test","practice","6","8","s","false","","","","","","","","",""
"html-keyboard-response","46","353553","0.0-5.0-3.0-1.0-4.6","6984a9246122d3bd4ca0833e","not_provided","desktop","0","0","0","","","","","","working_memory","","null","<div class=""fixation"">Incorrect</div>","null","","","","","","","","","","","","","","","","",""
"html-keyboard-response","47","354556","0.0-5.0-3.0-1.0-0.7","6984a9246122d3bd4ca0833e","not_provided","desktop","0","0","0","","","","","","working_memory","","null","<div class=""fixation"">+</div>","null","","","","","","","","","","","","","","","","",""
"html-keyboard-response","48","354767","0.0-5.0-3.0-1.0-1.7","6984a9246122d3bd4ca0833e","not_provided","desktop","0","0","0","","","","","","working_memory","","null","<img class='a' src=images/squares/blue.png><img class='b' src=images/squares/black.png><img class='e' src=images/squares/brown.png><img class='f' src=images/squares/magenta.png><img class='h' src=images/squares/cyan.png><img class='i' src=images/squares/orange.png><img class='j' src=images/squares/yellow.png><img class='l' src=images/squares/red.png><div class=""fixation"">+</div>","null","","","memory","practice","7","8","","","","","","","","","","",""
"html-keyboard-response","49","355675","0.0-5.0-3.0-1.0-2.7","6984a9246122d3bd4ca0833e","not_provided","desktop","0","0","0","","","","","","working_memory","","null","<div class=""fixation"">+</div>","null","","","","","","","","","","","","","","","","",""
"html-keyboard-response","50","356514","0.0-5.0-3.0-1.0-3.7","6984a9246122d3bd4ca0833e","not_provided","desktop","0","0","0","","","","","","working_memory","","838","<img class='b' src=images/squares/green.png><div class=""fixation"">+</div>","k","","","test","practice","7","8","k","true","","","","","","","","",""
"html-keyboard-response","51","357018","0.0-5.0-3.0-1.0-4.7","6984a9246122d3bd4ca0833e","not_provided","desktop","0","0","0","","","","","","working_memory","","null","<div class=""fixation"">Correct</div>","null","","","","","","","","","","","","","","","","",""
"html-keyboard-response","52","358028","0.0-5.0-3.0-1.0-0.8","6984a9246122d3bd4ca0833e","not_provided","desktop","0","0","0","","","","","","working_memory","","null","<div class=""fixation"">+</div>","null","","","","","","","","","","","","","","","","",""
"html-keyboard-response","53","358239","0.0-5.0-3.0-1.0-1.8","6984a9246122d3bd4ca0833e","not_provided","desktop","0","0","0","","","","","","working_memory","","null","<img class='a' src=images/squares/blue.png><img class='b' src=images/squares/cyan.png><img class='d' src=images/squares/brown.png><img class='f' src=images/squares/red.png><img class='g' src=images/squares/black.png><img class='i' src=images/squares/yellow.png><img class='k' src=images/squares/magenta.png><img class='j' src=images/squares/orange.png><div class=""fixation"">+</div>","null","","","memory","practice","8","8","","","","","","","","","","",""
"html-keyboard-response","54","359150","0.0-5.0-3.0-1.0-2.8","6984a9246122d3bd4ca0833e","not_provided","desktop","0","0","0","","","","","","working_memory","","null","<div class=""fixation"">+</div>","null","","","","","","","","","","","","","","","","",""
"html-keyboard-response","55","360035","0.0-5.0-3.0-1.0-3.8","6984a9246122d3bd4ca0833e","not_provided","desktop","0","0","0","","","","","","working_memory","","883","<img class='b' src=images/squares/cyan.png><div class=""fixation"">+</div>","k","","","test","practice","8","8","s","false","","","","","","","","",""
"html-keyboard-response","56","360540","0.0-5.0-3.0-1.0-4.8","6984a9246122d3bd4ca0833e","not_provided","desktop","0","0","0","","","","","","working_memory","","null","<div class=""fixation"">Incorrect</div>","null","","","","","","","","","","","","","","","","",""
"html-keyboard-response","57","361544","0.0-5.0-3.0-1.0-0.9","6984a9246122d3bd4ca0833e","not_provided","desktop","0","0","0","","","","","","working_memory","","null","<div class=""fixation"">+</div>","null","","","","","","","","","","","","","","","","",""
"html-keyboard-response","58","361764","0.0-5.0-3.0-1.0-1.9","6984a9246122d3bd4ca0833e","not_provided","desktop","0","0","0","","","","","","working_memory","","null","<img class='a' src=images/squares/green.png><img class='c' src=images/squares/blue.png><img class='e' src=images/squares/red.png><img class='d' src=images/squares/brown.png><img class='g' src=images/squares/magenta.png><img class='i' src=images/squares/black.png><img class='j' src=images/squares/yellow.png><img class='k' src=images/squares/cyan.png><div class=""fixation"">+</div>","null","","","memory","practice","9","8","","","","","","","","","","",""
"html-keyboard-response","59","362677","0.0-5.0-3.0-1.0-2.9","6984a9246122d3bd4ca0833e","not_provided","desktop","0","0","0","","","","","","working_memory","","null","<div class=""fixation"">+</div>","null","","","","","","","","","","","","","","","","",""
"html-keyboard-response","60","363740","0.0-5.0-3.0-1.0-3.9","6984a9246122d3bd4ca0833e","not_provided","desktop","0","0","0","","","","","","working_memory","","1060","<img class='j' src=images/squares/yellow.png><div class=""fixation"">+</div>","k","","","test","practice","9","8","s","false","","","","","","","","",""
"html-keyboard-response","61","364248","0.0-5.0-3.0-1.0-4.9","6984a9246122d3bd4ca0833e","not_provided","desktop","0","0","0","","","","","","working_memory","","null","<div class=""fixation"">Incorrect</div>","null","","","","","","","","","","","","","","","","",""
"html-keyboard-response","62","365251","0.0-5.0-3.0-1.0-0.10","6984a9246122d3bd4ca0833e","not_provided","desktop","0","0","0","","","","","","working_memory","","null","<div class=""fixation"">+</div>","null","","","","","","","","","","","","","","","","",""
"html-keyboard-response","63","365455","0.0-5.0-3.0-1.0-1.10","6984a9246122d3bd4ca0833e","not_provided","desktop","0","0","0","","","","","","working_memory","","null","<img class='upper3' src=images/squares/blue.png><div class=""fixation"">+</div>","null","","","memory","practice","10","1","","","","","","","","","","",""
"html-keyboard-response","64","366371","0.0-5.0-3.0-1.0-2.10","6984a9246122d3bd4ca0833e","not_provided","desktop","0","0","0","","","","","","working_memory","","null","<div class=""fixation"">+</div>","null","","","","","","","","","","","","","","","","",""
"html-keyboard-response","65","370213","0.0-5.0-3.0-1.0-3.10","6984a9246122d3bd4ca0833e","not_provided","desktop","0","0","0","","","","","","working_memory","","3840","<img class='upper3' src=images/squares/blue.png><div class=""fixation"">+</div>","k","","","test","practice","10","1","s","false","","","","","","","","",""
"html-keyboard-response","66","370715","0.0-5.0-3.0-1.0-4.10","6984a9246122d3bd4ca0833e","not_provided","desktop","0","0","0","","","","","","working_memory","","null","<div class=""fixation"">Incorrect</div>","null","","","","","","","","","","","","","","","","",""
"html-keyboard-response","67","371724","0.0-5.0-3.0-1.0-0.11","6984a9246122d3bd4ca0833e","not_provided","desktop","0","0","0","","","","","","working_memory","","null","<div class=""fixation"">+</div>","null","","","","","","","","","","","","","","","","",""
"html-keyboard-response","68","371931","0.0-5.0-3.0-1.0-1.11","6984a9246122d3bd4ca0833e","not_provided","desktop","0","0","0","","","","","","working_memory","","null","<img class='a' src=images/squares/red.png><img class='b' src=images/squares/magenta.png><img class='d' src=images/squares/orange.png><img class='e' src=images/squares/green.png><img class='g' src=images/squares/blue.png><img class='i' src=images/squares/cyan.png><img class='l' src=images/squares/yellow.png><img class='k' src=images/squares/brown.png><div class=""fixation"">+</div>","null","","","memory","practice","11","8","","","","","","","","","","",""
"html-keyboard-response","69","372836","0.0-5.0-3.0-1.0-2.11","6984a9246122d3bd4ca0833e","not_provided","desktop","0","0","0","","","","","","working_memory","","null","<div class=""fixation"">+</div>","null","","","","","","","","","","","","","","","","",""
"html-keyboard-response","70","373715","0.0-5.0-3.0-1.0-3.11","6984a9246122d3bd4ca0833e","not_provided","desktop","0","0","0","","","","","","working_memory","","877","<img class='i' src=images/squares/cyan.png><div class=""fixation"">+</div>","s","","","test","practice","11","8","s","true","","","","","","","","",""
"html-keyboard-response","71","374218","0.0-5.0-3.0-1.0-4.11","6984a9246122d3bd4ca0833e","not_provided","desktop","0","0","0","","","","","","working_memory","","null","<div class=""fixation"">Correct</div>","null","","","","","","","","","","","","","","","","",""
"html-keyboard-response","72","375237","0.0-5.0-3.0-1.0-0.12","6984a9246122d3bd4ca0833e","not_provided","desktop","0","0","0","","","","","","working_memory","","null","<div class=""fixation"">+</div>","null","","","","","","","","","","","","","","","","",""
"html-keyboard-response","73","375455","0.0-5.0-3.0-1.0-1.12","6984a9246122d3bd4ca0833e","not_provided","desktop","0","0","0","","","","","","working_memory","","null","<img class='a' src=images/squares/yellow.png><img class='b' src=images/squares/brown.png><img class='f' src=images/squares/orange.png><img class='e' src=images/squares/black.png><img class='i' src=images/squares/red.png><img class='g' src=images/squares/cyan.png><img class='l' src=images/squares/magenta.png><img class='k' src=images/squares/blue.png><div class=""fixation"">+</div>","null","","","memory","practice","12","8","","","","","","","","","","",""
"html-keyboard-response","74","376373","0.0-5.0-3.0-1.0-2.12","6984a9246122d3bd4ca0833e","not_provided","desktop","0","0","0","","","","","","working_memory","","null","<div class=""fixation"">+</div>","null","","","","","","","","","","","","","","","","",""
"html-keyboard-response","75","377401","0.0-5.0-3.0-1.0-3.12","6984a9246122d3bd4ca0833e","not_provided","desktop","0","0","0","","","","","","working_memory","","1027","<img class='l' src=images/squares/green.png><div class=""fixation"">+</div>","k","","","test","practice","12","8","k","true","","","","","","","","",""
"html-keyboard-response","76","377907","0.0-5.0-3.0-1.0-4.12","6984a9246122d3bd4ca0833e","not_provided","desktop","0","0","0","","","","","","working_memory","","null","<div class=""fixation"">Correct</div>","null","","","","","","","","","","","","","","","","",""
"html-keyboard-response","77","378909","0.0-5.0-3.0-1.0-0.13","6984a9246122d3bd4ca0833e","not_provided","desktop","0","0","0","","","","","","working_memory","","null","<div class=""fixation"">+</div>","null","","","","","","","","","","","","","","","","",""
"html-keyboard-response","78","379111","0.0-5.0-3.0-1.0-1.13","6984a9246122d3bd4ca0833e","not_provided","desktop","0","0","0","","","","","","working_memory","","null","<img class='c' src=images/squares/blue.png><img class='f' src=images/squares/cyan.png><img class='i' src=images/squares/magenta.png><img class='l' src=images/squares/orange.png><div class=""fixation"">+</div>","null","","","memory","practice","13","4","","","","","","","","","","",""
"html-keyboard-response","79","380028","0.0-5.0-3.0-1.0-2.13","6984a9246122d3bd4ca0833e","not_provided","desktop","0","0","0","","","","","","working_memory","","null","<div class=""fixation"">+</div>","null","","","","","","","","","","","","","","","","",""
"html-keyboard-response","80","382293","0.0-5.0-3.0-1.0-3.13","6984a9246122d3bd4ca0833e","not_provided","desktop","0","0","0","","","","","","working_memory","","2263","<img class='c' src=images/squares/green.png><div class=""fixation"">+</div>","k","","","test","practice","13","4","k","true","","","","","","","","",""
"html-keyboard-response","81","382799","0.0-5.0-3.0-1.0-4.13","6984a9246122d3bd4ca0833e","not_provided","desktop","0","0","0","","","","","","working_memory","","null","<div class=""fixation"">Correct</div>","null","","","","","","","","","","","","","","","","",""
"html-keyboard-response","82","383807","0.0-5.0-3.0-1.0-0.14","6984a9246122d3bd4ca0833e","not_provided","desktop","0","0","0","","","","","","working_memory","","null","<div class=""fixation"">+</div>","null","","","","","","","","","","","","","","","","",""
"html-keyboard-response","83","384036","0.0-5.0-3.0-1.0-1.14","6984a9246122d3bd4ca0833e","not_provided","desktop","0","0","0","","","","","","working_memory","","null","<img class='c' src=images/squares/blue.png><img class='a' src=images/squares/orange.png><img class='f' src=images/squares/green.png><img class='d' src=images/squares/red.png><img class='g' src=images/squares/brown.png><img class='i' src=images/squares/cyan.png><img class='j' src=images/squares/yellow.png><img class='k' src=images/squares/magenta.png><div class=""fixation"">+</div>","null","","","memory","practice","14","8","","","","","","","","","","",""
"html-keyboard-response","84","384955","0.0-5.0-3.0-1.0-2.14","6984a9246122d3bd4ca0833e","not_provided","desktop","0","0","0","","","","","","working_memory","","null","<div class=""fixation"">+</div>","null","","","","","","","","","","","","","","","","",""
"html-keyboard-response","85","385589","0.0-5.0-3.0-1.0-3.14","6984a9246122d3bd4ca0833e","not_provided","desktop","0","0","0","","","","","","working_memory","","632","<img class='d' src=images/squares/red.png><div class=""fixation"">+</div>","k","","","test","practice","14","8","s","false","","","","","","","","",""
"html-keyboard-response","86","386104","0.0-5.0-3.0-1.0-4.14","6984a9246122d3bd4ca0833e","not_provided","desktop","0","0","0","","","","","","working_memory","","null","<div class=""fixation"">Incorrect</div>","null","","","","","","","","","","","","","","","","",""
"html-keyboard-response","87","392352","0.0-5.0-3.0-2.0-0.0","6984a9246122d3bd4ca0833e","not_provided","desktop","0","0","0","","","","","","working_memory","","6244","<p>Sorry. You made too many mistakes.<br>Let's do the practice session once again.<br><br><b>Press any key to continue</b></p>"," ","","","","","","","","","","","","","","","","",""
"html-keyboard-response","88","393310","0.0-5.0-3.1-0.1","6984a9246122d3bd4ca0833e","not_provided","desktop","0","0","0","","","","","","working_memory","","957","<p>We will now start some practice trials.<br><b>The practice trials will also include some trials in which you will need to remember only one square to make sure you understood the instructions.</b><br>You may already want to be ready with your fingers on '<b>s</b>' and '<b>k</b>'.<br><img class=""wm-example-img"" src=""images/examples/keyboard.png""><br><b style=""font-size:1.2em;"">&lsquo;S&rsquo; = SAME &nbsp;&nbsp;&nbsp; &lsquo;K&rsquo; = DIFFERENT</b><br><br><u>Please try to be as accurate as possible.</u><br><br><b>Press any key to begin</b></p>"," ","","","","","","","","","","","","","","","","",""
"html-keyboard-response","89","395326","0.0-5.0-3.1-1.1-0.15","6984a9246122d3bd4ca0833e","not_provided","desktop","0","0","0","","","","","","working_memory","","null","<div class=""fixation"">+</div>","null","","","","","","","","","","","","","","","","",""
"html-keyboard-response","90","395542","0.0-5.0-3.1-1.1-1.15","6984a9246122d3bd4ca0833e","not_provided","desktop","0","0","0","","","","","","working_memory","","null","<img class='upper1' src=images/squares/orange.png><div class=""fixation"">+</div>","null","","","memory","practice","15","1","","","","","","","","","","",""
"html-keyboard-response","91","396455","0.0-5.0-3.1-1.1-2.15","6984a9246122d3bd4ca0833e","not_provided","desktop","0","0","0","","","","","","working_memory","","null","<div class=""fixation"">+</div>","null","","","","","","","","","","","","","","","","",""
"html-keyboard-response","92","397134","0.0-5.0-3.1-1.1-3.15","6984a9246122d3bd4ca0833e","not_provided","desktop","0","0","0","","","","","","working_memory","","679","<img class='upper1' src=images/squares/brown.png><div class=""fixation"">+</div>","k","","","test","practice","15","1","k","true","","","","","","","","",""
"html-keyboard-response","93","397639","0.0-5.0-3.1-1.1-4.15","6984a9246122d3bd4ca0833e","not_provided","desktop","0","0","0","","","","","","working_memory","","null","<div class=""fixation"">Correct</div>","null","","","","","","","","","","","","","","","","",""
"html-keyboard-response","94","398642","0.0-5.0-3.1-1.1-0.16","6984a9246122d3bd4ca0833e","not_provided","desktop","0","0","0","","","","","","working_memory","","null","<div class=""fixation"">+</div>","null","","","","","","","","","","","","","","","","",""
"html-keyboard-response","95","398845","0.0-5.0-3.1-1.1-1.16","6984a9246122d3bd4ca0833e","not_provided","desktop","0","0","0","","","","","","working_memory","","null","<img class='a' src=images/squares/black.png><img class='c' src=images/squares/green.png><img class='d' src=images/squares/orange.png><img class='f' src=images/squares/cyan.png><img class='g' src=images/squares/blue.png><img class='h' src=images/squares/yellow.png><img class='j' src=images/squares/red.png><img class='k' src=images/squares/magenta.png><div class=""fixation"">+</div>","null","","","memory","practice","16","8","","","","","","","","","","",""
"html-keyboard-response","96","399749","0.0-5.0-3.1-1.1-2.16","6984a9246122d3bd4ca0833e","not_provided","desktop","0","0","0","","","","","","working_memory","","null","<div class=""fixation"">+</div>","null","","","","","","","","","","","","","","","","",""
"html-keyboard-response","97","400394","0.0-5.0-3.1-1.1-3.16","6984a9246122d3bd4ca0833e","not_provided","desktop","0","0","0","","","","","","working_memory","","644","<img class='k' src=images/squares/magenta.png><div class=""fixation"">+</div>","k","","","test","practice","16","8","s","false","","","","","","","","",""
"html-keyboard-response","98","400906","0.0-5.0-3.1-1.1-4.16","6984a9246122d3bd4ca0833e","not_provided","desktop","0","0","0","","","","","","working_memory","","null","<div class=""fixation"">Incorrect</div>","null","","","","","","","","","","","","","","","","",""
"html-keyboard-response","99","401916","0.0-5.0-3.1-1.1-0.17","6984a9246122d3bd4ca0833e","not_provided","desktop","0","0","0","","","","","","working_memory","","null","<div class=""fixation"">+</div>","null","","","","","","","","","","","","","","","","",""
"html-keyboard-response","100","402117","0.0-5.0-3.1-1.1-1.17","6984a9246122d3bd4ca0833e","not_provided","desktop","0","0","0","","","","","","working_memory","","null","<img class='upper1' src=images/squares/orange.png><div class=""fixation"">+</div>","null","","","memory","practice","17","1","","","","","","","","","","",""
"html-keyboard-response","101","403030","0.0-5.0-3.1-1.1-2.17","6984a9246122d3bd4ca0833e","not_provided","desktop","0","0","0","","","","","","working_memory","","null","<div class=""fixation"">+</div>","null","","","","","","","","","","","","","","","","",""
"html-keyboard-response","102","404252","0.0-5.0-3.1-1.1-3.17","6984a9246122d3bd4ca0833e","not_provided","desktop","0","0","0","","","","","","working_memory","","1220","<img class='upper1' src=images/squares/orange.png><div class=""fixation"">+</div>","s","","","test","practice","17","1","s","true","","","","","","","","",""
"html-keyboard-response","103","404757","0.0-5.0-3.1-1.1-4.17","6984a9246122d3bd4ca0833e","not_provided","desktop","0","0","0","","","","","","working_memory","","null","<div class=""fixation"">Correct</div>","null","","","","","","","","","","","","","","","","",""
"html-keyboard-response","104","405769","0.0-5.0-3.1-1.1-0.18","6984a9246122d3bd4ca0833e","not_provided","desktop","0","0","0","","","","","","working_memory","","null","<div class=""fixation"">+</div>","null","","","","","","","","","","","","","","","","",""
"html-keyboard-response","105","405978","0.0-5.0-3.1-1.1-1.18","6984a9246122d3bd4ca0833e","not_provided","desktop","0","0","0","","","","","","working_memory","","null","<img class='c' src=images/squares/black.png><img class='f' src=images/squares/cyan.png><img class='g' src=images/squares/blue.png><img class='j' src=images/squares/orange.png><div class=""fixation"">+</div>","null","","","memory","practice","18","4","","","","","","","","","","",""
"html-keyboard-response","106","406889","0.0-5.0-3.1-1.1-2.18","6984a9246122d3bd4ca0833e","not_provided","desktop","0","0","0","","","","","","working_memory","","null","<div class=""fixation"">+</div>","null","","","","","","","","","","","","","","","","",""
"html-keyboard-response","107","407700","0.0-5.0-3.1-1.1-3.18","6984a9246122d3bd4ca0833e","not_provided","desktop","0","0","0","","","","","","working_memory","","810","<img class='f' src=images/squares/yellow.png><div class=""fixation"">+</div>","k","","","test","practice","18","4","k","true","","","","","","","","",""
"html-keyboard-response","108","408203","0.0-5.0-3.1-1.1-4.18","6984a9246122d3bd4ca0833e","not_provided","desktop","0","0","0","","","","","","working_memory","","null","<div class=""fixation"">Correct</div>","null","","","","","","","","","","","","","","","","",""
"html-keyboard-response","109","409216","0.0-5.0-3.1-1.1-0.19","6984a9246122d3bd4ca0833e","not_provided","desktop","0","0","0","","","","","","working_memory","","null","<div class=""fixation"">+</div>","null","","","","","","","","","","","","","","","","",""
"html-keyboard-response","110","409434","0.0-5.0-3.1-1.1-1.19","6984a9246122d3bd4ca0833e","not_provided","desktop","0","0","0","","","","","","working_memory","","null","<img class='lower1' src=images/squares/cyan.png><div class=""fixation"">+</div>","null","","","memory","practice","19","1","","","","","","","","","","",""
"html-keyboard-response","111","410346","0.0-5.0-3.1-1.1-2.19","6984a9246122d3bd4ca0833e","not_provided","desktop","0","0","0","","","","","","working_memory","","null","<div class=""fixation"">+</div>","null","","","","","","","","","","","","","","","","",""
"html-keyboard-response","112","411535","0.0-5.0-3.1-1.1-3.19","6984a9246122d3bd4ca0833e","not_provided","desktop","0","0","0","","","","","","working_memory","","1187","<img class='lower1' src=images/squares/cyan.png><div class=""fixation"">+</div>","s","","","test","practice","19","1","s","true","","","","","","","","",""
"html-keyboard-response","113","412050","0.0-5.0-3.1-1.1-4.19","6984a9246122d3bd4ca0833e","not_provided","desktop","0","0","0","","","","","","working_memory","","null","<div class=""fixation"">Correct</div>","null","","","","","","","","","","","","","","","","",""
"html-keyboard-response","114","413056","0.0-5.0-3.1-1.1-0.20","6984a9246122d3bd4ca0833e","not_provided","desktop","0","0","0","","","","","","working_memory","","null","<div class=""fixation"">+</div>","null","","","","","","","","","","","","","","","","",""
"html-keyboard-response","115","413274","0.0-5.0-3.1-1.1-1.20","6984a9246122d3bd4ca0833e","not_provided","desktop","0","0","0","","","","","","working_memory","","null","<img class='a' src=images/squares/brown.png><img class='b' src=images/squares/blue.png><img class='f' src=images/squares/cyan.png><img class='e' src=images/squares/orange.png><img class='i' src=images/squares/black.png><img class='h' src=images/squares/green.png><img class='k' src=images/squares/yellow.png><img class='j' src=images/squares/red.png><div class=""fixation"">+</div>","null","","","memory","practice","20","8","","","","","","","","","","",""
"html-keyboard-response","116","414182","0.0-5.0-3.1-1.1-2.20","6984a9246122d3bd4ca0833e","not_provided","desktop","0","0","0","","","","","","working_memory","","null","<div class=""fixation"">+</div>","null","","","","","","","","","","","","","","","","",""
"html-keyboard-response","117","415271","0.0-5.0-3.1-1.1-3.20","6984a9246122d3bd4ca0833e","not_provided","desktop","0","0","0","","","","","","working_memory","","1087","<img class='j' src=images/squares/magenta.png><div class=""fixation"">+</div>","k","","","test","practice","20","8","k","true","","","","","","","","",""
"html-keyboard-response","118","415778","0.0-5.0-3.1-1.1-4.20","6984a9246122d3bd4ca0833e","not_provided","desktop","0","0","0","","","","","","working_memory","","null","<div class=""fixation"">Correct</div>","null","","","","","","","","","","","","","","","","",""
"html-keyboard-response","119","416789","0.0-5.0-3.1-1.1-0.21","6984a9246122d3bd4ca0833e","not_provided","desktop","0","0","0","","","","","","working_memory","","null","<div class=""fixation"">+</div>","null","","","","","","","","","","","","","","","","",""
"html-keyboard-response","120","416998","0.0-5.0-3.1-1.1-1.21","6984a9246122d3bd4ca0833e","not_provided","desktop","0","0","0","","","","","","working_memory","","null","<img class='b' src=images/squares/brown.png><img class='c' src=images/squares/green.png><img class='e' src=images/squares/black.png><img class='f' src=images/squares/blue.png><img class='g' src=images/squares/magenta.png><img class='h' src=images/squares/cyan.png><img class='k' src=images/squares/orange.png><img class='j' src=images/squares/yellow.png><div class=""fixation"">+</div>","null","","","memory","practice","21","8","","","","","","","","","","",""
"html-keyboard-response","121","417900","0.0-5.0-3.1-1.1-2.21","6984a9246122d3bd4ca0833e","not_provided","desktop","0","0","0","","","","","","working_memory","","null","<div class=""fixation"">+</div>","null","","","","","","","","","","","","","","","","",""
"html-keyboard-response","122","418864","0.0-5.0-3.1-1.1-3.21","6984a9246122d3bd4ca0833e","not_provided","desktop","0","0","0","","","","","","working_memory","","963","<img class='b' src=images/squares/red.png><div class=""fixation"">+</div>","k","","","test","practice","21","8","k","true","","","","","","","","",""
"html-keyboard-response","123","419386","0.0-5.0-3.1-1.1-4.21","6984a9246122d3bd4ca0833e","not_provided","desktop","0","0","0","","","","","","working_memory","","null","<div class=""fixation"">Correct</div>","null","","","","","","","","","","","","","","","","",""
"html-keyboard-response","124","420396","0.0-5.0-3.1-1.1-0.22","6984a9246122d3bd4ca0833e","not_provided","desktop","0","0","0","","","","","","working_memory","","null","<div class=""fixation"">+</div>","null","","","","","","","","","","","","","","","","",""
"html-keyboard-response","125","420606","0.0-5.0-3.1-1.1-1.22","6984a9246122d3bd4ca0833e","not_provided","desktop","0","0","0","","","","","","working_memory","","null","<img class='lower1' src=images/squares/red.png><div class=""fixation"">+</div>","null","","","memory","practice","22","1","","","","","","","","","","",""
"html-keyboard-response","126","421516","0.0-5.0-3.1-1.1-2.22","6984a9246122d3bd4ca0833e","not_provided","desktop","0","0","0","","","","","","working_memory","","null","<div class=""fixation"">+</div>","null","","","","","","","","","","","","","","","","",""
"html-keyboard-response","127","422397","0.0-5.0-3.1-1.1-3.22","6984a9246122d3bd4ca0833e","not_provided","desktop","0","0","0","","","","","","working_memory","","880","<img class='lower1' src=images/squares/red.png><div class=""fixation"">+</div>","s","","","test","practice","22","1","s","true","","","","","","","","",""
"html-keyboard-response","128","422906","0.0-5.0-3.1-1.1-4.22","6984a9246122d3bd4ca0833e","not_provided","desktop","0","0","0","","","","","","working_memory","","null","<div class=""fixation"">Correct</div>","null","","","","","","","","","","","","","","","","",""
"html-keyboard-response","129","423910","0.0-5.0-3.1-1.1-0.23","6984a9246122d3bd4ca0833e","not_provided","desktop","0","0","0","","","","","","working_memory","","null","<div class=""fixation"">+</div>","null","","","","","","","","","","","","","","","","",""
"html-keyboard-response","130","424127","0.0-5.0-3.1-1.1-1.23","6984a9246122d3bd4ca0833e","not_provided","desktop","0","0","0","","","","","","working_memory","","null","<img class='b' src=images/squares/brown.png><img class='c' src=images/squares/magenta.png><img class='e' src=images/squares/red.png><img class='d' src=images/squares/green.png><img class='g' src=images/squares/orange.png><img class='i' src=images/squares/black.png><img class='j' src=images/squares/cyan.png><img class='l' src=images/squares/blue.png><div class=""fixation"">+</div>","null","","","memory","practice","23","8","","","","","","","","","","",""
"html-keyboard-response","131","425040","0.0-5.0-3.1-1.1-2.23","6984a9246122d3bd4ca0833e","not_provided","desktop","0","0","0","","","","","","working_memory","","null","<div class=""fixation"">+</div>","null","","","","","","","","","","","","","","","","",""
"html-keyboard-response","132","425839","0.0-5.0-3.1-1.1-3.23","6984a9246122d3bd4ca0833e","not_provided","desktop","0","0","0","","","","","","working_memory","","798","<img class='d' src=images/squares/green.png><div class=""fixation"">+</div>","k","","","test","practice","23","8","s","false","","","","","","","","",""
"html-keyboard-response","133","426344","0.0-5.0-3.1-1.1-4.23","6984a9246122d3bd4ca0833e","not_provided","desktop","0","0","0","","","","","","working_memory","","null","<div class=""fixation"">Incorrect</div>","null","","","","","","","","","","","","","","","","",""
"html-keyboard-response","134","427345","0.0-5.0-3.1-1.1-0.24","6984a9246122d3bd4ca0833e","not_provided","desktop","0","0","0","","","","","","working_memory","","null","<div class=""fixation"">+</div>","null","","","","","","","","","","","","","","","","",""
"html-keyboard-response","135","427552","0.0-5.0-3.1-1.1-1.24","6984a9246122d3bd4ca0833e","not_provided","desktop","0","0","0","","","","","","working_memory","","null","<img class='upper3' src=images/squares/orange.png><div class=""fixation"">+</div>","null","","","memory","practice","24","1","","","","","","","","","","",""
"html-keyboard-response","136","428465","0.0-5.0-3.1-1.1-2.24","6984a9246122d3bd4ca0833e","not_provided","desktop","0","0","0","","","","","","working_memory","","null","<div class=""fixation"">+</div>","null","","","","","","","","","","","","","","","","",""
"html-keyboard-response","137","429349","0.0-5.0-3.1-1.1-3.24","6984a9246122d3bd4ca0833e","not_provided","desktop","0","0","0","","","","","","working_memory","","882","<img class='upper3' src=images/squares/orange.png><div class=""fixation"">+</div>","s","","","test","practice","24","1","s","true","","","","","","","","",""
"html-keyboard-response","138","429853","0.0-5.0-3.1-1.1-4.24","6984a9246122d3bd4ca0833e","not_provided","desktop","0","0","0","","","","","","working_memory","","null","<div class=""fixation"">Correct</div>","null","","","","","","","","","","","","","","","","",""
"html-keyboard-response","139","430866","0.0-5.0-3.1-1.1-0.25","6984a9246122d3bd4ca0833e","not_provided","desktop","0","0","0","","","","","","working_memory","","null","<div class=""fixation"">+</div>","null","","","","","","","","","","","","","","","","",""
"html-keyboard-response","140","431074","0.0-5.0-3.1-1.1-1.25","6984a9246122d3bd4ca0833e","not_provided","desktop","0","0","0","","","","","","working_memory","","null","<img class='lower2' src=images/squares/blue.png><div class=""fixation"">+</div>","null","","","memory","practice","25","1","","","","","","","","","","",""
"html-keyboard-response","141","431987","0.0-5.0-3.1-1.1-2.25","6984a9246122d3bd4ca0833e","not_provided","desktop","0","0","0","","","","","","working_memory","","null","<div class=""fixation"">+</div>","null","","","","","","","","","","","","","","","","",""
"html-keyboard-response","142","432524","0.0-5.0-3.1-1.1-3.25","6984a9246122d3bd4ca0833e","not_provided","desktop","0","0","0","","","","","","working_memory","","535","<img class='lower2' src=images/squares/blue.png><div class=""fixation"">+</div>","s","","","test","practice","25","1","s","true","","","","","","","","",""
"html-keyboard-response","143","433040","0.0-5.0-3.1-1.1-4.25","6984a9246122d3bd4ca0833e","not_provided","desktop","0","0","0","","","","","","working_memory","","null","<div class=""fixation"">Correct</div>","null","","","","","","","","","","","","","","","","",""
"html-keyboard-response","144","434044","0.0-5.0-3.1-1.1-0.26","6984a9246122d3bd4ca0833e","not_provided","desktop","0","0","0","","","","","","working_memory","","null","<div class=""fixation"">+</div>","null","","","","","","","","","","","","","","","","",""
"html-keyboard-response","145","434262","0.0-5.0-3.1-1.1-1.26","6984a9246122d3bd4ca0833e","not_provided","desktop","0","0","0","","","","","","working_memory","","null","<img class='b' src=images/squares/blue.png><img class='f' src=images/squares/red.png><img class='i' src=images/squares/cyan.png><img class='l' src=images/squares/green.png><div class=""fixation"">+</div>","null","","","memory","practice","26","4","","","","","","","","","","",""
"html-keyboard-response","146","435171","0.0-5.0-3.1-1.1-2.26","6984a9246122d3bd4ca0833e","not_provided","desktop","0","0","0","","","","","","working_memory","","null","<div class=""fixation"">+</div>","null","","","","","","","","","","","","","","","","",""
"html-keyboard-response","147","436177","0.0-5.0-3.1-1.1-3.26","6984a9246122d3bd4ca0833e","not_provided","desktop","0","0","0","","","","","","working_memory","","1004","<img class='l' src=images/squares/green.png><div class=""fixation"">+</div>","s","","","test","practice","26","4","s","true","","","","","","","","",""
"html-keyboard-response","148","436691","0.0-5.0-3.1-1.1-4.26","6984a9246122d3bd4ca0833e","not_provided","desktop","0","0","0","","","","","","working_memory","","null","<div class=""fixation"">Correct</div>","null","","","","","","","","","","","","","","","","",""
"html-keyboard-response","149","437700","0.0-5.0-3.1-1.1-0.27","6984a9246122d3bd4ca0833e","not_provided","desktop","0","0","0","","","","","","working_memory","","null","<div class=""fixation"">+</div>","null","","","","","","","","","","","","","","","","",""
"html-keyboard-response","150","437903","0.0-5.0-3.1-1.1-1.27","6984a9246122d3bd4ca0833e","not_provided","desktop","0","0","0","","","","","","working_memory","","null","<img class='a' src=images/squares/magenta.png><img class='f' src=images/squares/orange.png><img class='i' src=images/squares/blue.png><img class='j' src=images/squares/green.png><div class=""fixation"">+</div>","null","","","memory","practice","27","4","","","","","","","","","","",""
"html-keyboard-response","151","438812","0.0-5.0-3.1-1.1-2.27","6984a9246122d3bd4ca0833e","not_provided","desktop","0","0","0","","","","","","working_memory","","null","<div class=""fixation"">+</div>","null","","","","","","","","","","","","","","","","",""
"html-keyboard-response","152","439381","0.0-5.0-3.1-1.1-3.27","6984a9246122d3bd4ca0833e","not_provided","desktop","0","0","0","","","","","","working_memory","","568","<img class='j' src=images/squares/green.png><div class=""fixation"">+</div>","s","","","test","practice","27","4","s","true","","","","","","","","",""
"html-keyboard-response","153","439882","0.0-5.0-3.1-1.1-4.27","6984a9246122d3bd4ca0833e","not_provided","desktop","0","0","0","","","","","","working_memory","","null","<div class=""fixation"">Correct</div>","null","","","","","","","","","","","","","","","","",""
"html-keyboard-response","154","440892","0.0-5.0-3.1-1.1-0.28","6984a9246122d3bd4ca0833e","not_provided","desktop","0","0","0","","","","","","working_memory","","null","<div class=""fixation"">+</div>","null","","","","","","","","","","","","","","","","",""
"html-keyboard-response","155","441107","0.0-5.0-3.1-1.1-1.28","6984a9246122d3bd4ca0833e","not_provided","desktop","0","0","0","","","","","","working_memory","","null","<img class='a' src=images/squares/yellow.png><img class='e' src=images/squares/black.png><img class='g' src=images/squares/cyan.png><img class='l' src=images/squares/blue.png><div class=""fixation"">+</div>","null","","","memory","practice","28","4","","","","","","","","","","",""
"html-keyboard-response","156","442024","0.0-5.0-3.1-1.1-2.28","6984a9246122d3bd4ca0833e","not_provided","desktop","0","0","0","","","","","","working_memory","","null","<div class=""fixation"">+</div>","null","","","","","","","","","","","","","","","","",""
"html-keyboard-response","157","442844","0.0-5.0-3.1-1.1-3.28","6984a9246122d3bd4ca0833e","not_provided","desktop","0","0","0","","","","","","working_memory","","818","<img class='l' src=images/squares/blue.png><div class=""fixation"">+</div>","s","","","test","practice","28","4","s","true","","","","","","","","",""
"html-keyboard-response","158","443359","0.0-5.0-3.1-1.1-4.28","6984a9246122d3bd4ca0833e","not_provided","desktop","0","0","0","","","","","","working_memory","","null","<div class=""fixation"">Correct</div>","null","","","","","","","","","","","","","","","","",""
"html-keyboard-response","159","444375","0.0-5.0-3.1-1.1-0.29","6984a9246122d3bd4ca0833e","not_provided","desktop","0","0","0","","","","","","working_memory","","null","<div class=""fixation"">+</div>","null","","","","","","","","","","","","","","","","",""
"html-keyboard-response","160","444584","0.0-5.0-3.1-1.1-1.29","6984a9246122d3bd4ca0833e","not_provided","desktop","0","0","0","","","","","","working_memory","","null","<img class='a' src=images/squares/red.png><img class='b' src=images/squares/yellow.png><img class='f' src=images/squares/brown.png><img class='e' src=images/squares/orange.png><img class='h' src=images/squares/green.png><img class='g' src=images/squares/blue.png><img class='j' src=images/squares/cyan.png><img class='l' src=images/squares/black.png><div class=""fixation"">+</div>","null","","","memory","practice","29","8","","","","","","","","","","",""
"html-keyboard-response","161","445496","0.0-5.0-3.1-1.1-2.29","6984a9246122d3bd4ca0833e","not_provided","desktop","0","0","0","","","","","","working_memory","","null","<div class=""fixation"">+</div>","null","","","","","","","","","","","","","","","","",""
"html-keyboard-response","162","446427","0.0-5.0-3.1-1.1-3.29","6984a9246122d3bd4ca0833e","not_provided","desktop","0","0","0","","","","","","working_memory","","929","<img class='h' src=images/squares/magenta.png><div class=""fixation"">+</div>","k","","","test","practice","29","8","k","true","","","","","","","","",""
"html-keyboard-response","163","446933","0.0-5.0-3.1-1.1-4.29","6984a9246122d3bd4ca0833e","not_provided","desktop","0","0","0","","","","","","working_memory","","null","<div class=""fixation"">Correct</div>","null","","","","","","","","","","","","","","","","",""
"html-keyboard-response","164","449832","0.0-5.0-4.0","6984a9246122d3bd4ca0833e","not_provided","desktop","0","0","0","","","","","","working_memory","","2896","<div style=""text-align:center;font-family:sans-serif;""><p>Good job! You have finished the practice.</p><p>We will now start the real experiment.</p><p>Please try to be as accurate as possible.</p><p><b><u>Note: random guessing may risk your payment.</u></b></p><br><p><b>Press any key to begin.</b></p></div>"," ","","","","","","","","","","","","","","","","",""
"html-keyboard-response","165","450849","0.0-5.0-5.0-0.0","6984a9246122d3bd4ca0833e","not_provided","desktop","0","0","0","","","","","","working_memory","","null","<div class=""fixation"">+</div>","null","","","","","","","","","","","","","","","","",""
"html-keyboard-response","166","451061","0.0-5.0-5.0-1.0","6984a9246122d3bd4ca0833e","not_provided","desktop","0","0","0","","","","","","working_memory","","null","<img class='a' src=images/squares/orange.png><img class='b' src=images/squares/yellow.png><img class='e' src=images/squares/cyan.png><img class='f' src=images/squares/black.png><img class='g' src=images/squares/magenta.png><img class='h' src=images/squares/brown.png><img class='l' src=images/squares/green.png><img class='k' src=images/squares/blue.png><div class=""fixation"">+</div>","null","","","memory","exp","0","","","","","","","","","","","",""
"html-keyboard-response","167","451966","0.0-5.0-5.0-2.0","6984a9246122d3bd4ca0833e","not_provided","desktop","0","0","0","","","","","","working_memory","","null","<div class=""fixation"">+</div>","null","","","","","","","","","","","","","","","","",""
"html-keyboard-response","168","452947","0.0-5.0-5.0-3.0","6984a9246122d3bd4ca0833e","not_provided","desktop","0","0","0","","","","","","working_memory","","979","<img class='k' src=images/squares/blue.png><div class=""fixation"">+</div>","s","","","test_squares","exp","0","8","s","true","sk","s","","","","","","",""
"html-keyboard-response","169","453464","0.0-5.0-5.0-4.0","6984a9246122d3bd4ca0833e","not_provided","desktop","0","0","0","","","","","","working_memory","","null","<div class=""fixation"">Correct</div>","null","","","","","","","","","","","","","","","","",""
"html-keyboard-response","170","454480","0.0-5.0-5.0-0.1","6984a9246122d3bd4ca0833e","not_provided","desktop","0","0","0","","","","","","working_memory","","null","<div class=""fixation"">+</div>","null","","","","","","","","","","","","","","","","",""
"html-keyboard-response","171","454685","0.0-5.0-5.0-1.1","6984a9246122d3bd4ca0833e","not_provided","desktop","0","0","0","","","","","","working_memory","","null","<img class='b' src=images/squares/green.png><img class='c' src=images/squares/brown.png><img class='d' src=images/squares/red.png><img class='e' src=images/squares/magenta.png><img class='i' src=images/squares/black.png><img class='h' src=images/squares/orange.png><img class='k' src=images/squares/blue.png><img class='j' src=images/squares/cyan.png><div class=""fixation"">+</div>","null","","","memory","exp","1","","","","","","","","","","","",""
"html-keyboard-response","172","455591","0.0-5.0-5.0-2.1","6984a9246122d3bd4ca0833e","not_provided","desktop","0","0","0","","","","","","working_memory","","null","<div class=""fixation"">+</div>","null","","","","","","","","","","","","","","","","",""
"html-keyboard-response","173","456886","0.0-5.0-5.0-3.1","6984a9246122d3bd4ca0833e","not_provided","desktop","0","0","0","","","","","","working_memory","","1294","<img class='i' src=images/squares/yellow.png><div class=""fixation"">+</div>","k","","","test_squares","exp","1","8","k","true","sk","d","","","","","","",""
"html-keyboard-response","174","457396","0.0-5.0-5.0-4.1","6984a9246122d3bd4ca0833e","not_provided","desktop","0","0","0","","","","","","working_memory","","null","<div class=""fixation"">Correct</div>","null","","","","","","","","","","","","","","","","",""
"html-keyboard-response","175","458406","0.0-5.0-5.0-0.2","6984a9246122d3bd4ca0833e","not_provided","desktop","0","0","0","","","","","","working_memory","","null","<div class=""fixation"">+</div>","null","","","","","","","","","","","","","","","","",""
"html-keyboard-response","176","458625","0.0-5.0-5.0-1.2","6984a9246122d3bd4ca0833e","not_provided","desktop","0","0","0","","","","","","working_memory","","null","<img class='a' src=images/squares/green.png><img class='b' src=images/squares/cyan.png><img class='e' src=images/squares/yellow.png><img class='f' src=images/squares/black.png><img class='g' src=images/squares/orange.png><img class='h' src=images/squares/blue.png><img class='j' src=images/squares/magenta.png><img class='k' src=images/squares/red.png><div class=""fixation"">+</div>","null","","","memory","exp","2","","","","","","","","","","","",""
"html-keyboard-response","177","459536","0.0-5.0-5.0-2.2","6984a9246122d3bd4ca0833e","not_provided","desktop","0","0","0","","","","","","working_memory","","null","<div class=""fixation"">+</div>","null","","","","","","","","","","","","","","","","",""
"html-keyboard-response","178","462181","0.0-5.0-5.0-3.2","6984a9246122d3bd4ca0833e","not_provided","desktop","0","0","0","","","","","","working_memory","","2643","<img class='g' src=images/squares/orange.png><div class=""fixation"">+</div>","s","","","test_squares","exp","2","8","s","true","sk","s","","","","","","",""
"html-keyboard-response","179","462698","0.0-5.0-5.0-4.2","6984a9246122d3bd4ca0833e","not_provided","desktop","0","0","0","","","","","","working_memory","","null","<div class=""fixation"">Correct</div>","null","","","","","","","","","","","","","","","","",""
"html-keyboard-response","180","463705","0.0-5.0-5.0-0.3","6984a9246122d3bd4ca0833e","not_provided","desktop","0","0","0","","","","","","working_memory","","null","<div class=""fixation"">+</div>","null","","","","","","","","","","","","","","","","",""
"html-keyboard-response","181","463918","0.0-5.0-5.0-1.3","6984a9246122d3bd4ca0833e","not_provided","desktop","0","0","0","","","","","","working_memory","","null","<img class='b' src=images/squares/magenta.png><img class='e' src=images/squares/orange.png><img class='i' src=images/squares/black.png><img class='l' src=images/squares/cyan.png><div class=""fixation"">+</div>","null","","","memory","exp","3","","","","","","","","","","","",""
"html-keyboard-response","182","464825","0.0-5.0-5.0-2.3","6984a9246122d3bd4ca0833e","not_provided","desktop","0","0","0","","","","","","working_memory","","null","<div class=""fixation"">+</div>","null","","","","","","","","","","","","","","","","",""
"html-keyboard-response","183","465946","0.0-5.0-5.0-3.3","6984a9246122d3bd4ca0833e","not_provided","desktop","0","0","0","","","","","","working_memory","","1119","<img class='l' src=images/squares/cyan.png><div class=""fixation"">+</div>","s","","","test_squares","exp","3","4","s","true","sk","s","","","","","","",""
"html-keyboard-response","184","466456","0.0-5.0-5.0-4.3","6984a9246122d3bd4ca0833e","not_provided","desktop","0","0","0","","","","","","working_memory","","null","<div class=""fixation"">Correct</div>","null","","","","","","","","","","","","","","","","",""
"html-keyboard-response","185","467470","0.0-5.0-5.0-0.4","6984a9246122d3bd4ca0833e","not_provided","desktop","0","0","0","","","","","","working_memory","","null","<div class=""fixation"">+</div>","null","","","","","","","","","","","","","","","","",""
"html-keyboard-response","186","467677","0.0-5.0-5.0-1.4","6984a9246122d3bd4ca0833e","not_provided","desktop","0","0","0","","","","","","working_memory","","null","<img class='b' src=images/squares/magenta.png><img class='c' src=images/squares/black.png><img class='e' src=images/squares/brown.png><img class='f' src=images/squares/red.png><img class='g' src=images/squares/cyan.png><img class='i' src=images/squares/yellow.png><img class='l' src=images/squares/green.png><img class='j' src=images/squares/orange.png><div class=""fixation"">+</div>","null","","","memory","exp","4","","","","","","","","","","","",""
"html-keyboard-response","187","468582","0.0-5.0-5.0-2.4","6984a9246122d3bd4ca0833e","not_provided","desktop","0","0","0","","","","","","working_memory","","null","<div class=""fixation"">+</div>","null","","","","","","","","","","","","","","","","",""
"html-keyboard-response","188","469799","0.0-5.0-5.0-3.4","6984a9246122d3bd4ca0833e","not_provided","desktop","0","0","0","","","","","","working_memory","","1216","<img class='f' src=images/squares/red.png><div class=""fixation"">+</div>","s","","","test_squares","exp","4","8","s","true","sk","s","","","","","","",""
"html-keyboard-response","189","470305","0.0-5.0-5.0-4.4","6984a9246122d3bd4ca0833e","not_provided","desktop","0","0","0","","","","","","working_memory","","null","<div class=""fixation"">Correct</div>","null","","","","","","","","","","","","","","","","",""
"html-keyboard-response","190","471321","0.0-5.0-5.0-0.5","6984a9246122d3bd4ca0833e","not_provided","desktop","0","0","0","","","","","","working_memory","","null","<div class=""fixation"">+</div>","null","","","","","","","","","","","","","","","","",""
"html-keyboard-response","191","471533","0.0-5.0-5.0-1.5","6984a9246122d3bd4ca0833e","not_provided","desktop","0","0","0","","","","","","working_memory","","null","<img class='b' src=images/squares/cyan.png><img class='a' src=images/squares/blue.png><img class='e' src=images/squares/green.png><img class='f' src=images/squares/magenta.png><img class='i' src=images/squares/yellow.png><img class='h' src=images/squares/black.png><img class='l' src=images/squares/red.png><img class='j' src=images/squares/brown.png><div class=""fixation"">+</div>","null","","","memory","exp","5","","","","","","","","","","","",""
"html-keyboard-response","192","472443","0.0-5.0-5.0-2.5","6984a9246122d3bd4ca0833e","not_provided","desktop","0","0","0","","","","","","working_memory","","null","<div class=""fixation"">+</div>","null","","","","","","","","","","","","","","","","",""
"html-keyboard-response","193","473795","0.0-5.0-5.0-3.5","6984a9246122d3bd4ca0833e","not_provided","desktop","0","0","0","","","","","","working_memory","","1350","<img class='f' src=images/squares/orange.png><div class=""fixation"">+</div>","s","","","test_squares","exp","5","8","k","false","sk","d","","","","","","",""
"html-keyboard-response","194","474311","0.0-5.0-5.0-4.5","6984a9246122d3bd4ca0833e","not_provided","desktop","0","0","0","","","","","","working_memory","","null","<div class=""fixation"">Incorrect</div>","null","","","","","","","","","","","","","","","","",""
"html-keyboard-response","195","475315","0.0-5.0-5.0-0.6","6984a9246122d3bd4ca0833e","not_provided","desktop","0","0","0","","","","","","working_memory","","null","<div class=""fixation"">+</div>","null","","","","","","","","","","","","","","","","",""
"html-keyboard-response","196","475538","0.0-5.0-5.0-1.6","6984a9246122d3bd4ca0833e","not_provided","desktop","0","0","0","","","","","","working_memory","","null","<img class='a' src=images/squares/red.png><img class='c' src=images/squares/green.png><img class='d' src=images/squares/orange.png><img class='e' src=images/squares/black.png><img class='g' src=images/squares/cyan.png><img class='i' src=images/squares/magenta.png><img class='l' src=images/squares/blue.png><img class='k' src=images/squares/brown.png><div class=""fixation"">+</div>","null","","","memory","exp","6","","","","","","","","","","","",""
"html-keyboard-response","197","476451","0.0-5.0-5.0-2.6","6984a9246122d3bd4ca0833e","not_provided","desktop","0","0","0","","","","","","working_memory","","null","<div class=""fixation"">+</div>","null","","","","","","","","","","","","","","","","",""
"html-keyboard-response","198","477428","0.0-5.0-5.0-3.6","6984a9246122d3bd4ca0833e","not_provided","desktop","0","0","0","","","","","","working_memory","","976","<img class='d' src=images/squares/yellow.png><div class=""fixation"">+</div>","k","","","test_squares","exp","6","8","k","true","sk","d","","","","","","",""
"html-keyboard-response","199","477940","0.0-5.0-5.0-4.6","6984a9246122d3bd4ca0833e","not_provided","desktop","0","0","0","","","","","","working_memory","","null","<div class=""fixation"">Correct</div>","null","","","","","","","","","","","","","","","","",""
"html-keyboard-response","200","478951","0.0-5.0-5.0-0.7","6984a9246122d3bd4ca0833e","not_provided","desktop","0","0","0","","","","","","working_memory","","null","<div class=""fixation"">+</div>","null","","","","","","","","","","","","","","","","",""
"html-keyboard-response","201","479154","0.0-5.0-5.0-1.7","6984a9246122d3bd4ca0833e","not_provided","desktop","0","0","0","","","","","","working_memory","","null","<img class='b' src=images/squares/yellow.png><img class='a' src=images/squares/blue.png><img class='f' src=images/squares/black.png><img class='d' src=images/squares/brown.png><img class='i' src=images/squares/green.png><img class='h' src=images/squares/cyan.png><img class='j' src=images/squares/orange.png><img class='k' src=images/squares/magenta.png><div class=""fixation"">+</div>","null","","","memory","exp","7","","","","","","","","","","","",""
"html-keyboard-response","202","480061","0.0-5.0-5.0-2.7","6984a9246122d3bd4ca0833e","not_provided","desktop","0","0","0","","","","","","working_memory","","null","<div class=""fixation"">+</div>","null","","","","","","","","","","","","","","","","",""
"html-keyboard-response","203","480333","0.0-5.0-5.0-3.7","6984a9246122d3bd4ca0833e","not_provided","desktop","0","0","0","","","","","","working_memory","","271","<img class='k' src=images/squares/red.png><div class=""fixation"">+</div>","k","","","test_squares","exp","7","8","k","true","sk","d","","","","","","",""
"html-keyboard-response","204","480845","0.0-5.0-5.0-4.7","6984a9246122d3bd4ca0833e","not_provided","desktop","0","0","0","","","","","","working_memory","","null","<div class=""fixation"">Correct</div>","null","","","","","","","","","","","","","","","","",""
"html-keyboard-response","205","481847","0.0-5.0-5.0-0.8","6984a9246122d3bd4ca0833e","not_provided","desktop","0","0","0","","","","","","working_memory","","null","<div class=""fixation"">+</div>","null","","","","","","","","","","","","","","","","",""
"html-keyboard-response","206","482050","0.0-5.0-5.0-1.8","6984a9246122d3bd4ca0833e","not_provided","desktop","0","0","0","","","","","","working_memory","","null","<img class='b' src=images/squares/brown.png><img class='c' src=images/squares/black.png><img class='f' src=images/squares/yellow.png><img class='d' src=images/squares/orange.png><img class='i' src=images/squares/blue.png><img class='g' src=images/squares/magenta.png><img class='l' src=images/squares/green.png><img class='j' src=images/squares/cyan.png><div class=""fixation"">+</div>","null","","","memory","exp","8","","","","","","","","","","","",""
"html-keyboard-response","207","482962","0.0-5.0-5.0-2.8","6984a9246122d3bd4ca0833e","not_provided","desktop","0","0","0","","","","","","working_memory","","null","<div class=""fixation"">+</div>","null","","","","","","","","","","","","","","","","",""
"html-keyboard-response","208","483924","0.0-5.0-5.0-3.8","6984a9246122d3bd4ca0833e","not_provided","desktop","0","0","0","","","","","","working_memory","","960","<img class='i' src=images/squares/blue.png><div class=""fixation"">+</div>","s","","","test_squares","exp","8","8","s","true","sk","s","","","","","","",""
"html-keyboard-response","209","484434","0.0-5.0-5.0-4.8","6984a9246122d3bd4ca0833e","not_provided","desktop","0","0","0","","","","","","working_memory","","null","<div class=""fixation"">Correct</div>","null","","","","","","","","","","","","","","","","",""
"html-keyboard-response","210","485451","0.0-5.0-5.0-0.9","6984a9246122d3bd4ca0833e","not_provided","desktop","0","0","0","","","","","","working_memory","","null","<div class=""fixation"">+</div>","null","","","","","","","","","","","","","","","","",""
"html-keyboard-response","211","485659","0.0-5.0-5.0-1.9","6984a9246122d3bd4ca0833e","not_provided","desktop","0","0","0","","","","","","working_memory","","null","<img class='b' src=images/squares/brown.png><img class='a' src=images/squares/green.png><img class='e' src=images/squares/magenta.png><img class='f' src=images/squares/black.png><img class='i' src=images/squares/yellow.png><img class='g' src=images/squares/blue.png><img class='l' src=images/squares/red.png><img class='j' src=images/squares/orange.png><div class=""fixation"">+</div>","null","","","memory","exp","9","","","","","","","","","","","",""
"html-keyboard-response","212","486564","0.0-5.0-5.0-2.9","6984a9246122d3bd4ca0833e","not_provided","desktop","0","0","0","","","","","","working_memory","","null","<div class=""fixation"">+</div>","null","","","","","","","","","","","","","","","","",""
"html-keyboard-response","213","488959","0.0-5.0-5.0-3.9","6984a9246122d3bd4ca0833e","not_provided","desktop","0","0","0","","","","","","working_memory","","2394","<img class='a' src=images/squares/green.png><div class=""fixation"">+</div>","s","","","test_squares","exp","9","8","s","true","sk","s","","","","","","",""
"html-keyboard-response","214","489465","0.0-5.0-5.0-4.9","6984a9246122d3bd4ca0833e","not_provided","desktop","0","0","0","","","","","","working_memory","","null","<div class=""fixation"">Correct</div>","null","","","","","","","","","","","","","","","","",""
"html-keyboard-response","215","490475","0.0-5.0-5.0-0.10","6984a9246122d3bd4ca0833e","not_provided","desktop","0","0","0","","","","","","working_memory","","null","<div class=""fixation"">+</div>","null","","","","","","","","","","","","","","","","",""
"html-keyboard-response","216","490690","0.0-5.0-5.0-1.10","6984a9246122d3bd4ca0833e","not_provided","desktop","0","0","0","","","","","","working_memory","","null","<img class='b' src=images/squares/yellow.png><img class='c' src=images/squares/black.png><img class='d' src=images/squares/cyan.png><img class='f' src=images/squares/blue.png><img class='h' src=images/squares/orange.png><img class='i' src=images/squares/magenta.png><img class='k' src=images/squares/brown.png><img class='j' src=images/squares/green.png><div class=""fixation"">+</div>","null","","","memory","exp","10","","","","","","","","","","","",""
"html-keyboard-response","217","491607","0.0-5.0-5.0-2.10","6984a9246122d3bd4ca0833e","not_provided","desktop","0","0","0","","","","","","working_memory","","null","<div class=""fixation"">+</div>","null","","","","","","","","","","","","","","","","",""
"html-keyboard-response","218","492790","0.0-5.0-5.0-3.10","6984a9246122d3bd4ca0833e","not_provided","desktop","0","0","0","","","","","","working_memory","","1181","<img class='c' src=images/squares/black.png><div class=""fixation"">+</div>","s","","","test_squares","exp","10","8","s","true","sk","s","","","","","","",""
"html-keyboard-response","219","493302","0.0-5.0-5.0-4.10","6984a9246122d3bd4ca0833e","not_provided","desktop","0","0","0","","","","","","working_memory","","null","<div class=""fixation"">Correct</div>","null","","","","","","","","","","","","","","","","",""
"html-keyboard-response","220","494308","0.0-5.0-5.0-0.11","6984a9246122d3bd4ca0833e","not_provided","desktop","0","0","0","","","","","","working_memory","","null","<div class=""fixation"">+</div>","null","","","","","","","","","","","","","","","","",""
"html-keyboard-response","221","494526","0.0-5.0-5.0-1.11","6984a9246122d3bd4ca0833e","not_provided","desktop","0","0","0","","","","","","working_memory","","null","<img class='c' src=images/squares/black.png><img class='f' src=images/squares/yellow.png><img class='i' src=images/squares/green.png><img class='j' src=images/squares/cyan.png><div class=""fixation"">+</div>","null","","","memory","exp","11","","","","","","","","","","","",""
"html-keyboard-response","222","495428","0.0-5.0-5.0-2.11","6984a9246122d3bd4ca0833e","not_provided","desktop","0","0","0","","","","","","working_memory","","null","<div class=""fixation"">+</div>","null","","","","","","","","","","","","","","","","",""
"html-keyboard-response","223","496601","0.0-5.0-5.0-3.11","6984a9246122d3bd4ca0833e","not_provided","desktop","0","0","0","","","","","","working_memory","","1171","<img class='f' src=images/squares/yellow.png><div class=""fixation"">+</div>","s","","","test_squares","exp","11","4","s","true","sk","s","","","","","","",""
"html-keyboard-response","224","497113","0.0-5.0-5.0-4.11","6984a9246122d3bd4ca0833e","not_provided","desktop","0","0","0","","","","","","working_memory","","null","<div class=""fixation"">Correct</div>","null","","","","","","","","","","","","","","","","",""
"html-keyboard-response","225","498120","0.0-5.0-5.0-0.12","6984a9246122d3bd4ca0833e","not_provided","desktop","0","0","0","","","","","","working_memory","","null","<div class=""fixation"">+</div>","null","","","","","","","","","","","","","","","","",""
"html-keyboard-response","226","498338","0.0-5.0-5.0-1.12","6984a9246122d3bd4ca0833e","not_provided","desktop","0","0","0","","","","","","working_memory","","null","<img class='a' src=images/squares/black.png><img class='b' src=images/squares/yellow.png><img class='f' src=images/squares/green.png><img class='d' src=images/squares/red.png><img class='g' src=images/squares/cyan.png><img class='i' src=images/squares/magenta.png><img class='j' src=images/squares/blue.png><img class='l' src=images/squares/brown.png><div class=""fixation"">+</div>","null","","","memory","exp","12","","","","","","","","","","","",""
"html-keyboard-response","227","499248","0.0-5.0-5.0-2.12","6984a9246122d3bd4ca0833e","not_provided","desktop","0","0","0","","","","","","working_memory","","null","<div class=""fixation"">+</div>","null","","","","","","","","","","","","","","","","",""
"html-keyboard-response","228","500134","0.0-5.0-5.0-3.12","6984a9246122d3bd4ca0833e","not_provided","desktop","0","0","0","","","","","","working_memory","","884","<img class='f' src=images/squares/green.png><div class=""fixation"">+</div>","s","","","test_squares","exp","12","8","s","true","sk","s","","","","","","",""
"html-keyboard-response","229","500650","0.0-5.0-5.0-4.12","6984a9246122d3bd4ca0833e","not_provided","desktop","0","0","0","","","","","","working_memory","","null","<div class=""fixation"">Correct</div>","null","","","","","","","","","","","","","","","","",""
"html-keyboard-response","230","501651","0.0-5.0-5.0-0.13","6984a9246122d3bd4ca0833e","not_provided","desktop","0","0","0","","","","","","working_memory","","null","<div class=""fixation"">+</div>","null","","","","","","","","","","","","","","","","",""
"html-keyboard-response","231","501854","0.0-5.0-5.0-1.13","6984a9246122d3bd4ca0833e","not_provided","desktop","0","0","0","","","","","","working_memory","","null","<img class='a' src=images/squares/magenta.png><img class='f' src=images/squares/green.png><img class='g' src=images/squares/black.png><img class='k' src=images/squares/yellow.png><div class=""fixation"">+</div>","null","","","memory","exp","13","","","","","","","","","","","",""
"html-keyboard-response","232","502757","0.0-5.0-5.0-2.13","6984a9246122d3bd4ca0833e","not_provided","desktop","0","0","0","","","","","","working_memory","","null","<div class=""fixation"">+</div>","null","","","","","","","","","","","","","","","","",""
"html-keyboard-response","233","503702","0.0-5.0-5.0-3.13","6984a9246122d3bd4ca0833e","not_provided","desktop","0","0","0","","","","","","working_memory","","943","<img class='a' src=images/squares/orange.png><div class=""fixation"">+</div>","k","","","test_squares","exp","13","4","k","true","sk","d","","","","","","",""
"html-keyboard-response","234","504222","0.0-5.0-5.0-4.13","6984a9246122d3bd4ca0833e","not_provided","desktop","0","0","0","","","","","","working_memory","","null","<div class=""fixation"">Correct</div>","null","","","","","","","","","","","","","","","","",""
"html-keyboard-response","235","505226","0.0-5.0-5.0-0.14","6984a9246122d3bd4ca0833e","not_provided","desktop","0","0","0","","","","","","working_memory","","null","<div class=""fixation"">+</div>","null","","","","","","","","","","","","","","","","",""
"html-keyboard-response","236","505444","0.0-5.0-5.0-1.14","6984a9246122d3bd4ca0833e","not_provided","desktop","0","0","0","","","","","","working_memory","","null","<img class='b' src=images/squares/magenta.png><img class='c' src=images/squares/blue.png><img class='f' src=images/squares/brown.png><img class='e' src=images/squares/yellow.png><img class='h' src=images/squares/green.png><img class='g' src=images/squares/orange.png><img class='l' src=images/squares/cyan.png><img class='k' src=images/squares/black.png><div class=""fixation"">+</div>","null","","","memory","exp","14","","","","","","","","","","","",""
"html-keyboard-response","237","506362","0.0-5.0-5.0-2.14","6984a9246122d3bd4ca0833e","not_provided","desktop","0","0","0","","","","","","working_memory","","null","<div class=""fixation"">+</div>","null","","","","","","","","","","","","","","","","",""
"html-keyboard-response","238","507278","0.0-5.0-5.0-3.14","6984a9246122d3bd4ca0833e","not_provided","desktop","0","0","0","","","","","","working_memory","","915","<img class='e' src=images/squares/red.png><div class=""fixation"">+</div>","s","","","test_squares","exp","14","8","k","false","sk","d","","","","","","",""
"html-keyboard-response","239","507795","0.0-5.0-5.0-4.14","6984a9246122d3bd4ca0833e","not_provided","desktop","0","0","0","","","","","","working_memory","","null","<div class=""fixation"">Incorrect</div>","null","","","","","","","","","","","","","","","","",""
"html-keyboard-response","240","508798","0.0-5.0-5.0-0.15","6984a9246122d3bd4ca0833e","not_provided","desktop","0","0","0","","","","","","working_memory","","null","<div class=""fixation"">+</div>","null","","","","","","","","","","","","","","","","",""
"html-keyboard-response","241","509015","0.0-5.0-5.0-1.15","6984a9246122d3bd4ca0833e","not_provided","desktop","0","0","0","","","","","","working_memory","","null","<img class='b' src=images/squares/red.png><img class='e' src=images/squares/black.png><img class='h' src=images/squares/brown.png><img class='k' src=images/squares/magenta.png><div class=""fixation"">+</div>","null","","","memory","exp","15","","","","","","","","","","","",""
"html-keyboard-response","242","509918","0.0-5.0-5.0-2.15","6984a9246122d3bd4ca0833e","not_provided","desktop","0","0","0","","","","","","working_memory","","null","<div class=""fixation"">+</div>","null","","","","","","","","","","","","","","","","",""
"html-keyboard-response","243","511545","0.0-5.0-5.0-3.15","6984a9246122d3bd4ca0833e","not_provided","desktop","0","0","0","","","","","","working_memory","","1625","<img class='h' src=images/squares/yellow.png><div class=""fixation"">+</div>","k","","","test_squares","exp","15","4","k","true","sk","d","","","","","","",""
"html-keyboard-response","244","512053","0.0-5.0-5.0-4.15","6984a9246122d3bd4ca0833e","not_provided","desktop","0","0","0","","","","","","working_memory","","null","<div class=""fixation"">Correct</div>","null","","","","","","","","","","","","","","","","",""
"html-keyboard-response","245","513057","0.0-5.0-5.0-0.16","6984a9246122d3bd4ca0833e","not_provided","desktop","0","0","0","","","","","","working_memory","","null","<div class=""fixation"">+</div>","null","","","","","","","","","","","","","","","","",""
"html-keyboard-response","246","513274","0.0-5.0-5.0-1.16","6984a9246122d3bd4ca0833e","not_provided","desktop","0","0","0","","","","","","working_memory","","null","<img class='a' src=images/squares/green.png><img class='e' src=images/squares/cyan.png><img class='h' src=images/squares/black.png><img class='k' src=images/squares/yellow.png><div class=""fixation"">+</div>","null","","","memory","exp","16","","","","","","","","","","","",""
"html-keyboard-response","247","514181","0.0-5.0-5.0-2.16","6984a9246122d3bd4ca0833e","not_provided","desktop","0","0","0","","","","","","working_memory","","null","<div class=""fixation"">+</div>","null","","","","","","","","","","","","","","","","",""
"html-keyboard-response","248","515281","0.0-5.0-5.0-3.16","6984a9246122d3bd4ca0833e","not_provided","desktop","0","0","0","","","","","","working_memory","","1099","<img class='h' src=images/squares/black.png><div class=""fixation"">+</div>","s","","","test_squares","exp","16","4","s","true","sk","s","","","","","","",""
"html-keyboard-response","249","515793","0.0-5.0-5.0-4.16","6984a9246122d3bd4ca0833e","not_provided","desktop","0","0","0","","","","","","working_memory","","null","<div class=""fixation"">Correct</div>","null","","","","","","","","","","","","","","","","",""
"html-keyboard-response","250","516801","0.0-5.0-5.0-0.17","6984a9246122d3bd4ca0833e","not_provided","desktop","0","0","0","","","","","","working_memory","","null","<div class=""fixation"">+</div>","null","","","","","","","","","","","","","","","","",""
"html-keyboard-response","251","517015","0.0-5.0-5.0-1.17","6984a9246122d3bd4ca0833e","not_provided","desktop","0","0","0","","","","","","working_memory","","null","<img class='c' src=images/squares/black.png><img class='f' src=images/squares/yellow.png><img class='g' src=images/squares/red.png><img class='l' src=images/squares/cyan.png><div class=""fixation"">+</div>","null","","","memory","exp","17","","","","","","","","","","","",""
"html-keyboard-response","252","517924","0.0-5.0-5.0-2.17","6984a9246122d3bd4ca0833e","not_provided","desktop","0","0","0","","","","","","working_memory","","null","<div class=""fixation"">+</div>","null","","","","","","","","","","","","","","","","",""
"html-keyboard-response","253","519354","0.0-5.0-5.0-3.17","6984a9246122d3bd4ca0833e","not_provided","desktop","0","0","0","","","","","","working_memory","","1429","<img class='g' src=images/squares/red.png><div class=""fixation"">+</div>","s","","","test_squares","exp","17","4","s","true","sk","s","","","","","","",""
"html-keyboard-response","254","519867","0.0-5.0-5.0-4.17","6984a9246122d3bd4ca0833e","not_provided","desktop","0","0","0","","","","","","working_memory","","null","<div class=""fixation"">Correct</div>","null","","","","","","","","","","","","","","","","",""
"html-keyboard-response","255","520883","0.0-5.0-5.0-0.18","6984a9246122d3bd4ca0833e","not_provided","desktop","0","0","0","","","","","","working_memory","","null","<div class=""fixation"">+</div>","null","","","","","","","","","","","","","","","","",""
"html-keyboard-response","256","521090","0.0-5.0-5.0-1.18","6984a9246122d3bd4ca0833e","not_provided","desktop","0","0","0","","","","","","working_memory","","null","<img class='c' src=images/squares/yellow.png><img class='d' src=images/squares/red.png><img class='h' src=images/squares/brown.png><img class='l' src=images/squares/orange.png><div class=""fixation"">+</div>","null","","","memory","exp","18","","","","","","","","","","","",""
"html-keyboard-response","257","522000","0.0-5.0-5.0-2.18","6984a9246122d3bd4ca0833e","not_provided","desktop","0","0","0","","","","","","working_memory","","null","<div class=""fixation"">+</div>","null","","","","","","","","","","","","","","","","",""
"html-keyboard-response","258","523228","0.0-5.0-5.0-3.18","6984a9246122d3bd4ca0833e","not_provided","desktop","0","0","0","","","","","","working_memory","","1226","<img class='d' src=images/squares/green.png><div class=""fixation"">+</div>","k","","","test_squares","exp","18","4","k","true","sk","d","","","","","","",""
"html-keyboard-response","259","523731","0.0-5.0-5.0-4.18","6984a9246122d3bd4ca0833e","not_provided","desktop","0","0","0","","","","","","working_memory","","null","<div class=""fixation"">Correct</div>","null","","","","","","","","","","","","","","","","",""
"html-keyboard-response","260","524737","0.0-5.0-5.0-0.19","6984a9246122d3bd4ca0833e","not_provided","desktop","0","0","0","","","","","","working_memory","","null","<div class=""fixation"">+</div>","null","","","","","","","","","","","","","","","","",""
"html-keyboard-response","261","524961","0.0-5.0-5.0-1.19","6984a9246122d3bd4ca0833e","not_provided","desktop","0","0","0","","","","","","working_memory","","null","<img class='b' src=images/squares/blue.png><img class='a' src=images/squares/cyan.png><img class='e' src=images/squares/orange.png><img class='d' src=images/squares/green.png><img class='h' src=images/squares/red.png><img class='g' src=images/squares/brown.png><img class='k' src=images/squares/magenta.png><img class='l' src=images/squares/yellow.png><div class=""fixation"">+</div>","null","","","memory","exp","19","","","","","","","","","","","",""
"html-keyboard-response","262","525864","0.0-5.0-5.0-2.19","6984a9246122d3bd4ca0833e","not_provided","desktop","0","0","0","","","","","","working_memory","","null","<div class=""fixation"">+</div>","null","","","","","","","","","","","","","","","","",""
"html-keyboard-response","263","527111","0.0-5.0-5.0-3.19","6984a9246122d3bd4ca0833e","not_provided","desktop","0","0","0","","","","","","working_memory","","1246","<img class='l' src=images/squares/yellow.png><div class=""fixation"">+</div>","s","","","test_squares","exp","19","8","s","true","sk","s","","","","","","",""
"html-keyboard-response","264","527617","0.0-5.0-5.0-4.19","6984a9246122d3bd4ca0833e","not_provided","desktop","0","0","0","","","","","","working_memory","","null","<div class=""fixation"">Correct</div>","null","","","","","","","","","","","","","","","","",""
"html-keyboard-response","265","528634","0.0-5.0-5.0-0.20","6984a9246122d3bd4ca0833e","not_provided","desktop","0","0","0","","","","","","working_memory","","null","<div class=""fixation"">+</div>","null","","","","","","","","","","","","","","","","",""
"html-keyboard-response","266","528838","0.0-5.0-5.0-1.20","6984a9246122d3bd4ca0833e","not_provided","desktop","0","0","0","","","","","","working_memory","","null","<img class='a' src=images/squares/brown.png><img class='f' src=images/squares/green.png><img class='g' src=images/squares/red.png><img class='k' src=images/squares/orange.png><div class=""fixation"">+</div>","null","","","memory","exp","20","","","","","","","","","","","",""
"html-keyboard-response","267","529742","0.0-5.0-5.0-2.20","6984a9246122d3bd4ca0833e","not_provided","desktop","0","0","0","","","","","","working_memory","","null","<div class=""fixation"">+</div>","null","","","","","","","","","","","","","","","","",""
"html-keyboard-response","268","530969","0.0-5.0-5.0-3.20","6984a9246122d3bd4ca0833e","not_provided","desktop","0","0","0","","","","","","working_memory","","1226","<img class='f' src=images/squares/cyan.png><div class=""fixation"">+</div>","k","","","test_squares","exp","20","4","k","true","sk","d","","","","","","",""
"html-keyboard-response","269","531482","0.0-5.0-5.0-4.20","6984a9246122d3bd4ca0833e","not_provided","desktop","0","0","0","","","","","","working_memory","","null","<div class=""fixation"">Correct</div>","null","","","","","","","","","","","","","","","","",""
"html-keyboard-response","270","532498","0.0-5.0-5.0-0.21","6984a9246122d3bd4ca0833e","not_provided","desktop","0","0","0","","","","","","working_memory","","null","<div class=""fixation"">+</div>","null","","","","","","","","","","","","","","","","",""
"html-keyboard-response","271","532712","0.0-5.0-5.0-1.21","6984a9246122d3bd4ca0833e","not_provided","desktop","0","0","0","","","","","","working_memory","","null","<img class='a' src=images/squares/black.png><img class='f' src=images/squares/blue.png><img class='g' src=images/squares/orange.png><img class='k' src=images/squares/cyan.png><div class=""fixation"">+</div>","null","","","memory","exp","21","","","","","","","","","","","",""
"html-keyboard-response","272","533626","0.0-5.0-5.0-2.21","6984a9246122d3bd4ca0833e","not_provided","desktop","0","0","0","","","","","","working_memory","","null","<div class=""fixation"">+</div>","null","","","","","","","","","","","","","","","","",""
"html-keyboard-response","273","534548","0.0-5.0-5.0-3.21","6984a9246122d3bd4ca0833e","not_provided","desktop","0","0","0","","","","","","working_memory","","920","<img class='g' src=images/squares/orange.png><div class=""fixation"">+</div>","k","","","test_squares","exp","21","4","s","false","sk","s","","","","","","",""
"html-keyboard-response","274","535058","0.0-5.0-5.0-4.21","6984a9246122d3bd4ca0833e","not_provided","desktop","0","0","0","","","","","","working_memory","","null","<div class=""fixation"">Incorrect</div>","null","","","","","","","","","","","","","","","","",""
"html-keyboard-response","275","536069","0.0-5.0-5.0-0.22","6984a9246122d3bd4ca0833e","not_provided","desktop","0","0","0","","","","","","working_memory","","null","<div class=""fixation"">+</div>","null","","","","","","","","","","","","","","","","",""
"html-keyboard-response","276","536283","0.0-5.0-5.0-1.22","6984a9246122d3bd4ca0833e","not_provided","desktop","0","0","0","","","","","","working_memory","","null","<img class='a' src=images/squares/cyan.png><img class='d' src=images/squares/orange.png><img class='g' src=images/squares/black.png><img class='j' src=images/squares/blue.png><div class=""fixation"">+</div>","null","","","memory","exp","22","","","","","","","","","","","",""
"html-keyboard-response","277","537202","0.0-5.0-5.0-2.22","6984a9246122d3bd4ca0833e","not_provided","desktop","0","0","0","","","","","","working_memory","","null","<div class=""fixation"">+</div>","null","","","","","","","","","","","","","","","","",""
"html-keyboard-response","278","538063","0.0-5.0-5.0-3.22","6984a9246122d3bd4ca0833e","not_provided","desktop","0","0","0","","","","","","working_memory","","859","<img class='d' src=images/squares/orange.png><div class=""fixation"">+</div>","s","","","test_squares","exp","22","4","s","true","sk","s","","","","","","",""
"html-keyboard-response","279","538570","0.0-5.0-5.0-4.22","6984a9246122d3bd4ca0833e","not_provided","desktop","0","0","0","","","","","","working_memory","","null","<div class=""fixation"">Correct</div>","null","","","","","","","","","","","","","","","","",""
"html-keyboard-response","280","539577","0.0-5.0-5.0-0.23","6984a9246122d3bd4ca0833e","not_provided","desktop","0","0","0","","","","","","working_memory","","null","<div class=""fixation"">+</div>","null","","","","","","","","","","","","","","","","",""
"html-keyboard-response","281","539792","0.0-5.0-5.0-1.23","6984a9246122d3bd4ca0833e","not_provided","desktop","0","0","0","","","","","","working_memory","","null","<img class='b' src=images/squares/green.png><img class='f' src=images/squares/black.png><img class='i' src=images/squares/blue.png><img class='k' src=images/squares/orange.png><div class=""fixation"">+</div>","null","","","memory","exp","23","","","","","","","","","","","",""
"html-keyboard-response","282","540700","0.0-5.0-5.0-2.23","6984a9246122d3bd4ca0833e","not_provided","desktop","0","0","0","","","","","","working_memory","","null","<div class=""fixation"">+</div>","null","","","","","","","","","","","","","","","","",""
"html-keyboard-response","283","541722","0.0-5.0-5.0-3.23","6984a9246122d3bd4ca0833e","not_provided","desktop","0","0","0","","","","","","working_memory","","1021","<img class='i' src=images/squares/blue.png><div class=""fixation"">+</div>","k","","","test_squares","exp","23","4","s","false","sk","s","","","","","","",""
"html-keyboard-response","284","542226","0.0-5.0-5.0-4.23","6984a9246122d3bd4ca0833e","not_provided","desktop","0","0","0","","","","","","working_memory","","null","<div class=""fixation"">Incorrect</div>","null","","","","","","","","","","","","","","","","",""
"html-keyboard-response","285","543243","0.0-5.0-5.0-0.24","6984a9246122d3bd4ca0833e","not_provided","desktop","0","0","0","","","","","","working_memory","","null","<div class=""fixation"">+</div>","null","","","","","","","","","","","","","","","","",""
"html-keyboard-response","286","543448","0.0-5.0-5.0-1.24","6984a9246122d3bd4ca0833e","not_provided","desktop","0","0","0","","","","","","working_memory","","null","<img class='b' src=images/squares/orange.png><img class='a' src=images/squares/brown.png><img class='e' src=images/squares/cyan.png><img class='f' src=images/squares/green.png><img class='h' src=images/squares/red.png><img class='g' src=images/squares/blue.png><img class='j' src=images/squares/magenta.png><img class='l' src=images/squares/black.png><div class=""fixation"">+</div>","null","","","memory","exp","24","","","","","","","","","","","",""
"html-keyboard-response","287","544362","0.0-5.0-5.0-2.24","6984a9246122d3bd4ca0833e","not_provided","desktop","0","0","0","","","","","","working_memory","","null","<div class=""fixation"">+</div>","null","","","","","","","","","","","","","","","","",""
"html-keyboard-response","288","545325","0.0-5.0-5.0-3.24","6984a9246122d3bd4ca0833e","not_provided","desktop","0","0","0","","","","","","working_memory","","961","<img class='h' src=images/squares/red.png><div class=""fixation"">+</div>","k","","","test_squares","exp","24","8","s","false","sk","s","","","","","","",""
"html-keyboard-response","289","545832","0.0-5.0-5.0-4.24","6984a9246122d3bd4ca0833e","not_provided","desktop","0","0","0","","","","","","working_memory","","null","<div class=""fixation"">Incorrect</div>","null","","","","","","","","","","","","","","","","",""
"html-keyboard-response","290","546837","0.0-5.0-5.0-0.25","6984a9246122d3bd4ca0833e","not_provided","desktop","0","0","0","","","","","","working_memory","","null","<div class=""fixation"">+</div>","null","","","","","","","","","","","","","","","","",""
"html-keyboard-response","291","547054","0.0-5.0-5.0-1.25","6984a9246122d3bd4ca0833e","not_provided","desktop","0","0","0","","","","","","working_memory","","null","<img class='b' src=images/squares/brown.png><img class='c' src=images/squares/yellow.png><img class='f' src=images/squares/orange.png><img class='e' src=images/squares/green.png><img class='g' src=images/squares/blue.png><img class='h' src=images/squares/cyan.png><img class='j' src=images/squares/magenta.png><img class='k' src=images/squares/black.png><div class=""fixation"">+</div>","null","","","memory","exp","25","","","","","","","","","","","",""
"html-keyboard-response","292","547961","0.0-5.0-5.0-2.25","6984a9246122d3bd4ca0833e","not_provided","desktop","0","0","0","","","","","","working_memory","","null","<div class=""fixation"">+</div>","null","","","","","","","","","","","","","","","","",""
"html-keyboard-response","293","548872","0.0-5.0-5.0-3.25","6984a9246122d3bd4ca0833e","not_provided","desktop","0","0","0","","","","","","working_memory","","910","<img class='k' src=images/squares/black.png><div class=""fixation"">+</div>","s","","","test_squares","exp","25","8","s","true","sk","s","","","","","","",""
"html-keyboard-response","294","549389","0.0-5.0-5.0-4.25","6984a9246122d3bd4ca0833e","not_provided","desktop","0","0","0","","","","","","working_memory","","null","<div class=""fixation"">Correct</div>","null","","","","","","","","","","","","","","","","",""
"html-keyboard-response","295","550405","0.0-5.0-5.0-0.26","6984a9246122d3bd4ca0833e","not_provided","desktop","0","0","0","","","","","","working_memory","","null","<div class=""fixation"">+</div>","null","","","","","","","","","","","","","","","","",""
"html-keyboard-response","296","550611","0.0-5.0-5.0-1.26","6984a9246122d3bd4ca0833e","not_provided","desktop","0","0","0","","","","","","working_memory","","null","<img class='a' src=images/squares/blue.png><img class='f' src=images/squares/yellow.png><img class='h' src=images/squares/green.png><img class='k' src=images/squares/brown.png><div class=""fixation"">+</div>","null","","","memory","exp","26","","","","","","","","","","","",""
"html-keyboard-response","297","551517","0.0-5.0-5.0-2.26","6984a9246122d3bd4ca0833e","not_provided","desktop","0","0","0","","","","","","working_memory","","null","<div class=""fixation"">+</div>","null","","","","","","","","","","","","","","","","",""
"html-keyboard-response","298","552370","0.0-5.0-5.0-3.26","6984a9246122d3bd4ca0833e","not_provided","desktop","0","0","0","","","","","","working_memory","","852","<img class='a' src=images/squares/orange.png><div class=""fixation"">+</div>","k","","","test_squares","exp","26","4","k","true","sk","d","","","","","","",""
"html-keyboard-response","299","552878","0.0-5.0-5.0-4.26","6984a9246122d3bd4ca0833e","not_provided","desktop","0","0","0","","","","","","working_memory","","null","<div class=""fixation"">Correct</div>","null","","","","","","","","","","","","","","","","",""
"html-keyboard-response","300","553891","0.0-5.0-5.0-0.27","6984a9246122d3bd4ca0833e","not_provided","desktop","0","0","0","","","","","","working_memory","","null","<div class=""fixation"">+</div>","null","","","","","","","","","","","","","","","","",""
