"trial_type","trial_index","time_elapsed","internal_node_id","subject_id","study_id","device_type","blur_count","fullscreen_exit_count","failed_attention_checks","success","timeout","failed_images","failed_audio","failed_video","phase","value","rt","stimulus","response","view_history","question_order","trial_name","block_type","trial_num","set_size","correct_response","accuracy","mapping","condition","prompt","flipped","attention","expected_answer","category","question_index","task"
"pavlovia","0","1865","0.0-0.0","698341d57fe7b870bddf91b8","not_provided","desktop","0","0","0","","","","","","","","","","","","","","","","","","","","","","","","","","",""
"preload","1","2681","0.0-2.0","698341d57fe7b870bddf91b8","not_provided","desktop","0","0","0","true","false","[]","[]","[]","","","","","","","","","","","","","","","","","","","","","",""
"html-keyboard-response","2","13744","0.0-3.0-0.0","698341d57fe7b870bddf91b8","not_provided","desktop","0","0","0","","","","","","captcha","","","","","","","","","","","","","","","","","","","","",""
"fullscreen","3","25626","0.0-4.0","698341d57fe7b870bddf91b8","not_provided","desktop","0","0","0","true","","","","","setup","","","","","","","","","","","","","","","","","","","","",""
"call-function","4","25628","0.0-5.0-0.0","698341d57fe7b870bddf91b8","not_provided","desktop","0","0","0","","","","","","working_memory","","","","","","","","","","","","","","","","","","","","",""
"html-keyboard-response","5","56548","0.0-5.0-1.0","698341d57fe7b870bddf91b8","not_provided","desktop","0","0","0","","","","","","working_memory","","30919","<div style=""text-align:center;font-family:sans-serif;""><p>Welcome to the luck game experiment!</p><p>This two-day experiment takes part in a study aimed at developing better clinical treatments.</p><p>We appreciate your participation and require your full concentration.</p><br><p>This is a two-day study. Payment (£6/hour) is only given upon completing both parts today and tomorrow.</p><p>You must finish the second part for compensation. After today, you'll receive an invitation for tomorrow's session.</p><p>Please ensure you can attend both sessions before proceeding. Otherwise, you may exit now.</p><p>If you have any questions, please contact us via prolific.</p><br><p>Please stay attentive and in fullscreen mode to ensure payment.</p><p>Thank you for participating!</p><br><p id=""continue-prompt"" style=""visibility:hidden;""><b>Press any key to continue.</b></p></div>"," ","","","","","","","","","","","","","","","","",""
"instructions","6","147826","0.0-5.0-2.0-0.0","698341d57fe7b870bddf91b8","not_provided","desktop","0","0","0","","","","","","working_memory","","91278","","","[{""page_index"":0,""viewing_time"":13869},{""page_index"":1,""viewing_time"":2984},{""page_index"":2,""viewing_time"":12771},{""page_index"":3,""viewing_time"":8494},{""page_index"":4,""viewing_time"":10987},{""page_index"":5,""viewing_time"":13850},{""page_index"":6,""viewing_time"":18523},{""page_index"":7,""viewing_time"":2569},{""page_index"":8,""viewing_time"":7232}]","","","","","","","","","","","","","","","",""
"survey-multi-choice","7","275483","0.0-5.0-2.0-1.0","698341d57fe7b870bddf91b8","not_provided","desktop","0","0","0","","","","","","working_memory","","127654","","{""set_size"":""4 or 8"",""steps"":""True"",""choose_square"":""Press the 's' or 'k' key."",""remember"":""The colors and locations of the 'memory' squares"",""task"":""To tell if the 'test' square is in the same color as the square previously appearing in this location""}","","[0,1,2,3,4]","test_squares_quiz","","","","","","","","","","","","","",""
"html-keyboard-response","8","280912","0.0-5.0-3.0-0.0","698341d57fe7b870bddf91b8","not_provided","desktop","0","0","0","","","","","","working_memory","","5427","<p>We will now start some practice trials.<br><b>The practice trials will also include some trials in which you will need to remember only one square to make sure you understood the instructions.</b><br>You may already want to be ready with your fingers on '<b>s</b>' and '<b>k</b>'.<br><img class=""wm-example-img"" src=""images/examples/keyboard.png""><br><b style=""font-size:1.2em;"">&lsquo;S&rsquo; = SAME &nbsp;&nbsp;&nbsp; &lsquo;K&rsquo; = DIFFERENT</b><br><br><u>Please try to be as accurate as possible.</u><br><br><b>Press any key to begin</b></p>"," ","","","","","","","","","","","","","","","","",""
"html-keyboard-response","9","282927","0.0-5.0-3.0-1.0-0.0","698341d57fe7b870bddf91b8","not_provided","desktop","0","0","0","","","","","","working_memory","","null","<div class=""fixation"">+</div>","null","","","","","","","","","","","","","","","","",""
"html-keyboard-response","10","283133","0.0-5.0-3.0-1.0-1.0","698341d57fe7b870bddf91b8","not_provided","desktop","0","0","0","","","","","","working_memory","","null","<img class='upper3' src=images/squares/yellow.png><div class=""fixation"">+</div>","null","","","memory","practice","0","1","","","","","","","","","","",""
"html-keyboard-response","11","284040","0.0-5.0-3.0-1.0-2.0","698341d57fe7b870bddf91b8","not_provided","desktop","0","0","0","","","","","","working_memory","","null","<div class=""fixation"">+</div>","null","","","","","","","","","","","","","","","","",""
"html-keyboard-response","12","284738","0.0-5.0-3.0-1.0-3.0","698341d57fe7b870bddf91b8","not_provided","desktop","0","0","0","","","","","","working_memory","","697","<img class='upper3' src=images/squares/yellow.png><div class=""fixation"">+</div>","s","","","test","practice","0","1","s","true","","","","","","","","",""
"html-keyboard-response","13","285247","0.0-5.0-3.0-1.0-4.0","698341d57fe7b870bddf91b8","not_provided","desktop","0","0","0","","","","","","working_memory","","null","<div class=""fixation"">Correct</div>","null","","","","","","","","","","","","","","","","",""
"html-keyboard-response","14","286254","0.0-5.0-3.0-1.0-0.1","698341d57fe7b870bddf91b8","not_provided","desktop","0","0","0","","","","","","working_memory","","null","<div class=""fixation"">+</div>","null","","","","","","","","","","","","","","","","",""
"html-keyboard-response","15","286456","0.0-5.0-3.0-1.0-1.1","698341d57fe7b870bddf91b8","not_provided","desktop","0","0","0","","","","","","working_memory","","null","<img class='a' src=images/squares/green.png><img class='c' src=images/squares/blue.png><img class='e' src=images/squares/orange.png><img class='d' src=images/squares/magenta.png><img class='g' src=images/squares/brown.png><img class='i' src=images/squares/cyan.png><img class='k' src=images/squares/black.png><img class='l' src=images/squares/red.png><div class=""fixation"">+</div>","null","","","memory","practice","1","8","","","","","","","","","","",""
"html-keyboard-response","16","287367","0.0-5.0-3.0-1.0-2.1","698341d57fe7b870bddf91b8","not_provided","desktop","0","0","0","","","","","","working_memory","","null","<div class=""fixation"">+</div>","null","","","","","","","","","","","","","","","","",""
"html-keyboard-response","17","288285","0.0-5.0-3.0-1.0-3.1","698341d57fe7b870bddf91b8","not_provided","desktop","0","0","0","","","","","","working_memory","","918","<img class='i' src=images/squares/yellow.png><div class=""fixation"">+</div>","k","","","test","practice","1","8","k","true","","","","","","","","",""
"html-keyboard-response","18","288787","0.0-5.0-3.0-1.0-4.1","698341d57fe7b870bddf91b8","not_provided","desktop","0","0","0","","","","","","working_memory","","null","<div class=""fixation"">Correct</div>","null","","","","","","","","","","","","","","","","",""
"html-keyboard-response","19","289791","0.0-5.0-3.0-1.0-0.2","698341d57fe7b870bddf91b8","not_provided","desktop","0","0","0","","","","","","working_memory","","null","<div class=""fixation"">+</div>","null","","","","","","","","","","","","","","","","",""
"html-keyboard-response","20","289994","0.0-5.0-3.0-1.0-1.2","698341d57fe7b870bddf91b8","not_provided","desktop","0","0","0","","","","","","working_memory","","null","<img class='a' src=images/squares/blue.png><img class='b' src=images/squares/brown.png><img class='d' src=images/squares/black.png><img class='e' src=images/squares/yellow.png><img class='g' src=images/squares/cyan.png><img class='i' src=images/squares/green.png><img class='j' src=images/squares/magenta.png><img class='k' src=images/squares/orange.png><div class=""fixation"">+</div>","null","","","memory","practice","2","8","","","","","","","","","","",""
"html-keyboard-response","21","290904","0.0-5.0-3.0-1.0-2.2","698341d57fe7b870bddf91b8","not_provided","desktop","0","0","0","","","","","","working_memory","","null","<div class=""fixation"">+</div>","null","","","","","","","","","","","","","","","","",""
"html-keyboard-response","22","291678","0.0-5.0-3.0-1.0-3.2","698341d57fe7b870bddf91b8","not_provided","desktop","0","0","0","","","","","","working_memory","","773","<img class='g' src=images/squares/red.png><div class=""fixation"">+</div>","k","","","test","practice","2","8","k","true","","","","","","","","",""
"html-keyboard-response","23","292190","0.0-5.0-3.0-1.0-4.2","698341d57fe7b870bddf91b8","not_provided","desktop","0","0","0","","","","","","working_memory","","null","<div class=""fixation"">Correct</div>","null","","","","","","","","","","","","","","","","",""
"html-keyboard-response","24","293198","0.0-5.0-3.0-1.0-0.3","698341d57fe7b870bddf91b8","not_provided","desktop","0","0","0","","","","","","working_memory","","null","<div class=""fixation"">+</div>","null","","","","","","","","","","","","","","","","",""
"html-keyboard-response","25","293399","0.0-5.0-3.0-1.0-1.3","698341d57fe7b870bddf91b8","not_provided","desktop","0","0","0","","","","","","working_memory","","null","<img class='upper2' src=images/squares/orange.png><div class=""fixation"">+</div>","null","","","memory","practice","3","1","","","","","","","","","","",""
"html-keyboard-response","26","294309","0.0-5.0-3.0-1.0-2.3","698341d57fe7b870bddf91b8","not_provided","desktop","0","0","0","","","","","","working_memory","","null","<div class=""fixation"">+</div>","null","","","","","","","","","","","","","","","","",""
"html-keyboard-response","27","294897","0.0-5.0-3.0-1.0-3.3","698341d57fe7b870bddf91b8","not_provided","desktop","0","0","0","","","","","","working_memory","","587","<img class='upper2' src=images/squares/orange.png><div class=""fixation"">+</div>","s","","","test","practice","3","1","s","true","","","","","","","","",""
"html-keyboard-response","28","295399","0.0-5.0-3.0-1.0-4.3","698341d57fe7b870bddf91b8","not_provided","desktop","0","0","0","","","","","","working_memory","","null","<div class=""fixation"">Correct</div>","null","","","","","","","","","","","","","","","","",""
"html-keyboard-response","29","296409","0.0-5.0-3.0-1.0-0.4","698341d57fe7b870bddf91b8","not_provided","desktop","0","0","0","","","","","","working_memory","","null","<div class=""fixation"">+</div>","null","","","","","","","","","","","","","","","","",""
"html-keyboard-response","30","296612","0.0-5.0-3.0-1.0-1.4","698341d57fe7b870bddf91b8","not_provided","desktop","0","0","0","","","","","","working_memory","","null","<img class='a' src=images/squares/yellow.png><img class='c' src=images/squares/blue.png><img class='f' src=images/squares/green.png><img class='e' src=images/squares/magenta.png><img class='h' src=images/squares/red.png><img class='i' src=images/squares/orange.png><img class='l' src=images/squares/black.png><img class='j' src=images/squares/cyan.png><div class=""fixation"">+</div>","null","","","memory","practice","4","8","","","","","","","","","","",""
"html-keyboard-response","31","297524","0.0-5.0-3.0-1.0-2.4","698341d57fe7b870bddf91b8","not_provided","desktop","0","0","0","","","","","","working_memory","","null","<div class=""fixation"">+</div>","null","","","","","","","","","","","","","","","","",""
"html-keyboard-response","32","298603","0.0-5.0-3.0-1.0-3.4","698341d57fe7b870bddf91b8","not_provided","desktop","0","0","0","","","","","","working_memory","","1078","<img class='h' src=images/squares/red.png><div class=""fixation"">+</div>","k","","","test","practice","4","8","s","false","","","","","","","","",""
"html-keyboard-response","33","299114","0.0-5.0-3.0-1.0-4.4","698341d57fe7b870bddf91b8","not_provided","desktop","0","0","0","","","","","","working_memory","","null","<div class=""fixation"">Incorrect</div>","null","","","","","","","","","","","","","","","","",""
"html-keyboard-response","34","300125","0.0-5.0-3.0-1.0-0.5","698341d57fe7b870bddf91b8","not_provided","desktop","0","0","0","","","","","","working_memory","","null","<div class=""fixation"">+</div>","null","","","","","","","","","","","","","","","","",""
"html-keyboard-response","35","300327","0.0-5.0-3.0-1.0-1.5","698341d57fe7b870bddf91b8","not_provided","desktop","0","0","0","","","","","","working_memory","","null","<img class='b' src=images/squares/yellow.png><img class='c' src=images/squares/brown.png><img class='e' src=images/squares/red.png><img class='d' src=images/squares/blue.png><img class='i' src=images/squares/orange.png><img class='g' src=images/squares/magenta.png><img class='k' src=images/squares/cyan.png><img class='l' src=images/squares/black.png><div class=""fixation"">+</div>","null","","","memory","practice","5","8","","","","","","","","","","",""
"html-keyboard-response","36","301237","0.0-5.0-3.0-1.0-2.5","698341d57fe7b870bddf91b8","not_provided","desktop","0","0","0","","","","","","working_memory","","null","<div class=""fixation"">+</div>","null","","","","","","","","","","","","","","","","",""
"html-keyboard-response","37","302188","0.0-5.0-3.0-1.0-3.5","698341d57fe7b870bddf91b8","not_provided","desktop","0","0","0","","","","","","working_memory","","951","<img class='i' src=images/squares/orange.png><div class=""fixation"">+</div>","s","","","test","practice","5","8","s","true","","","","","","","","",""
"html-keyboard-response","38","302692","0.0-5.0-3.0-1.0-4.5","698341d57fe7b870bddf91b8","not_provided","desktop","0","0","0","","","","","","working_memory","","null","<div class=""fixation"">Correct</div>","null","","","","","","","","","","","","","","","","",""
"html-keyboard-response","39","303696","0.0-5.0-3.0-1.0-0.6","698341d57fe7b870bddf91b8","not_provided","desktop","0","0","0","","","","","","working_memory","","null","<div class=""fixation"">+</div>","null","","","","","","","","","","","","","","","","",""
"html-keyboard-response","40","303897","0.0-5.0-3.0-1.0-1.6","698341d57fe7b870bddf91b8","not_provided","desktop","0","0","0","","","","","","working_memory","","null","<img class='lower2' src=images/squares/magenta.png><div class=""fixation"">+</div>","null","","","memory","practice","6","1","","","","","","","","","","",""
"html-keyboard-response","41","304811","0.0-5.0-3.0-1.0-2.6","698341d57fe7b870bddf91b8","not_provided","desktop","0","0","0","","","","","","working_memory","","null","<div class=""fixation"">+</div>","null","","","","","","","","","","","","","","","","",""
"html-keyboard-response","42","305310","0.0-5.0-3.0-1.0-3.6","698341d57fe7b870bddf91b8","not_provided","desktop","0","0","0","","","","","","working_memory","","498","<img class='lower2' src=images/squares/magenta.png><div class=""fixation"">+</div>","s","","","test","practice","6","1","s","true","","","","","","","","",""
"html-keyboard-response","43","305813","0.0-5.0-3.0-1.0-4.6","698341d57fe7b870bddf91b8","not_provided","desktop","0","0","0","","","","","","working_memory","","null","<div class=""fixation"">Correct</div>","null","","","","","","","","","","","","","","","","",""
"html-keyboard-response","44","306816","0.0-5.0-3.0-1.0-0.7","698341d57fe7b870bddf91b8","not_provided","desktop","0","0","0","","","","","","working_memory","","null","<div class=""fixation"">+</div>","null","","","","","","","","","","","","","","","","",""
"html-keyboard-response","45","307018","0.0-5.0-3.0-1.0-1.7","698341d57fe7b870bddf91b8","not_provided","desktop","0","0","0","","","","","","working_memory","","null","<img class='a' src=images/squares/red.png><img class='d' src=images/squares/magenta.png><img class='h' src=images/squares/orange.png><img class='j' src=images/squares/blue.png><div class=""fixation"">+</div>","null","","","memory","practice","7","4","","","","","","","","","","",""
"html-keyboard-response","46","307930","0.0-5.0-3.0-1.0-2.7","698341d57fe7b870bddf91b8","not_provided","desktop","0","0","0","","","","","","working_memory","","null","<div class=""fixation"">+</div>","null","","","","","","","","","","","","","","","","",""
"html-keyboard-response","47","308952","0.0-5.0-3.0-1.0-3.7","698341d57fe7b870bddf91b8","not_provided","desktop","0","0","0","","","","","","working_memory","","1021","<img class='a' src=images/squares/yellow.png><div class=""fixation"">+</div>","k","","","test","practice","7","4","k","true","","","","","","","","",""
"html-keyboard-response","48","309457","0.0-5.0-3.0-1.0-4.7","698341d57fe7b870bddf91b8","not_provided","desktop","0","0","0","","","","","","working_memory","","null","<div class=""fixation"">Correct</div>","null","","","","","","","","","","","","","","","","",""
"html-keyboard-response","49","310463","0.0-5.0-3.0-1.0-0.8","698341d57fe7b870bddf91b8","not_provided","desktop","0","0","0","","","","","","working_memory","","null","<div class=""fixation"">+</div>","null","","","","","","","","","","","","","","","","",""
"html-keyboard-response","50","310665","0.0-5.0-3.0-1.0-1.8","698341d57fe7b870bddf91b8","not_provided","desktop","0","0","0","","","","","","working_memory","","null","<img class='b' src=images/squares/yellow.png><img class='c' src=images/squares/black.png><img class='e' src=images/squares/red.png><img class='f' src=images/squares/blue.png><img class='h' src=images/squares/orange.png><img class='i' src=images/squares/green.png><img class='l' src=images/squares/cyan.png><img class='j' src=images/squares/brown.png><div class=""fixation"">+</div>","null","","","memory","practice","8","8","","","","","","","","","","",""
"html-keyboard-response","51","311578","0.0-5.0-3.0-1.0-2.8","698341d57fe7b870bddf91b8","not_provided","desktop","0","0","0","","","","","","working_memory","","null","<div class=""fixation"">+</div>","null","","","","","","","","","","","","","","","","",""
"html-keyboard-response","52","312364","0.0-5.0-3.0-1.0-3.8","698341d57fe7b870bddf91b8","not_provided","desktop","0","0","0","","","","","","working_memory","","786","<img class='i' src=images/squares/green.png><div class=""fixation"">+</div>","s","","","test","practice","8","8","s","true","","","","","","","","",""
"html-keyboard-response","53","312877","0.0-5.0-3.0-1.0-4.8","698341d57fe7b870bddf91b8","not_provided","desktop","0","0","0","","","","","","working_memory","","null","<div class=""fixation"">Correct</div>","null","","","","","","","","","","","","","","","","",""
"html-keyboard-response","54","313881","0.0-5.0-3.0-1.0-0.9","698341d57fe7b870bddf91b8","not_provided","desktop","0","0","0","","","","","","working_memory","","null","<div class=""fixation"">+</div>","null","","","","","","","","","","","","","","","","",""
"html-keyboard-response","55","314083","0.0-5.0-3.0-1.0-1.9","698341d57fe7b870bddf91b8","not_provided","desktop","0","0","0","","","","","","working_memory","","null","<img class='c' src=images/squares/brown.png><img class='f' src=images/squares/orange.png><img class='g' src=images/squares/black.png><img class='j' src=images/squares/green.png><div class=""fixation"">+</div>","null","","","memory","practice","9","4","","","","","","","","","","",""
"html-keyboard-response","56","314999","0.0-5.0-3.0-1.0-2.9","698341d57fe7b870bddf91b8","not_provided","desktop","0","0","0","","","","","","working_memory","","null","<div class=""fixation"">+</div>","null","","","","","","","","","","","","","","","","",""
"html-keyboard-response","57","315972","0.0-5.0-3.0-1.0-3.9","698341d57fe7b870bddf91b8","not_provided","desktop","0","0","0","","","","","","working_memory","","972","<img class='f' src=images/squares/orange.png><div class=""fixation"">+</div>","s","","","test","practice","9","4","s","true","","","","","","","","",""
"html-keyboard-response","58","316487","0.0-5.0-3.0-1.0-4.9","698341d57fe7b870bddf91b8","not_provided","desktop","0","0","0","","","","","","working_memory","","null","<div class=""fixation"">Correct</div>","null","","","","","","","","","","","","","","","","",""
"html-keyboard-response","59","317489","0.0-5.0-3.0-1.0-0.10","698341d57fe7b870bddf91b8","not_provided","desktop","0","0","0","","","","","","working_memory","","null","<div class=""fixation"">+</div>","null","","","","","","","","","","","","","","","","",""
"html-keyboard-response","60","317691","0.0-5.0-3.0-1.0-1.10","698341d57fe7b870bddf91b8","not_provided","desktop","0","0","0","","","","","","working_memory","","null","<img class='a' src=images/squares/black.png><img class='b' src=images/squares/brown.png><img class='e' src=images/squares/yellow.png><img class='d' src=images/squares/red.png><img class='g' src=images/squares/cyan.png><img class='h' src=images/squares/orange.png><img class='k' src=images/squares/magenta.png><img class='j' src=images/squares/blue.png><div class=""fixation"">+</div>","null","","","memory","practice","10","8","","","","","","","","","","",""
"html-keyboard-response","61","318601","0.0-5.0-3.0-1.0-2.10","698341d57fe7b870bddf91b8","not_provided","desktop","0","0","0","","","","","","working_memory","","null","<div class=""fixation"">+</div>","null","","","","","","","","","","","","","","","","",""
"html-keyboard-response","62","319655","0.0-5.0-3.0-1.0-3.10","698341d57fe7b870bddf91b8","not_provided","desktop","0","0","0","","","","","","working_memory","","1053","<img class='a' src=images/squares/black.png><div class=""fixation"">+</div>","k","","","test","practice","10","8","s","false","","","","","","","","",""
"html-keyboard-response","63","320166","0.0-5.0-3.0-1.0-4.10","698341d57fe7b870bddf91b8","not_provided","desktop","0","0","0","","","","","","working_memory","","null","<div class=""fixation"">Incorrect</div>","null","","","","","","","","","","","","","","","","",""
"html-keyboard-response","64","321172","0.0-5.0-3.0-1.0-0.11","698341d57fe7b870bddf91b8","not_provided","desktop","0","0","0","","","","","","working_memory","","null","<div class=""fixation"">+</div>","null","","","","","","","","","","","","","","","","",""
"html-keyboard-response","65","321374","0.0-5.0-3.0-1.0-1.11","698341d57fe7b870bddf91b8","not_provided","desktop","0","0","0","","","","","","working_memory","","null","<img class='lower1' src=images/squares/cyan.png><div class=""fixation"">+</div>","null","","","memory","practice","11","1","","","","","","","","","","",""
"html-keyboard-response","66","322286","0.0-5.0-3.0-1.0-2.11","698341d57fe7b870bddf91b8","not_provided","desktop","0","0","0","","","","","","working_memory","","null","<div class=""fixation"">+</div>","null","","","","","","","","","","","","","","","","",""
"html-keyboard-response","67","322998","0.0-5.0-3.0-1.0-3.11","698341d57fe7b870bddf91b8","not_provided","desktop","0","0","0","","","","","","working_memory","","710","<img class='lower1' src=images/squares/cyan.png><div class=""fixation"">+</div>","s","","","test","practice","11","1","s","true","","","","","","","","",""
"html-keyboard-response","68","323508","0.0-5.0-3.0-1.0-4.11","698341d57fe7b870bddf91b8","not_provided","desktop","0","0","0","","","","","","working_memory","","null","<div class=""fixation"">Correct</div>","null","","","","","","","","","","","","","","","","",""
"html-keyboard-response","69","324513","0.0-5.0-3.0-1.0-0.12","698341d57fe7b870bddf91b8","not_provided","desktop","0","0","0","","","","","","working_memory","","null","<div class=""fixation"">+</div>","null","","","","","","","","","","","","","","","","",""
"html-keyboard-response","70","324715","0.0-5.0-3.0-1.0-1.12","698341d57fe7b870bddf91b8","not_provided","desktop","0","0","0","","","","","","working_memory","","null","<img class='a' src=images/squares/orange.png><img class='c' src=images/squares/magenta.png><img class='d' src=images/squares/blue.png><img class='f' src=images/squares/brown.png><img class='h' src=images/squares/cyan.png><img class='g' src=images/squares/black.png><img class='k' src=images/squares/yellow.png><img class='l' src=images/squares/red.png><div class=""fixation"">+</div>","null","","","memory","practice","12","8","","","","","","","","","","",""
"html-keyboard-response","71","325629","0.0-5.0-3.0-1.0-2.12","698341d57fe7b870bddf91b8","not_provided","desktop","0","0","0","","","","","","working_memory","","null","<div class=""fixation"">+</div>","null","","","","","","","","","","","","","","","","",""
"html-keyboard-response","72","326393","0.0-5.0-3.0-1.0-3.12","698341d57fe7b870bddf91b8","not_provided","desktop","0","0","0","","","","","","working_memory","","764","<img class='h' src=images/squares/cyan.png><div class=""fixation"">+</div>","s","","","test","practice","12","8","s","true","","","","","","","","",""
"html-keyboard-response","73","326900","0.0-5.0-3.0-1.0-4.12","698341d57fe7b870bddf91b8","not_provided","desktop","0","0","0","","","","","","working_memory","","null","<div class=""fixation"">Correct</div>","null","","","","","","","","","","","","","","","","",""
"html-keyboard-response","74","327905","0.0-5.0-3.0-1.0-0.13","698341d57fe7b870bddf91b8","not_provided","desktop","0","0","0","","","","","","working_memory","","null","<div class=""fixation"">+</div>","null","","","","","","","","","","","","","","","","",""
"html-keyboard-response","75","328108","0.0-5.0-3.0-1.0-1.13","698341d57fe7b870bddf91b8","not_provided","desktop","0","0","0","","","","","","working_memory","","null","<img class='b' src=images/squares/orange.png><img class='a' src=images/squares/black.png><img class='d' src=images/squares/brown.png><img class='f' src=images/squares/yellow.png><img class='h' src=images/squares/green.png><img class='i' src=images/squares/cyan.png><img class='l' src=images/squares/magenta.png><img class='k' src=images/squares/red.png><div class=""fixation"">+</div>","null","","","memory","practice","13","8","","","","","","","","","","",""
"html-keyboard-response","76","329020","0.0-5.0-3.0-1.0-2.13","698341d57fe7b870bddf91b8","not_provided","desktop","0","0","0","","","","","","working_memory","","null","<div class=""fixation"">+</div>","null","","","","","","","","","","","","","","","","",""
"html-keyboard-response","77","329777","0.0-5.0-3.0-1.0-3.13","698341d57fe7b870bddf91b8","not_provided","desktop","0","0","0","","","","","","working_memory","","756","<img class='b' src=images/squares/blue.png><div class=""fixation"">+</div>","k","","","test","practice","13","8","k","true","","","","","","","","",""
"html-keyboard-response","78","330289","0.0-5.0-3.0-1.0-4.13","698341d57fe7b870bddf91b8","not_provided","desktop","0","0","0","","","","","","working_memory","","null","<div class=""fixation"">Correct</div>","null","","","","","","","","","","","","","","","","",""
"html-keyboard-response","79","331296","0.0-5.0-3.0-1.0-0.14","698341d57fe7b870bddf91b8","not_provided","desktop","0","0","0","","","","","","working_memory","","null","<div class=""fixation"">+</div>","null","","","","","","","","","","","","","","","","",""
"html-keyboard-response","80","331497","0.0-5.0-3.0-1.0-1.14","698341d57fe7b870bddf91b8","not_provided","desktop","0","0","0","","","","","","working_memory","","null","<img class='lower3' src=images/squares/orange.png><div class=""fixation"">+</div>","null","","","memory","practice","14","1","","","","","","","","","","",""
"html-keyboard-response","81","332410","0.0-5.0-3.0-1.0-2.14","698341d57fe7b870bddf91b8","not_provided","desktop","0","0","0","","","","","","working_memory","","null","<div class=""fixation"">+</div>","null","","","","","","","","","","","","","","","","",""
"html-keyboard-response","82","332949","0.0-5.0-3.0-1.0-3.14","698341d57fe7b870bddf91b8","not_provided","desktop","0","0","0","","","","","","working_memory","","538","<img class='lower3' src=images/squares/orange.png><div class=""fixation"">+</div>","s","","","test","practice","14","1","s","true","","","","","","","","",""
"html-keyboard-response","83","333452","0.0-5.0-3.0-1.0-4.14","698341d57fe7b870bddf91b8","not_provided","desktop","0","0","0","","","","","","working_memory","","null","<div class=""fixation"">Correct</div>","null","","","","","","","","","","","","","","","","",""
"html-keyboard-response","84","345966","0.0-5.0-4.0","698341d57fe7b870bddf91b8","not_provided","desktop","0","0","0","","","","","","working_memory","","12513","<div style=""text-align:center;font-family:sans-serif;""><p>Good job! You have finished the practice.</p><p>We will now start the real experiment.</p><p>Please try to be as accurate as possible.</p><p><b><u>Note: random guessing may risk your payment.</u></b></p><br><p><b>Press any key to begin.</b></p></div>"," ","","","","","","","","","","","","","","","","",""
"html-keyboard-response","85","346968","0.0-5.0-5.0-0.0","698341d57fe7b870bddf91b8","not_provided","desktop","0","0","0","","","","","","working_memory","","null","<div class=""fixation"">+</div>","null","","","","","","","","","","","","","","","","",""
"html-keyboard-response","86","347170","0.0-5.0-5.0-1.0","698341d57fe7b870bddf91b8","not_provided","desktop","0","0","0","","","","","","working_memory","","null","<img class='c' src=images/squares/blue.png><img class='f' src=images/squares/yellow.png><img class='h' src=images/squares/brown.png><img class='j' src=images/squares/orange.png><div class=""fixation"">+</div>","null","","","memory","exp","0","","","","","","","","","","","",""
"html-keyboard-response","87","348083","0.0-5.0-5.0-2.0","698341d57fe7b870bddf91b8","not_provided","desktop","0","0","0","","","","","","working_memory","","null","<div class=""fixation"">+</div>","null","","","","","","","","","","","","","","","","",""
"html-keyboard-response","88","348959","0.0-5.0-5.0-3.0","698341d57fe7b870bddf91b8","not_provided","desktop","0","0","0","","","","","","working_memory","","875","<img class='f' src=images/squares/yellow.png><div class=""fixation"">+</div>","s","","","test_squares","exp","0","4","s","true","sk","s","","","","","","",""
"html-keyboard-response","89","349464","0.0-5.0-5.0-4.0","698341d57fe7b870bddf91b8","not_provided","desktop","0","0","0","","","","","","working_memory","","null","<div class=""fixation"">Correct</div>","null","","","","","","","","","","","","","","","","",""
"html-keyboard-response","90","350476","0.0-5.0-5.0-0.1","698341d57fe7b870bddf91b8","not_provided","desktop","0","0","0","","","","","","working_memory","","null","<div class=""fixation"">+</div>","null","","","","","","","","","","","","","","","","",""
"html-keyboard-response","91","350678","0.0-5.0-5.0-1.1","698341d57fe7b870bddf91b8","not_provided","desktop","0","0","0","","","","","","working_memory","","null","<img class='b' src=images/squares/green.png><img class='f' src=images/squares/brown.png><img class='h' src=images/squares/magenta.png><img class='j' src=images/squares/red.png><div class=""fixation"">+</div>","null","","","memory","exp","1","","","","","","","","","","","",""
"html-keyboard-response","92","351584","0.0-5.0-5.0-2.1","698341d57fe7b870bddf91b8","not_provided","desktop","0","0","0","","","","","","working_memory","","null","<div class=""fixation"">+</div>","null","","","","","","","","","","","","","","","","",""
"html-keyboard-response","93","352527","0.0-5.0-5.0-3.1","698341d57fe7b870bddf91b8","not_provided","desktop","0","0","0","","","","","","working_memory","","942","<img class='b' src=images/squares/green.png><div class=""fixation"">+</div>","k","","","test_squares","exp","1","4","s","false","sk","s","","","","","","",""
"html-keyboard-response","94","353043","0.0-5.0-5.0-4.1","698341d57fe7b870bddf91b8","not_provided","desktop","0","0","0","","","","","","working_memory","","null","<div class=""fixation"">Incorrect</div>","null","","","","","","","","","","","","","","","","",""
"html-keyboard-response","95","354049","0.0-5.0-5.0-0.2","698341d57fe7b870bddf91b8","not_provided","desktop","0","0","0","","","","","","working_memory","","null","<div class=""fixation"">+</div>","null","","","","","","","","","","","","","","","","",""
"html-keyboard-response","96","354252","0.0-5.0-5.0-1.2","698341d57fe7b870bddf91b8","not_provided","desktop","0","0","0","","","","","","working_memory","","null","<img class='b' src=images/squares/cyan.png><img class='c' src=images/squares/black.png><img class='d' src=images/squares/brown.png><img class='f' src=images/squares/orange.png><img class='i' src=images/squares/blue.png><img class='g' src=images/squares/red.png><img class='l' src=images/squares/magenta.png><img class='k' src=images/squares/green.png><div class=""fixation"">+</div>","null","","","memory","exp","2","","","","","","","","","","","",""
"html-keyboard-response","97","355162","0.0-5.0-5.0-2.2","698341d57fe7b870bddf91b8","not_provided","desktop","0","0","0","","","","","","working_memory","","null","<div class=""fixation"">+</div>","null","","","","","","","","","","","","","","","","",""
"html-keyboard-response","98","355824","0.0-5.0-5.0-3.2","698341d57fe7b870bddf91b8","not_provided","desktop","0","0","0","","","","","","working_memory","","661","<img class='i' src=images/squares/blue.png><div class=""fixation"">+</div>","s","","","test_squares","exp","2","8","s","true","sk","s","","","","","","",""
"html-keyboard-response","99","356339","0.0-5.0-5.0-4.2","698341d57fe7b870bddf91b8","not_provided","desktop","0","0","0","","","","","","working_memory","","null","<div class=""fixation"">Correct</div>","null","","","","","","","","","","","","","","","","",""
"html-keyboard-response","100","357343","0.0-5.0-5.0-0.3","698341d57fe7b870bddf91b8","not_provided","desktop","0","0","0","","","","","","working_memory","","null","<div class=""fixation"">+</div>","null","","","","","","","","","","","","","","","","",""
"html-keyboard-response","101","357546","0.0-5.0-5.0-1.3","698341d57fe7b870bddf91b8","not_provided","desktop","0","0","0","","","","","","working_memory","","null","<img class='a' src=images/squares/orange.png><img class='f' src=images/squares/brown.png><img class='i' src=images/squares/red.png><img class='l' src=images/squares/green.png><div class=""fixation"">+</div>","null","","","memory","exp","3","","","","","","","","","","","",""
"html-keyboard-response","102","358458","0.0-5.0-5.0-2.3","698341d57fe7b870bddf91b8","not_provided","desktop","0","0","0","","","","","","working_memory","","null","<div class=""fixation"">+</div>","null","","","","","","","","","","","","","","","","",""
"html-keyboard-response","103","360868","0.0-5.0-5.0-3.3","698341d57fe7b870bddf91b8","not_provided","desktop","0","0","0","","","","","","working_memory","","2409","<img class='l' src=images/squares/green.png><div class=""fixation"">+</div>","s","","","test_squares","exp","3","4","s","true","sk","s","","","","","","",""
"html-keyboard-response","104","361373","0.0-5.0-5.0-4.3","698341d57fe7b870bddf91b8","not_provided","desktop","0","0","0","","","","","","working_memory","","null","<div class=""fixation"">Correct</div>","null","","","","","","","","","","","","","","","","",""
"html-keyboard-response","105","362377","0.0-5.0-5.0-0.4","698341d57fe7b870bddf91b8","not_provided","desktop","0","0","0","","","","","","working_memory","","null","<div class=""fixation"">+</div>","null","","","","","","","","","","","","","","","","",""
"html-keyboard-response","106","362580","0.0-5.0-5.0-1.4","698341d57fe7b870bddf91b8","not_provided","desktop","0","0","0","","","","","","working_memory","","null","<img class='b' src=images/squares/magenta.png><img class='c' src=images/squares/cyan.png><img class='e' src=images/squares/yellow.png><img class='d' src=images/squares/orange.png><img class='g' src=images/squares/green.png><img class='i' src=images/squares/blue.png><img class='j' src=images/squares/brown.png><img class='l' src=images/squares/red.png><div class=""fixation"">+</div>","null","","","memory","exp","4","","","","","","","","","","","",""
"html-keyboard-response","107","363485","0.0-5.0-5.0-2.4","698341d57fe7b870bddf91b8","not_provided","desktop","0","0","0","","","","","","working_memory","","null","<div class=""fixation"">+</div>","null","","","","","","","","","","","","","","","","",""
"html-keyboard-response","108","364163","0.0-5.0-5.0-3.4","698341d57fe7b870bddf91b8","not_provided","desktop","0","0","0","","","","","","working_memory","","678","<img class='b' src=images/squares/black.png><div class=""fixation"">+</div>","k","","","test_squares","exp","4","8","k","true","sk","d","","","","","","",""
"html-keyboard-response","109","364677","0.0-5.0-5.0-4.4","698341d57fe7b870bddf91b8","not_provided","desktop","0","0","0","","","","","","working_memory","","null","<div class=""fixation"">Correct</div>","null","","","","","","","","","","","","","","","","",""
"html-keyboard-response","110","365684","0.0-5.0-5.0-0.5","698341d57fe7b870bddf91b8","not_provided","desktop","0","0","0","","","","","","working_memory","","null","<div class=""fixation"">+</div>","null","","","","","","","","","","","","","","","","",""
"html-keyboard-response","111","365887","0.0-5.0-5.0-1.5","698341d57fe7b870bddf91b8","not_provided","desktop","0","0","0","","","","","","working_memory","","null","<img class='c' src=images/squares/red.png><img class='b' src=images/squares/yellow.png><img class='e' src=images/squares/green.png><img class='f' src=images/squares/cyan.png><img class='i' src=images/squares/black.png><img class='g' src=images/squares/orange.png><img class='k' src=images/squares/magenta.png><img class='j' src=images/squares/blue.png><div class=""fixation"">+</div>","null","","","memory","exp","5","","","","","","","","","","","",""
"html-keyboard-response","112","366799","0.0-5.0-5.0-2.5","698341d57fe7b870bddf91b8","not_provided","desktop","0","0","0","","","","","","working_memory","","null","<div class=""fixation"">+</div>","null","","","","","","","","","","","","","","","","",""
"html-keyboard-response","113","368456","0.0-5.0-5.0-3.5","698341d57fe7b870bddf91b8","not_provided","desktop","0","0","0","","","","","","working_memory","","1656","<img class='j' src=images/squares/blue.png><div class=""fixation"">+</div>","k","","","test_squares","exp","5","8","s","false","sk","s","","","","","","",""
"html-keyboard-response","114","368963","0.0-5.0-5.0-4.5","698341d57fe7b870bddf91b8","not_provided","desktop","0","0","0","","","","","","working_memory","","null","<div class=""fixation"">Incorrect</div>","null","","","","","","","","","","","","","","","","",""
"html-keyboard-response","115","369971","0.0-5.0-5.0-0.6","698341d57fe7b870bddf91b8","not_provided","desktop","0","0","0","","","","","","working_memory","","null","<div class=""fixation"">+</div>","null","","","","","","","","","","","","","","","","",""
"html-keyboard-response","116","370172","0.0-5.0-5.0-1.6","698341d57fe7b870bddf91b8","not_provided","desktop","0","0","0","","","","","","working_memory","","null","<img class='c' src=images/squares/yellow.png><img class='a' src=images/squares/cyan.png><img class='e' src=images/squares/black.png><img class='f' src=images/squares/orange.png><img class='h' src=images/squares/green.png><img class='g' src=images/squares/red.png><img class='k' src=images/squares/brown.png><img class='j' src=images/squares/blue.png><div class=""fixation"">+</div>","null","","","memory","exp","6","","","","","","","","","","","",""
"html-keyboard-response","117","371085","0.0-5.0-5.0-2.6","698341d57fe7b870bddf91b8","not_provided","desktop","0","0","0","","","","","","working_memory","","null","<div class=""fixation"">+</div>","null","","","","","","","","","","","","","","","","",""
"html-keyboard-response","118","372061","0.0-5.0-5.0-3.6","698341d57fe7b870bddf91b8","not_provided","desktop","0","0","0","","","","","","working_memory","","975","<img class='f' src=images/squares/orange.png><div class=""fixation"">+</div>","k","","","test_squares","exp","6","8","s","false","sk","s","","","","","","",""
"html-keyboard-response","119","372563","0.0-5.0-5.0-4.6","698341d57fe7b870bddf91b8","not_provided","desktop","0","0","0","","","","","","working_memory","","null","<div class=""fixation"">Incorrect</div>","null","","","","","","","","","","","","","","","","",""
"html-keyboard-response","120","373569","0.0-5.0-5.0-0.7","698341d57fe7b870bddf91b8","not_provided","desktop","0","0","0","","","","","","working_memory","","null","<div class=""fixation"">+</div>","null","","","","","","","","","","","","","","","","",""
"html-keyboard-response","121","373771","0.0-5.0-5.0-1.7","698341d57fe7b870bddf91b8","not_provided","desktop","0","0","0","","","","","","working_memory","","null","<img class='b' src=images/squares/blue.png><img class='d' src=images/squares/cyan.png><img class='g' src=images/squares/yellow.png><img class='k' src=images/squares/orange.png><div class=""fixation"">+</div>","null","","","memory","exp","7","","","","","","","","","","","",""
"html-keyboard-response","122","374682","0.0-5.0-5.0-2.7","698341d57fe7b870bddf91b8","not_provided","desktop","0","0","0","","","","","","working_memory","","null","<div class=""fixation"">+</div>","null","","","","","","","","","","","","","","","","",""
"html-keyboard-response","123","375609","0.0-5.0-5.0-3.7","698341d57fe7b870bddf91b8","not_provided","desktop","0","0","0","","","","","","working_memory","","926","<img class='g' src=images/squares/yellow.png><div class=""fixation"">+</div>","s","","","test_squares","exp","7","4","s","true","sk","s","","","","","","",""
"html-keyboard-response","124","376123","0.0-5.0-5.0-4.7","698341d57fe7b870bddf91b8","not_provided","desktop","0","0","0","","","","","","working_memory","","null","<div class=""fixation"">Correct</div>","null","","","","","","","","","","","","","","","","",""
"html-keyboard-response","125","377132","0.0-5.0-5.0-0.8","698341d57fe7b870bddf91b8","not_provided","desktop","0","0","0","","","","","","working_memory","","null","<div class=""fixation"">+</div>","null","","","","","","","","","","","","","","","","",""
"html-keyboard-response","126","377334","0.0-5.0-5.0-1.8","698341d57fe7b870bddf91b8","not_provided","desktop","0","0","0","","","","","","working_memory","","null","<img class='a' src=images/squares/cyan.png><img class='e' src=images/squares/red.png><img class='g' src=images/squares/blue.png><img class='l' src=images/squares/black.png><div class=""fixation"">+</div>","null","","","memory","exp","8","","","","","","","","","","","",""
"html-keyboard-response","127","378248","0.0-5.0-5.0-2.8","698341d57fe7b870bddf91b8","not_provided","desktop","0","0","0","","","","","","working_memory","","null","<div class=""fixation"">+</div>","null","","","","","","","","","","","","","","","","",""
"html-keyboard-response","128","378768","0.0-5.0-5.0-3.8","698341d57fe7b870bddf91b8","not_provided","desktop","0","0","0","","","","","","working_memory","","519","<img class='e' src=images/squares/red.png><div class=""fixation"">+</div>","s","","","test_squares","exp","8","4","s","true","sk","s","","","","","","",""
"html-keyboard-response","129","379271","0.0-5.0-5.0-4.8","698341d57fe7b870bddf91b8","not_provided","desktop","0","0","0","","","","","","working_memory","","null","<div class=""fixation"">Correct</div>","null","","","","","","","","","","","","","","","","",""
"html-keyboard-response","130","380278","0.0-5.0-5.0-0.9","698341d57fe7b870bddf91b8","not_provided","desktop","0","0","0","","","","","","working_memory","","null","<div class=""fixation"">+</div>","null","","","","","","","","","","","","","","","","",""
"html-keyboard-response","131","380480","0.0-5.0-5.0-1.9","698341d57fe7b870bddf91b8","not_provided","desktop","0","0","0","","","","","","working_memory","","null","<img class='a' src=images/squares/cyan.png><img class='b' src=images/squares/green.png><img class='e' src=images/squares/orange.png><img class='f' src=images/squares/red.png><img class='g' src=images/squares/blue.png><img class='i' src=images/squares/brown.png><img class='l' src=images/squares/magenta.png><img class='k' src=images/squares/black.png><div class=""fixation"">+</div>","null","","","memory","exp","9","","","","","","","","","","","",""
"html-keyboard-response","132","381394","0.0-5.0-5.0-2.9","698341d57fe7b870bddf91b8","not_provided","desktop","0","0","0","","","","","","working_memory","","null","<div class=""fixation"">+</div>","null","","","","","","","","","","","","","","","","",""
"html-keyboard-response","133","382033","0.0-5.0-5.0-3.9","698341d57fe7b870bddf91b8","not_provided","desktop","0","0","0","","","","","","working_memory","","639","<img class='f' src=images/squares/yellow.png><div class=""fixation"">+</div>","k","","","test_squares","exp","9","8","k","true","sk","d","","","","","","",""
"html-keyboard-response","134","382541","0.0-5.0-5.0-4.9","698341d57fe7b870bddf91b8","not_provided","desktop","0","0","0","","","","","","working_memory","","null","<div class=""fixation"">Correct</div>","null","","","","","","","","","","","","","","","","",""
"html-keyboard-response","135","383549","0.0-5.0-5.0-0.10","698341d57fe7b870bddf91b8","not_provided","desktop","0","0","0","","","","","","working_memory","","null","<div class=""fixation"">+</div>","null","","","","","","","","","","","","","","","","",""
"html-keyboard-response","136","383751","0.0-5.0-5.0-1.10","698341d57fe7b870bddf91b8","not_provided","desktop","0","0","0","","","","","","working_memory","","null","<img class='c' src=images/squares/black.png><img class='a' src=images/squares/magenta.png><img class='d' src=images/squares/yellow.png><img class='e' src=images/squares/cyan.png><img class='h' src=images/squares/orange.png><img class='g' src=images/squares/red.png><img class='l' src=images/squares/brown.png><img class='j' src=images/squares/blue.png><div class=""fixation"">+</div>","null","","","memory","exp","10","","","","","","","","","","","",""
"html-keyboard-response","137","384665","0.0-5.0-5.0-2.10","698341d57fe7b870bddf91b8","not_provided","desktop","0","0","0","","","","","","working_memory","","null","<div class=""fixation"">+</div>","null","","","","","","","","","","","","","","","","",""
"html-keyboard-response","138","385476","0.0-5.0-5.0-3.10","698341d57fe7b870bddf91b8","not_provided","desktop","0","0","0","","","","","","working_memory","","810","<img class='l' src=images/squares/brown.png><div class=""fixation"">+</div>","s","","","test_squares","exp","10","8","s","true","sk","s","","","","","","",""
"html-keyboard-response","139","385982","0.0-5.0-5.0-4.10","698341d57fe7b870bddf91b8","not_provided","desktop","0","0","0","","","","","","working_memory","","null","<div class=""fixation"">Correct</div>","null","","","","","","","","","","","","","","","","",""
"html-keyboard-response","140","386986","0.0-5.0-5.0-0.11","698341d57fe7b870bddf91b8","not_provided","desktop","0","0","0","","","","","","working_memory","","null","<div class=""fixation"">+</div>","null","","","","","","","","","","","","","","","","",""
"html-keyboard-response","141","387187","0.0-5.0-5.0-1.11","698341d57fe7b870bddf91b8","not_provided","desktop","0","0","0","","","","","","working_memory","","null","<img class='a' src=images/squares/blue.png><img class='f' src=images/squares/orange.png><img class='h' src=images/squares/red.png><img class='k' src=images/squares/black.png><div class=""fixation"">+</div>","null","","","memory","exp","11","","","","","","","","","","","",""
"html-keyboard-response","142","388090","0.0-5.0-5.0-2.11","698341d57fe7b870bddf91b8","not_provided","desktop","0","0","0","","","","","","working_memory","","null","<div class=""fixation"">+</div>","null","","","","","","","","","","","","","","","","",""
"html-keyboard-response","143","389032","0.0-5.0-5.0-3.11","698341d57fe7b870bddf91b8","not_provided","desktop","0","0","0","","","","","","working_memory","","942","<img class='f' src=images/squares/orange.png><div class=""fixation"">+</div>","s","","","test_squares","exp","11","4","s","true","sk","s","","","","","","",""
"html-keyboard-response","144","389548","0.0-5.0-5.0-4.11","698341d57fe7b870bddf91b8","not_provided","desktop","0","0","0","","","","","","working_memory","","null","<div class=""fixation"">Correct</div>","null","","","","","","","","","","","","","","","","",""
"html-keyboard-response","145","390558","0.0-5.0-5.0-0.12","698341d57fe7b870bddf91b8","not_provided","desktop","0","0","0","","","","","","working_memory","","null","<div class=""fixation"">+</div>","null","","","","","","","","","","","","","","","","",""
"html-keyboard-response","146","390761","0.0-5.0-5.0-1.12","698341d57fe7b870bddf91b8","not_provided","desktop","0","0","0","","","","","","working_memory","","null","<img class='b' src=images/squares/green.png><img class='a' src=images/squares/red.png><img class='d' src=images/squares/cyan.png><img class='f' src=images/squares/black.png><img class='h' src=images/squares/brown.png><img class='g' src=images/squares/yellow.png><img class='l' src=images/squares/magenta.png><img class='j' src=images/squares/blue.png><div class=""fixation"">+</div>","null","","","memory","exp","12","","","","","","","","","","","",""
"html-keyboard-response","147","391674","0.0-5.0-5.0-2.12","698341d57fe7b870bddf91b8","not_provided","desktop","0","0","0","","","","","","working_memory","","null","<div class=""fixation"">+</div>","null","","","","","","","","","","","","","","","","",""
"html-keyboard-response","148","392419","0.0-5.0-5.0-3.12","698341d57fe7b870bddf91b8","not_provided","desktop","0","0","0","","","","","","working_memory","","745","<img class='b' src=images/squares/orange.png><div class=""fixation"">+</div>","k","","","test_squares","exp","12","8","k","true","sk","d","","","","","","",""
"html-keyboard-response","149","392926","0.0-5.0-5.0-4.12","698341d57fe7b870bddf91b8","not_provided","desktop","0","0","0","","","","","","working_memory","","null","<div class=""fixation"">Correct</div>","null","","","","","","","","","","","","","","","","",""
"html-keyboard-response","150","393930","0.0-5.0-5.0-0.13","698341d57fe7b870bddf91b8","not_provided","desktop","0","0","0","","","","","","working_memory","","null","<div class=""fixation"">+</div>","null","","","","","","","","","","","","","","","","",""
"html-keyboard-response","151","394132","0.0-5.0-5.0-1.13","698341d57fe7b870bddf91b8","not_provided","desktop","0","0","0","","","","","","working_memory","","null","<img class='c' src=images/squares/green.png><img class='a' src=images/squares/red.png><img class='f' src=images/squares/black.png><img class='d' src=images/squares/orange.png><img class='g' src=images/squares/magenta.png><img class='i' src=images/squares/brown.png><img class='l' src=images/squares/blue.png><img class='j' src=images/squares/yellow.png><div class=""fixation"">+</div>","null","","","memory","exp","13","","","","","","","","","","","",""
"html-keyboard-response","152","395033","0.0-5.0-5.0-2.13","698341d57fe7b870bddf91b8","not_provided","desktop","0","0","0","","","","","","working_memory","","null","<div class=""fixation"">+</div>","null","","","","","","","","","","","","","","","","",""
"html-keyboard-response","153","395734","0.0-5.0-5.0-3.13","698341d57fe7b870bddf91b8","not_provided","desktop","0","0","0","","","","","","working_memory","","700","<img class='a' src=images/squares/red.png><div class=""fixation"">+</div>","k","","","test_squares","exp","13","8","s","false","sk","s","","","","","","",""
"html-keyboard-response","154","396241","0.0-5.0-5.0-4.13","698341d57fe7b870bddf91b8","not_provided","desktop","0","0","0","","","","","","working_memory","","null","<div class=""fixation"">Incorrect</div>","null","","","","","","","","","","","","","","","","",""
"html-keyboard-response","155","397246","0.0-5.0-5.0-0.14","698341d57fe7b870bddf91b8","not_provided","desktop","0","0","0","","","","","","working_memory","","null","<div class=""fixation"">+</div>","null","","","","","","","","","","","","","","","","",""
"html-keyboard-response","156","397448","0.0-5.0-5.0-1.14","698341d57fe7b870bddf91b8","not_provided","desktop","0","0","0","","","","","","working_memory","","null","<img class='c' src=images/squares/yellow.png><img class='b' src=images/squares/black.png><img class='f' src=images/squares/orange.png><img class='e' src=images/squares/blue.png><img class='h' src=images/squares/cyan.png><img class='i' src=images/squares/brown.png><img class='k' src=images/squares/magenta.png><img class='j' src=images/squares/red.png><div class=""fixation"">+</div>","null","","","memory","exp","14","","","","","","","","","","","",""
"html-keyboard-response","157","398358","0.0-5.0-5.0-2.14","698341d57fe7b870bddf91b8","not_provided","desktop","0","0","0","","","","","","working_memory","","null","<div class=""fixation"">+</div>","null","","","","","","","","","","","","","","","","",""
"html-keyboard-response","158","399413","0.0-5.0-5.0-3.14","698341d57fe7b870bddf91b8","not_provided","desktop","0","0","0","","","","","","working_memory","","1054","<img class='f' src=images/squares/green.png><div class=""fixation"">+</div>","k","","","test_squares","exp","14","8","k","true","sk","d","","","","","","",""
"html-keyboard-response","159","399921","0.0-5.0-5.0-4.14","698341d57fe7b870bddf91b8","not_provided","desktop","0","0","0","","","","","","working_memory","","null","<div class=""fixation"">Correct</div>","null","","","","","","","","","","","","","","","","",""
"html-keyboard-response","160","400926","0.0-5.0-5.0-0.15","698341d57fe7b870bddf91b8","not_provided","desktop","0","0","0","","","","","","working_memory","","null","<div class=""fixation"">+</div>","null","","","","","","","","","","","","","","","","",""
"html-keyboard-response","161","401127","0.0-5.0-5.0-1.15","698341d57fe7b870bddf91b8","not_provided","desktop","0","0","0","","","","","","working_memory","","null","<img class='c' src=images/squares/black.png><img class='e' src=images/squares/orange.png><img class='g' src=images/squares/brown.png><img class='j' src=images/squares/yellow.png><div class=""fixation"">+</div>","null","","","memory","exp","15","","","","","","","","","","","",""
"html-keyboard-response","162","402041","0.0-5.0-5.0-2.15","698341d57fe7b870bddf91b8","not_provided","desktop","0","0","0","","","","","","working_memory","","null","<div class=""fixation"">+</div>","null","","","","","","","","","","","","","","","","",""
"html-keyboard-response","163","403221","0.0-5.0-5.0-3.15","698341d57fe7b870bddf91b8","not_provided","desktop","0","0","0","","","","","","working_memory","","1178","<img class='g' src=images/squares/brown.png><div class=""fixation"">+</div>","s","","","test_squares","exp","15","4","s","true","sk","s","","","","","","",""
"html-keyboard-response","164","403734","0.0-5.0-5.0-4.15","698341d57fe7b870bddf91b8","not_provided","desktop","0","0","0","","","","","","working_memory","","null","<div class=""fixation"">Correct</div>","null","","","","","","","","","","","","","","","","",""
"html-keyboard-response","165","404742","0.0-5.0-5.0-0.16","698341d57fe7b870bddf91b8","not_provided","desktop","0","0","0","","","","","","working_memory","","null","<div class=""fixation"">+</div>","null","","","","","","","","","","","","","","","","",""
"html-keyboard-response","166","404943","0.0-5.0-5.0-1.16","698341d57fe7b870bddf91b8","not_provided","desktop","0","0","0","","","","","","working_memory","","null","<img class='a' src=images/squares/blue.png><img class='d' src=images/squares/green.png><img class='i' src=images/squares/black.png><img class='l' src=images/squares/yellow.png><div class=""fixation"">+</div>","null","","","memory","exp","16","","","","","","","","","","","",""
"html-keyboard-response","167","405856","0.0-5.0-5.0-2.16","698341d57fe7b870bddf91b8","not_provided","desktop","0","0","0","","","","","","working_memory","","null","<div class=""fixation"">+</div>","null","","","","","","","","","","","","","","","","",""
"html-keyboard-response","168","406538","0.0-5.0-5.0-3.16","698341d57fe7b870bddf91b8","not_provided","desktop","0","0","0","","","","","","working_memory","","681","<img class='d' src=images/squares/green.png><div class=""fixation"">+</div>","s","","","test_squares","exp","16","4","s","true","sk","s","","","","","","",""
"html-keyboard-response","169","407049","0.0-5.0-5.0-4.16","698341d57fe7b870bddf91b8","not_provided","desktop","0","0","0","","","","","","working_memory","","null","<div class=""fixation"">Correct</div>","null","","","","","","","","","","","","","","","","",""
"html-keyboard-response","170","408055","0.0-5.0-5.0-0.17","698341d57fe7b870bddf91b8","not_provided","desktop","0","0","0","","","","","","working_memory","","null","<div class=""fixation"">+</div>","null","","","","","","","","","","","","","","","","",""
"html-keyboard-response","171","408258","0.0-5.0-5.0-1.17","698341d57fe7b870bddf91b8","not_provided","desktop","0","0","0","","","","","","working_memory","","null","<img class='a' src=images/squares/cyan.png><img class='c' src=images/squares/brown.png><img class='d' src=images/squares/black.png><img class='e' src=images/squares/orange.png><img class='h' src=images/squares/yellow.png><img class='i' src=images/squares/magenta.png><img class='j' src=images/squares/red.png><img class='l' src=images/squares/blue.png><div class=""fixation"">+</div>","null","","","memory","exp","17","","","","","","","","","","","",""
"html-keyboard-response","172","409167","0.0-5.0-5.0-2.17","698341d57fe7b870bddf91b8","not_provided","desktop","0","0","0","","","","","","working_memory","","null","<div class=""fixation"">+</div>","null","","","","","","","","","","","","","","","","",""
"html-keyboard-response","173","409974","0.0-5.0-5.0-3.17","698341d57fe7b870bddf91b8","not_provided","desktop","0","0","0","","","","","","working_memory","","806","<img class='i' src=images/squares/green.png><div class=""fixation"">+</div>","k","","","test_squares","exp","17","8","k","true","sk","d","","","","","","",""
"html-keyboard-response","174","410482","0.0-5.0-5.0-4.17","698341d57fe7b870bddf91b8","not_provided","desktop","0","0","0","","","","","","working_memory","","null","<div class=""fixation"">Correct</div>","null","","","","","","","","","","","","","","","","",""
"html-keyboard-response","175","411490","0.0-5.0-5.0-0.18","698341d57fe7b870bddf91b8","not_provided","desktop","0","0","0","","","","","","working_memory","","null","<div class=""fixation"">+</div>","null","","","","","","","","","","","","","","","","",""
"html-keyboard-response","176","411693","0.0-5.0-5.0-1.18","698341d57fe7b870bddf91b8","not_provided","desktop","0","0","0","","","","","","working_memory","","null","<img class='a' src=images/squares/yellow.png><img class='c' src=images/squares/blue.png><img class='e' src=images/squares/green.png><img class='d' src=images/squares/magenta.png><img class='i' src=images/squares/red.png><img class='h' src=images/squares/brown.png><img class='k' src=images/squares/black.png><img class='l' src=images/squares/cyan.png><div class=""fixation"">+</div>","null","","","memory","exp","18","","","","","","","","","","","",""
"html-keyboard-response","177","412604","0.0-5.0-5.0-2.18","698341d57fe7b870bddf91b8","not_provided","desktop","0","0","0","","","","","","working_memory","","null","<div class=""fixation"">+</div>","null","","","","","","","","","","","","","","","","",""
"html-keyboard-response","178","414909","0.0-5.0-5.0-3.18","698341d57fe7b870bddf91b8","not_provided","desktop","0","0","0","","","","","","working_memory","","2304","<img class='h' src=images/squares/brown.png><div class=""fixation"">+</div>","s","","","test_squares","exp","18","8","s","true","sk","s","","","","","","",""
"html-keyboard-response","179","415423","0.0-5.0-5.0-4.18","698341d57fe7b870bddf91b8","not_provided","desktop","0","0","0","","","","","","working_memory","","null","<div class=""fixation"">Correct</div>","null","","","","","","","","","","","","","","","","",""
"html-keyboard-response","180","416432","0.0-5.0-5.0-0.19","698341d57fe7b870bddf91b8","not_provided","desktop","0","0","0","","","","","","working_memory","","null","<div class=""fixation"">+</div>","null","","","","","","","","","","","","","","","","",""
"html-keyboard-response","181","416634","0.0-5.0-5.0-1.19","698341d57fe7b870bddf91b8","not_provided","desktop","0","0","0","","","","","","working_memory","","null","<img class='a' src=images/squares/magenta.png><img class='e' src=images/squares/yellow.png><img class='i' src=images/squares/black.png><img class='j' src=images/squares/orange.png><div class=""fixation"">+</div>","null","","","memory","exp","19","","","","","","","","","","","",""
"html-keyboard-response","182","417547","0.0-5.0-5.0-2.19","698341d57fe7b870bddf91b8","not_provided","desktop","0","0","0","","","","","","working_memory","","null","<div class=""fixation"">+</div>","null","","","","","","","","","","","","","","","","",""
"html-keyboard-response","183","418450","0.0-5.0-5.0-3.19","698341d57fe7b870bddf91b8","not_provided","desktop","0","0","0","","","","","","working_memory","","902","<img class='a' src=images/squares/brown.png><div class=""fixation"">+</div>","s","","","test_squares","exp","19","4","k","false","sk","d","","","","","","",""
"html-keyboard-response","184","418955","0.0-5.0-5.0-4.19","698341d57fe7b870bddf91b8","not_provided","desktop","0","0","0","","","","","","working_memory","","null","<div class=""fixation"">Incorrect</div>","null","","","","","","","","","","","","","","","","",""
"html-keyboard-response","185","419962","0.0-5.0-5.0-0.20","698341d57fe7b870bddf91b8","not_provided","desktop","0","0","0","","","","","","working_memory","","null","<div class=""fixation"">+</div>","null","","","","","","","","","","","","","","","","",""
"html-keyboard-response","186","420164","0.0-5.0-5.0-1.20","698341d57fe7b870bddf91b8","not_provided","desktop","0","0","0","","","","","","working_memory","","null","<img class='c' src=images/squares/magenta.png><img class='a' src=images/squares/black.png><img class='d' src=images/squares/orange.png><img class='e' src=images/squares/blue.png><img class='h' src=images/squares/brown.png><img class='g' src=images/squares/cyan.png><img class='l' src=images/squares/red.png><img class='k' src=images/squares/green.png><div class=""fixation"">+</div>","null","","","memory","exp","20","","","","","","","","","","","",""
"html-keyboard-response","187","421076","0.0-5.0-5.0-2.20","698341d57fe7b870bddf91b8","not_provided","desktop","0","0","0","","","","","","working_memory","","null","<div class=""fixation"">+</div>","null","","","","","","","","","","","","","","","","",""
"html-keyboard-response","188","421859","0.0-5.0-5.0-3.20","698341d57fe7b870bddf91b8","not_provided","desktop","0","0","0","","","","","","working_memory","","782","<img class='e' src=images/squares/yellow.png><div class=""fixation"">+</div>","k","","","test_squares","exp","20","8","k","true","sk","d","","","","","","",""
"html-keyboard-response","189","422372","0.0-5.0-5.0-4.20","698341d57fe7b870bddf91b8","not_provided","desktop","0","0","0","","","","","","working_memory","","null","<div class=""fixation"">Correct</div>","null","","","","","","","","","","","","","","","","",""
"html-keyboard-response","190","423377","0.0-5.0-5.0-0.21","698341d57fe7b870bddf91b8","not_provided","desktop","0","0","0","","","","","","working_memory","","null","<div class=""fixation"">+</div>","null","","","","","","","","","","","","","","","","",""
"html-keyboard-response","191","423579","0.0-5.0-5.0-1.21","698341d57fe7b870bddf91b8","not_provided","desktop","0","0","0","","","","","","working_memory","","null","<img class='c' src=images/squares/yellow.png><img class='b' src=images/squares/blue.png><img class='f' src=images/squares/black.png><img class='d' src=images/squares/brown.png><img class='g' src=images/squares/magenta.png><img class='h' src=images/squares/green.png><img class='k' src=images/squares/red.png><img class='l' src=images/squares/cyan.png><div class=""fixation"">+</div>","null","","","memory","exp","21","","","","","","","","","","","",""
"html-keyboard-response","192","424493","0.0-5.0-5.0-2.21","698341d57fe7b870bddf91b8","not_provided","desktop","0","0","0","","","","","","working_memory","","null","<div class=""fixation"">+</div>","null","","","","","","","","","","","","","","","","",""
"html-keyboard-response","193","425254","0.0-5.0-5.0-3.21","698341d57fe7b870bddf91b8","not_provided","desktop","0","0","0","","","","","","working_memory","","759","<img class='k' src=images/squares/red.png><div class=""fixation"">+</div>","k","","","test_squares","exp","21","8","s","false","sk","s","","","","","","",""
"html-keyboard-response","194","425768","0.0-5.0-5.0-4.21","698341d57fe7b870bddf91b8","not_provided","desktop","0","0","0","","","","","","working_memory","","null","<div class=""fixation"">Incorrect</div>","null","","","","","","","","","","","","","","","","",""
"html-keyboard-response","195","426778","0.0-5.0-5.0-0.22","698341d57fe7b870bddf91b8","not_provided","desktop","0","0","0","","","","","","working_memory","","null","<div class=""fixation"">+</div>","null","","","","","","","","","","","","","","","","",""
"html-keyboard-response","196","426981","0.0-5.0-5.0-1.22","698341d57fe7b870bddf91b8","not_provided","desktop","0","0","0","","","","","","working_memory","","null","<img class='b' src=images/squares/green.png><img class='f' src=images/squares/red.png><img class='h' src=images/squares/cyan.png><img class='j' src=images/squares/black.png><div class=""fixation"">+</div>","null","","","memory","exp","22","","","","","","","","","","","",""
"html-keyboard-response","197","427893","0.0-5.0-5.0-2.22","698341d57fe7b870bddf91b8","not_provided","desktop","0","0","0","","","","","","working_memory","","null","<div class=""fixation"">+</div>","null","","","","","","","","","","","","","","","","",""
"html-keyboard-response","198","428758","0.0-5.0-5.0-3.22","698341d57fe7b870bddf91b8","not_provided","desktop","0","0","0","","","","","","working_memory","","864","<img class='h' src=images/squares/cyan.png><div class=""fixation"">+</div>","s","","","test_squares","exp","22","4","s","true","sk","s","","","","","","",""
"html-keyboard-response","199","429272","0.0-5.0-5.0-4.22","698341d57fe7b870bddf91b8","not_provided","desktop","0","0","0","","","","","","working_memory","","null","<div class=""fixation"">Correct</div>","null","","","","","","","","","","","","","","","","",""
"html-keyboard-response","200","430282","0.0-5.0-5.0-0.23","698341d57fe7b870bddf91b8","not_provided","desktop","0","0","0","","","","","","working_memory","","null","<div class=""fixation"">+</div>","null","","","","","","","","","","","","","","","","",""
"html-keyboard-response","201","430483","0.0-5.0-5.0-1.23","698341d57fe7b870bddf91b8","not_provided","desktop","0","0","0","","","","","","working_memory","","null","<img class='c' src=images/squares/blue.png><img class='d' src=images/squares/red.png><img class='i' src=images/squares/cyan.png><img class='k' src=images/squares/orange.png><div class=""fixation"">+</div>","null","","","memory","exp","23","","","","","","","","","","","",""
"html-keyboard-response","202","431383","0.0-5.0-5.0-2.23","698341d57fe7b870bddf91b8","not_provided","desktop","0","0","0","","","","","","working_memory","","null","<div class=""fixation"">+</div>","null","","","","","","","","","","","","","","","","",""
"html-keyboard-response","203","432498","0.0-5.0-5.0-3.23","698341d57fe7b870bddf91b8","not_provided","desktop","0","0","0","","","","","","working_memory","","1114","<img class='k' src=images/squares/orange.png><div class=""fixation"">+</div>","k","","","test_squares","exp","23","4","s","false","sk","s","","","","","","",""
"html-keyboard-response","204","433003","0.0-5.0-5.0-4.23","698341d57fe7b870bddf91b8","not_provided","desktop","0","0","0","","","","","","working_memory","","null","<div class=""fixation"">Incorrect</div>","null","","","","","","","","","","","","","","","","",""
"html-keyboard-response","205","434007","0.0-5.0-5.0-0.24","698341d57fe7b870bddf91b8","not_provided","desktop","0","0","0","","","","","","working_memory","","null","<div class=""fixation"">+</div>","null","","","","","","","","","","","","","","","","",""
"html-keyboard-response","206","434209","0.0-5.0-5.0-1.24","698341d57fe7b870bddf91b8","not_provided","desktop","0","0","0","","","","","","working_memory","","null","<img class='a' src=images/squares/yellow.png><img class='b' src=images/squares/magenta.png><img class='f' src=images/squares/black.png><img class='e' src=images/squares/blue.png><img class='h' src=images/squares/red.png><img class='g' src=images/squares/cyan.png><img class='k' src=images/squares/green.png><img class='j' src=images/squares/orange.png><div class=""fixation"">+</div>","null","","","memory","exp","24","","","","","","","","","","","",""
"html-keyboard-response","207","435112","0.0-5.0-5.0-2.24","698341d57fe7b870bddf91b8","not_provided","desktop","0","0","0","","","","","","working_memory","","null","<div class=""fixation"">+</div>","null","","","","","","","","","","","","","","","","",""
"html-keyboard-response","208","436084","0.0-5.0-5.0-3.24","698341d57fe7b870bddf91b8","not_provided","desktop","0","0","0","","","","","","working_memory","","971","<img class='a' src=images/squares/yellow.png><div class=""fixation"">+</div>","k","","","test_squares","exp","24","8","s","false","sk","s","","","","","","",""
"html-keyboard-response","209","436596","0.0-5.0-5.0-4.24","698341d57fe7b870bddf91b8","not_provided","desktop","0","0","0","","","","","","working_memory","","null","<div class=""fixation"">Incorrect</div>","null","","","","","","","","","","","","","","","","",""
"html-keyboard-response","210","437602","0.0-5.0-5.0-0.25","698341d57fe7b870bddf91b8","not_provided","desktop","0","0","0","","","","","","working_memory","","null","<div class=""fixation"">+</div>","null","","","","","","","","","","","","","","","","",""
"html-keyboard-response","211","437803","0.0-5.0-5.0-1.25","698341d57fe7b870bddf91b8","not_provided","desktop","0","0","0","","","","","","working_memory","","null","<img class='c' src=images/squares/black.png><img class='d' src=images/squares/brown.png><img class='i' src=images/squares/orange.png><img class='k' src=images/squares/magenta.png><div class=""fixation"">+</div>","null","","","memory","exp","25","","","","","","","","","","","",""
"html-keyboard-response","212","438716","0.0-5.0-5.0-2.25","698341d57fe7b870bddf91b8","not_provided","desktop","0","0","0","","","","","","working_memory","","null","<div class=""fixation"">+</div>","null","","","","","","","","","","","","","","","","",""
"html-keyboard-response","213","439367","0.0-5.0-5.0-3.25","698341d57fe7b870bddf91b8","not_provided","desktop","0","0","0","","","","","","working_memory","","651","<img class='i' src=images/squares/cyan.png><div class=""fixation"">+</div>","s","","","test_squares","exp","25","4","k","false","sk","d","","","","","","",""
"html-keyboard-response","214","439874","0.0-5.0-5.0-4.25","698341d57fe7b870bddf91b8","not_provided","desktop","0","0","0","","","","","","working_memory","","null","<div class=""fixation"">Incorrect</div>","null","","","","","","","","","","","","","","","","",""
"html-keyboard-response","215","440877","0.0-5.0-5.0-0.26","698341d57fe7b870bddf91b8","not_provided","desktop","0","0","0","","","","","","working_memory","","null","<div class=""fixation"">+</div>","null","","","","","","","","","","","","","","","","",""
"html-keyboard-response","216","441078","0.0-5.0-5.0-1.26","698341d57fe7b870bddf91b8","not_provided","desktop","0","0","0","","","","","","working_memory","","null","<img class='c' src=images/squares/blue.png><img class='b' src=images/squares/orange.png><img class='f' src=images/squares/magenta.png><img class='e' src=images/squares/brown.png><img class='h' src=images/squares/cyan.png><img class='g' src=images/squares/green.png><img class='l' src=images/squares/black.png><img class='k' src=images/squares/red.png><div class=""fixation"">+</div>","null","","","memory","exp","26","","","","","","","","","","","",""
"html-keyboard-response","217","441993","0.0-5.0-5.0-2.26","698341d57fe7b870bddf91b8","not_provided","desktop","0","0","0","","","","","","working_memory","","null","<div class=""fixation"">+</div>","null","","","","","","","","","","","","","","","","",""
"html-keyboard-response","218","442872","0.0-5.0-5.0-3.26","698341d57fe7b870bddf91b8","not_provided","desktop","0","0","0","","","","","","working_memory","","878","<img class='b' src=images/squares/yellow.png><div class=""fixation"">+</div>","k","","","test_squares","exp","26","8","k","true","sk","d","","","","","","",""
"html-keyboard-response","219","443385","0.0-5.0-5.0-4.26","698341d57fe7b870bddf91b8","not_provided","desktop","0","0","0","","","","","","working_memory","","null","<div class=""fixation"">Correct</div>","null","","","","","","","","","","","","","","","","",""
"html-keyboard-response","220","444394","0.0-5.0-5.0-0.27","698341d57fe7b870bddf91b8","not_provided","desktop","0","0","0","","","","","","working_memory","","null","<div class=""fixation"">+</div>","null","","","","","","","","","","","","","","","","",""
"html-keyboard-response","221","444596","0.0-5.0-5.0-1.27","698341d57fe7b870bddf91b8","not_provided","desktop","0","0","0","","","","","","working_memory","","null","<img class='c' src=images/squares/yellow.png><img class='b' src=images/squares/black.png><img class='f' src=images/squares/brown.png><img class='d' src=images/squares/red.png><img class='h' src=images/squares/magenta.png><img class='g' src=images/squares/green.png><img class='k' src=images/squares/blue.png><img class='l' src=images/squares/orange.png><div class=""fixation"">+</div>","null","","","memory","exp","27","","","","","","","","","","","",""
"html-keyboard-response","222","445512","0.0-5.0-5.0-2.27","698341d57fe7b870bddf91b8","not_provided","desktop","0","0","0","","","","","","working_memory","","null","<div class=""fixation"">+</div>","null","","","","","","","","","","","","","","","","",""
"html-keyboard-response","223","446266","0.0-5.0-5.0-3.27","698341d57fe7b870bddf91b8","not_provided","desktop","0","0","0","","","","","","working_memory","","753","<img class='h' src=images/squares/magenta.png><div class=""fixation"">+</div>","s","","","test_squares","exp","27","8","s","true","sk","s","","","","","","",""
"html-keyboard-response","224","446768","0.0-5.0-5.0-4.27","698341d57fe7b870bddf91b8","not_provided","desktop","0","0","0","","","","","","working_memory","","null","<div class=""fixation"">Correct</div>","null","","","","","","","","","","","","","","","","",""
"html-keyboard-response","225","447778","0.0-5.0-5.0-0.28","698341d57fe7b870bddf91b8","not_provided","desktop","0","0","0","","","","","","working_memory","","null","<div class=""fixation"">+</div>","null","","","","","","","","","","","","","","","","",""
"html-keyboard-response","226","447979","0.0-5.0-5.0-1.28","698341d57fe7b870bddf91b8","not_provided","desktop","0","0","0","","","","","","working_memory","","null","<img class='c' src=images/squares/orange.png><img class='a' src=images/squares/brown.png><img class='e' src=images/squares/red.png><img class='d' src=images/squares/magenta.png><img class='h' src=images/squares/yellow.png><img class='g' src=images/squares/cyan.png><img class='l' src=images/squares/green.png><img class='j' src=images/squares/black.png><div class=""fixation"">+</div>","null","","","memory","exp","28","","","","","","","","","","","",""
"html-keyboard-response","227","448893","0.0-5.0-5.0-2.28","698341d57fe7b870bddf91b8","not_provided","desktop","0","0","0","","","","","","working_memory","","null","<div class=""fixation"">+</div>","null","","","","","","","","","","","","","","","","",""
"html-keyboard-response","228","450540","0.0-5.0-5.0-3.28","698341d57fe7b870bddf91b8","not_provided","desktop","0","0","0","","","","","","working_memory","","1646","<img class='a' src=images/squares/blue.png><div class=""fixation"">+</div>","k","","","test_squares","exp","28","8","k","true","sk","d","","","","","","",""
"html-keyboard-response","229","451049","0.0-5.0-5.0-4.28","698341d57fe7b870bddf91b8","not_provided","desktop","0","0","0","","","","","","working_memory","","null","<div class=""fixation"">Correct</div>","null","","","","","","","","","","","","","","","","",""
"html-keyboard-response","230","452057","0.0-5.0-5.0-0.29","698341d57fe7b870bddf91b8","not_provided","desktop","0","0","0","","","","","","working_memory","","null","<div class=""fixation"">+</div>","null","","","","","","","","","","","","","","","","",""
"html-keyboard-response","231","452259","0.0-5.0-5.0-1.29","698341d57fe7b870bddf91b8","not_provided","desktop","0","0","0","","","","","","working_memory","","null","<img class='c' src=images/squares/magenta.png><img class='e' src=images/squares/blue.png><img class='h' src=images/squares/cyan.png><img class='k' src=images/squares/red.png><div class=""fixation"">+</div>","null","","","memory","exp","29","","","","","","","","","","","",""
"html-keyboard-response","232","453171","0.0-5.0-5.0-2.29","698341d57fe7b870bddf91b8","not_provided","desktop","0","0","0","","","","","","working_memory","","null","<div class=""fixation"">+</div>","null","","","","","","","","","","","","","","","","",""
"html-keyboard-response","233","454048","0.0-5.0-5.0-3.29","698341d57fe7b870bddf91b8","not_provided","desktop","0","0","0","","","","","","working_memory","","875","<img class='k' src=images/squares/red.png><div class=""fixation"">+</div>","s","","","test_squares","exp","29","4","s","true","sk","s","","","","","","",""
"html-keyboard-response","234","454562","0.0-5.0-5.0-4.29","698341d57fe7b870bddf91b8","not_provided","desktop","0","0","0","","","","","","working_memory","","null","<div class=""fixation"">Correct</div>","null","","","","","","","","","","","","","","","","",""
"html-keyboard-response","235","455570","0.0-5.0-5.0-0.30","698341d57fe7b870bddf91b8","not_provided","desktop","0","0","0","","","","","","working_memory","","null","<div class=""fixation"">+</div>","null","","","","","","","","","","","","","","","","",""
"html-keyboard-response","236","455772","0.0-5.0-5.0-1.30","698341d57fe7b870bddf91b8","not_provided","desktop","0","0","0","","","","","","working_memory","","null","<img class='a' src=images/squares/green.png><img class='c' src=images/squares/yellow.png><img class='d' src=images/squares/magenta.png><img class='e' src=images/squares/orange.png><img class='i' src=images/squares/red.png><img class='h' src=images/squares/brown.png><img class='l' src=images/squares/black.png><img class='j' src=images/squares/cyan.png><div class=""fixation"">+</div>","null","","","memory","exp","30","","","","","","","","","","","",""
"html-keyboard-response","237","456680","0.0-5.0-5.0-2.30","698341d57fe7b870bddf91b8","not_provided","desktop","0","0","0","","","","","","working_memory","","null","<div class=""fixation"">+</div>","null","","","","","","","","","","","","","","","","",""
"html-keyboard-response","238","458315","0.0-5.0-5.0-3.30","698341d57fe7b870bddf91b8","not_provided","desktop","0","0","0","","","","","","working_memory","","1634","<img class='e' src=images/squares/orange.png><div class=""fixation"">+</div>","s","","","test_squares","exp","30","8","s","true","sk","s","","","","","","",""
"html-keyboard-response","239","458818","0.0-5.0-5.0-4.30","698341d57fe7b870bddf91b8","not_provided","desktop","0","0","0","","","","","","working_memory","","null","<div class=""fixation"">Correct</div>","null","","","","","","","","","","","","","","","","",""
"html-keyboard-response","240","459822","0.0-5.0-5.0-0.31","698341d57fe7b870bddf91b8","not_provided","desktop","0","0","0","","","","","","working_memory","","null","<div class=""fixation"">+</div>","null","","","","","","","","","","","","","","","","",""
"html-keyboard-response","241","460024","0.0-5.0-5.0-1.31","698341d57fe7b870bddf91b8","not_provided","desktop","0","0","0","","","","","","working_memory","","null","<img class='b' src=images/squares/orange.png><img class='f' src=images/squares/black.png><img class='h' src=images/squares/brown.png><img class='j' src=images/squares/blue.png><div class=""fixation"">+</div>","null","","","memory","exp","31","","","","","","","","","","","",""
"html-keyboard-response","242","460931","0.0-5.0-5.0-2.31","698341d57fe7b870bddf91b8","not_provided","desktop","0","0","0","","","","","","working_memory","","null","<div class=""fixation"">+</div>","null","","","","","","","","","","","","","","","","",""
"html-keyboard-response","243","462545","0.0-5.0-5.0-3.31","698341d57fe7b870bddf91b8","not_provided","desktop","0","0","0","","","","","","working_memory","","1613","<img class='b' src=images/squares/orange.png><div class=""fixation"">+</div>","s","","","test_squares","exp","31","4","s","true","sk","s","","","","","","",""
"html-keyboard-response","244","463054","0.0-5.0-5.0-4.31","698341d57fe7b870bddf91b8","not_provided","desktop","0","0","0","","","","","","working_memory","","null","<div class=""fixation"">Correct</div>","null","","","","","","","","","","","","","","","","",""
"html-keyboard-response","245","464062","0.0-5.0-5.0-0.32","698341d57fe7b870bddf91b8","not_provided","desktop","0","0","0","","","","","","working_memory","","null","<div class=""fixation"">+</div>","null","","","","","","","","","","","","","","","","",""
"html-keyboard-response","246","464263","0.0-5.0-5.0-1.32","698341d57fe7b870bddf91b8","not_provided","desktop","0","0","0","","","","","","working_memory","","null","<img class='b' src=images/squares/black.png><img class='d' src=images/squares/blue.png><img class='g' src=images/squares/brown.png><img class='k' src=images/squares/magenta.png><div class=""fixation"">+</div>","null","","","memory","exp","32","","","","","","","","","","","",""
"html-keyboard-response","247","465177","0.0-5.0-5.0-2.32","698341d57fe7b870bddf91b8","not_provided","desktop","0","0","0","","","","","","working_memory","","null","<div class=""fixation"">+</div>","null","","","","","","","","","","","","","","","","",""
"html-keyboard-response","248","466251","0.0-5.0-5.0-3.32","698341d57fe7b870bddf91b8","not_provided","desktop","0","0","0","","","","","","working_memory","","1074","<img class='b' src=images/squares/black.png><div class=""fixation"">+</div>","s","","","test_squares","exp","32","4","s","true","sk","s","","","","","","",""
"html-keyboard-response","249","466753","0.0-5.0-5.0-4.32","698341d57fe7b870bddf91b8","not_provided","desktop","0","0","0","","","","","","working_memory","","null","<div class=""fixation"">Correct</div>","null","","","","","","","","","","","","","","","","",""
"html-keyboard-response","250","467761","0.0-5.0-5.0-0.33","698341d57fe7b870bddf91b8","not_provided","desktop","0","0","0","","","","","","working_memory","","null","<div class=""fixation"">+</div>","null","","","","","","","","","","","","","","","","",""
"html-keyboard-response","251","467964","0.0-5.0-5.0-1.33","698341d57fe7b870bddf91b8","not_provided","desktop","0","0","0","","","","","","working_memory","","null","<img class='b' src=images/squares/magenta.png><img class='a' src=images/squares/yellow.png><img class='e' src=images/squares/blue.png><img class='d' src=images/squares/brown.png><img class='h' src=images/squares/green.png><img class='i' src=images/squares/cyan.png><img class='j' src=images/squares/red.png><img class='l' src=images/squares/black.png><div class=""fixation"">+</div>","null","","","memory","exp","33","","","","","","","","","","","",""
"html-keyboard-response","252","468875","0.0-5.0-5.0-2.33","698341d57fe7b870bddf91b8","not_provided","desktop","0","0","0","","","","","","working_memory","","null","<div class=""fixation"">+</div>","null","","","","","","","","","","","","","","","","",""
"html-keyboard-response","253","470433","0.0-5.0-5.0-3.33","698341d57fe7b870bddf91b8","not_provided","desktop","0","0","0","","","","","","working_memory","","1557","<img class='b' src=images/squares/orange.png><div class=""fixation"">+</div>","k","","","test_squares","exp","33","8","k","true","sk","d","","","","","","",""
"html-keyboard-response","254","470935","0.0-5.0-5.0-4.33","698341d57fe7b870bddf91b8","not_provided","desktop","0","0","0","","","","","","working_memory","","null","<div class=""fixation"">Correct</div>","null","","","","","","","","","","","","","","","","",""
"html-keyboard-response","255","471941","0.0-5.0-5.0-0.34","698341d57fe7b870bddf91b8","not_provided","desktop","0","0","0","","","","","","working_memory","","null","<div class=""fixation"">+</div>","null","","","","","","","","","","","","","","","","",""
"html-keyboard-response","256","472143","0.0-5.0-5.0-1.34","698341d57fe7b870bddf91b8","not_provided","desktop","0","0","0","","","","","","working_memory","","null","<img class='a' src=images/squares/magenta.png><img class='e' src=images/squares/orange.png><img class='g' src=images/squares/black.png><img class='k' src=images/squares/yellow.png><div class=""fixation"">+</div>","null","","","memory","exp","34","","","","","","","","","","","",""
"html-keyboard-response","257","473058","0.0-5.0-5.0-2.34","698341d57fe7b870bddf91b8","not_provided","desktop","0","0","0","","","","","","working_memory","","null","<div class=""fixation"">+</div>","null","","","","","","","","","","","","","","","","",""
"html-keyboard-response","258","474346","0.0-5.0-5.0-3.34","698341d57fe7b870bddf91b8","not_provided","desktop","0","0","0","","","","","","working_memory","","1288","<img class='k' src=images/squares/green.png><div class=""fixation"">+</div>","k","","","test_squares","exp","34","4","k","true","sk","d","","","","","","",""
"html-keyboard-response","259","474855","0.0-5.0-5.0-4.34","698341d57fe7b870bddf91b8","not_provided","desktop","0","0","0","","","","","","working_memory","","null","<div class=""fixation"">Correct</div>","null","","","","","","","","","","","","","","","","",""
"html-keyboard-response","260","475859","0.0-5.0-5.0-0.35","698341d57fe7b870bddf91b8","not_provided","desktop","0","0","0","","","","","","working_memory","","null","<div class=""fixation"">+</div>","null","","","","","","","","","","","","","","","","",""
"html-keyboard-response","261","476061","0.0-5.0-5.0-1.35","698341d57fe7b870bddf91b8","not_provided","desktop","0","0","0","","","","","","working_memory","","null","<img class='b' src=images/squares/brown.png><img class='e' src=images/squares/blue.png><img class='g' src=images/squares/green.png><img class='k' src=images/squares/black.png><div class=""fixation"">+</div>","null","","","memory","exp","35","","","","","","","","","","","",""
"html-keyboard-response","262","476975","0.0-5.0-5.0-2.35","698341d57fe7b870bddf91b8","not_provided","desktop","0","0","0","","","","","","working_memory","","null","<div class=""fixation"">+</div>","null","","","","","","","","","","","","","","","","",""
"html-keyboard-response","263","477970","0.0-5.0-5.0-3.35","698341d57fe7b870bddf91b8","not_provided","desktop","0","0","0","","","","","","working_memory","","994","<img class='g' src=images/squares/cyan.png><div class=""fixation"">+</div>","k","","","test_squares","exp","35","4","k","true","sk","d","","","","","","",""
"html-keyboard-response","264","478477","0.0-5.0-5.0-4.35","698341d57fe7b870bddf91b8","not_provided","desktop","0","0","0","","","","","","working_memory","","null","<div class=""fixation"">Correct</div>","null","","","","","","","","","","","","","","","","",""
"html-keyboard-response","265","479486","0.0-5.0-5.0-0.36","698341d57fe7b870bddf91b8","not_provided","desktop","0","0","0","","","","","","working_memory","","null","<div class=""fixation"">+</div>","null","","","","","","","","","","","","","","","","",""
"html-keyboard-response","266","479688","0.0-5.0-5.0-1.36","698341d57fe7b870bddf91b8","not_provided","desktop","0","0","0","","","","","","working_memory","","null","<img class='b' src=images/squares/black.png><img class='f' src=images/squares/cyan.png><img class='h' src=images/squares/blue.png><img class='k' src=images/squares/magenta.png><div class=""fixation"">+</div>","null","","","memory","exp","36","","","","","","","","","","","",""
"html-keyboard-response","267","480598","0.0-5.0-5.0-2.36","698341d57fe7b870bddf91b8","not_provided","desktop","0","0","0","","","","","","working_memory","","null","<div class=""fixation"">+</div>","null","","","","","","","","","","","","","","","","",""
"html-keyboard-response","268","481404","0.0-5.0-5.0-3.36","698341d57fe7b870bddf91b8","not_provided","desktop","0","0","0","","","","","","working_memory","","805","<img class='k' src=images/squares/magenta.png><div class=""fixation"">+</div>","s","","","test_squares","exp","36","4","s","true","sk","s","","","","","","",""
"html-keyboard-response","269","481917","0.0-5.0-5.0-4.36","698341d57fe7b870bddf91b8","not_provided","desktop","0","0","0","","","","","","working_memory","","null","<div class=""fixation"">Correct</div>","null","","","","","","","","","","","","","","","","",""
"html-keyboard-response","270","482923","0.0-5.0-5.0-0.37","698341d57fe7b870bddf91b8","not_provided","desktop","0","0","0","","","","","","working_memory","","null","<div class=""fixation"">+</div>","null","","","","","","","","","","","","","","","","",""
"html-keyboard-response","271","483125","0.0-5.0-5.0-1.37","698341d57fe7b870bddf91b8","not_provided","desktop","0","0","0","","","","","","working_memory","","null","<img class='b' src=images/squares/cyan.png><img class='f' src=images/squares/orange.png><img class='g' src=images/squares/brown.png><img class='j' src=images/squares/black.png><div class=""fixation"">+</div>","null","","","memory","exp","37","","","","","","","","","","","",""
"html-keyboard-response","272","484037","0.0-5.0-5.0-2.37","698341d57fe7b870bddf91b8","not_provided","desktop","0","0","0","","","","","","working_memory","","null","<div class=""fixation"">+</div>","null","","","","","","","","","","","","","","","","",""
"html-keyboard-response","273","484853","0.0-5.0-5.0-3.37","698341d57fe7b870bddf91b8","not_provided","desktop","0","0","0","","","","","","working_memory","","815","<img class='b' src=images/squares/green.png><div class=""fixation"">+</div>","k","","","test_squares","exp","37","4","k","true","sk","d","","","","","","",""
"html-keyboard-response","274","485365","0.0-5.0-5.0-4.37","698341d57fe7b870bddf91b8","not_provided","desktop","0","0","0","","","","","","working_memory","","null","<div class=""fixation"">Correct</div>","null","","","","","","","","","","","","","","","","",""
"html-keyboard-response","275","486372","0.0-5.0-5.0-0.38","698341d57fe7b870bddf91b8","not_provided","desktop","0","0","0","","","","","","working_memory","","null","<div class=""fixation"">+</div>","null","","","","","","","","","","","","","","","","",""
"html-keyboard-response","276","486574","0.0-5.0-5.0-1.38","698341d57fe7b870bddf91b8","not_provided","desktop","0","0","0","","","","","","working_memory","","null","<img class='b' src=images/squares/yellow.png><img class='d' src=images/squares/blue.png><img class='i' src=images/squares/magenta.png><img class='j' src=images/squares/brown.png><div class=""fixation"">+</div>","null","","","memory","exp","38","","","","","","","","","","","",""
"html-keyboard-response","277","487484","0.0-5.0-5.0-2.38","698341d57fe7b870bddf91b8","not_provided","desktop","0","0","0","","","","","","working_memory","","null","<div class=""fixation"">+</div>","null","","","","","","","","","","","","","","","","",""
"html-keyboard-response","278","488253","0.0-5.0-5.0-3.38","698341d57fe7b870bddf91b8","not_provided","desktop","0","0","0","","","","","","working_memory","","768","<img class='j' src=images/squares/brown.png><div class=""fixation"">+</div>","s","","","test_squares","exp","38","4","s","true","sk","s","","","","","","",""
"html-keyboard-response","279","488756","0.0-5.0-5.0-4.38","698341d57fe7b870bddf91b8","not_provided","desktop","0","0","0","","","","","","working_memory","","null","<div class=""fixation"">Correct</div>","null","","","","","","","","","","","","","","","","",""
"html-keyboard-response","280","489765","0.0-5.0-5.0-0.39","698341d57fe7b870bddf91b8","not_provided","desktop","0","0","0","","","","","","working_memory","","null","<div class=""fixation"">+</div>","null","","","","","","","","","","","","","","","","",""
"html-keyboard-response","281","489981","0.0-5.0-5.0-1.39","698341d57fe7b870bddf91b8","not_provided","desktop","0","0","0","","","","","","working_memory","","null","<img class='c' src=images/squares/green.png><img class='a' src=images/squares/blue.png><img class='e' src=images/squares/brown.png><img class='f' src=images/squares/magenta.png><img class='i' src=images/squares/black.png><img class='g' src=images/squares/cyan.png><img class='j' src=images/squares/yellow.png><img class='k' src=images/squares/orange.png><div class=""fixation"">+</div>","null","","","memory","exp","39","","","","","","","","","","","",""
"html-keyboard-response","282","490883","0.0-5.0-5.0-2.39","698341d57fe7b870bddf91b8","not_provided","desktop","0","0","0","","","","","","working_memory","","null","<div class=""fixation"">+</div>","null","","","","","","","","","","","","","","","","",""
"html-keyboard-response","283","491709","0.0-5.0-5.0-3.39","698341d57fe7b870bddf91b8","not_provided","desktop","0","0","0","","","","","","working_memory","","826","<img class='k' src=images/squares/orange.png><div class=""fixation"">+</div>","s","","","test_squares","exp","39","8","s","true","sk","s","","","","","","",""
"html-keyboard-response","284","492217","0.0-5.0-5.0-4.39","698341d57fe7b870bddf91b8","not_provided","desktop","0","0","0","","","","","","working_memory","","null","<div class=""fixation"">Correct</div>","null","","","","","","","","","","","","","","","","",""
"html-keyboard-response","285","493221","0.0-5.0-5.0-0.40","698341d57fe7b870bddf91b8","not_provided","desktop","0","0","0","","","","","","working_memory","","null","<div class=""fixation"">+</div>","null","","","","","","","","","","","","","","","","",""
"html-keyboard-response","286","493423","0.0-5.0-5.0-1.40","698341d57fe7b870bddf91b8","not_provided","desktop","0","0","0","","","","","","working_memory","","null","<img class='b' src=images/squares/green.png><img class='a' src=images/squares/magenta.png><img class='d' src=images/squares/cyan.png><img class='e' src=images/squares/brown.png><img class='h' src=images/squares/orange.png><img class='g' src=images/squares/black.png><img class='l' src=images/squares/blue.png><img class='k' src=images/squares/red.png><div class=""fixation"">+</div>","null","","","memory","exp","40","","","","","","","","","","","",""
"html-keyboard-response","287","494338","0.0-5.0-5.0-2.40","698341d57fe7b870bddf91b8","not_provided","desktop","0","0","0","","","","","","working_memory","","null","<div class=""fixation"">+</div>","null","","","","","","","","","","","","","","","","",""
"html-keyboard-response","288","495100","0.0-5.0-5.0-3.40","698341d57fe7b870bddf91b8","not_provided","desktop","0","0","0","","","","","","working_memory","","761","<img class='g' src=images/squares/black.png><div class=""fixation"">+</div>","k","","","test_squares","exp","40","8","s","false","sk","s","","","","","","",""
"html-keyboard-response","289","495611","0.0-5.0-5.0-4.40","698341d57fe7b870bddf91b8","not_provided","desktop","0","0","0","","","","","","working_memory","","null","<div class=""fixation"">Incorrect</div>","null","","","","","","","","","","","","","","","","",""
"html-keyboard-response","290","496616","0.0-5.0-5.0-0.41","698341d57fe7b870bddf91b8","not_provided","desktop","0","0","0","","","","","","working_memory","","null","<div class=""fixation"">+</div>","null","","","","","","","","","","","","","","","","",""
"html-keyboard-response","291","496832","0.0-5.0-5.0-1.41","698341d57fe7b870bddf91b8","not_provided","desktop","0","0","0","","","","","","working_memory","","null","<img class='b' src=images/squares/red.png><img class='a' src=images/squares/blue.png><img class='d' src=images/squares/orange.png><img class='f' src=images/squares/magenta.png><img class='i' src=images/squares/yellow.png><img class='g' src=images/squares/black.png><img class='k' src=images/squares/cyan.png><img class='l' src=images/squares/brown.png><div class=""fixation"">+</div>","null","","","memory","exp","41","","","","","","","","","","","",""
"html-keyboard-response","292","497748","0.0-5.0-5.0-2.41","698341d57fe7b870bddf91b8","not_provided","desktop","0","0","0","","","","","","working_memory","","null","<div class=""fixation"">+</div>","null","","","","","","","","","","","","","","","","",""
"html-keyboard-response","293","498742","0.0-5.0-5.0-3.41","698341d57fe7b870bddf91b8","not_provided","desktop","0","0","0","","","","","","working_memory","","993","<img class='g' src=images/squares/black.png><div class=""fixation"">+</div>","s","","","test_squares","exp","41","8","s","true","sk","s","","","","","","",""
"html-keyboard-response","294","499246","0.0-5.0-5.0-4.41","698341d57fe7b870bddf91b8","not_provided","desktop","0","0","0","","","","","","working_memory","","null","<div class=""fixation"">Correct</div>","null","","","","","","","","","","","","","","","","",""
"html-keyboard-response","295","500249","0.0-5.0-5.0-0.42","698341d57fe7b870bddf91b8","not_provided","desktop","0","0","0","","","","","","working_memory","","null","<div class=""fixation"">+</div>","null","","","","","","","","","","","","","","","","",""
"html-keyboard-response","296","500451","0.0-5.0-5.0-1.42","698341d57fe7b870bddf91b8","not_provided","desktop","0","0","0","","","","","","working_memory","","null","<img class='b' src=images/squares/yellow.png><img class='e' src=images/squares/magenta.png><img class='h' src=images/squares/brown.png><img class='j' src=images/squares/red.png><div class=""fixation"">+</div>","null","","","memory","exp","42","","","","","","","","","","","",""
"html-keyboard-response","297","501367","0.0-5.0-5.0-2.42","698341d57fe7b870bddf91b8","not_provided","desktop","0","0","0","","","","","","working_memory","","null","<div class=""fixation"">+</div>","null","","","","","","","","","","","","","","","","",""
"html-keyboard-response","298","501918","0.0-5.0-5.0-3.42","698341d57fe7b870bddf91b8","not_provided","desktop","0","0","0","","","","","","working_memory","","551","<img class='h' src=images/squares/brown.png><div class=""fixation"">+</div>","s","","","test_squares","exp","42","4","s","true","sk","s","","","","","","",""
"html-keyboard-response","299","502421","0.0-5.0-5.0-4.42","698341d57fe7b870bddf91b8","not_provided","desktop","0","0","0","","","","","","working_memory","","null","<div class=""fixation"">Correct</div>","null","","","","","","","","","","","","","","","","",""
"html-keyboard-response","300","503427","0.0-5.0-5.0-0.43","698341d57fe7b870bddf91b8","not_provided","desktop","0","0","0","","","","","","working_memory","","null","<div class=""fixation"">+</div>","null","","","","","","","","","","","","","","","","",""
