"trial_type","trial_index","time_elapsed","internal_node_id","subject_id","study_id","device_type","blur_count","fullscreen_exit_count","failed_attention_checks","success","timeout","failed_images","failed_audio","failed_video","phase","value","rt","stimulus","response","view_history","question_order","trial_name","block_type","trial_num","set_size","correct_response","accuracy","mapping","condition","prompt","flipped","attention","expected_answer","category","question_index","task"
"pavlovia","0","44705","0.0-0.0","69807d4738a6a1d1a2774e67","not_provided","desktop","0","0","0","","","","","","","","","","","","","","","","","","","","","","","","","","",""
"preload","1","44765","0.0-2.0","69807d4738a6a1d1a2774e67","not_provided","desktop","0","0","0","true","false","[]","[]","[]","","","","","","","","","","","","","","","","","","","","","",""
"html-keyboard-response","2","75281","0.0-3.0-0.0","69807d4738a6a1d1a2774e67","not_provided","desktop","0","0","0","","","","","","captcha","","","","","","","","","","","","","","","","","","","","",""
"fullscreen","3","82841","0.0-4.0","69807d4738a6a1d1a2774e67","not_provided","desktop","0","0","0","true","","","","","setup","","","","","","","","","","","","","","","","","","","","",""
"call-function","4","82844","0.0-5.0-0.0","69807d4738a6a1d1a2774e67","not_provided","desktop","0","0","0","","","","","","working_memory","","","","","","","","","","","","","","","","","","","","",""
"html-keyboard-response","5","105925","0.0-5.0-1.0","69807d4738a6a1d1a2774e67","not_provided","desktop","0","0","0","","","","","","working_memory","","23078","<div style=""text-align:center;font-family:sans-serif;""><p>Welcome to the luck game experiment!</p><p>This two-day experiment takes part in a study aimed at developing better clinical treatments.</p><p>We appreciate your participation and require your full concentration.</p><br><p>This is a two-day study. Payment (£6/hour) is only given upon completing both parts today and tomorrow.</p><p>You must finish the second part for compensation. After today, you'll receive an invitation for tomorrow's session.</p><p>Please ensure you can attend both sessions before proceeding. Otherwise, you may exit now.</p><p>If you have any questions, please contact us via prolific.</p><br><p>Please stay attentive and in fullscreen mode to ensure payment.</p><p>Thank you for participating!</p><br><p id=""continue-prompt"" style=""visibility:hidden;""><b>Press any key to continue.</b></p></div>","g","","","","","","","","","","","","","","","","",""
"instructions","6","160204","0.0-5.0-2.0-0.0","69807d4738a6a1d1a2774e67","not_provided","desktop","0","0","0","","","","","","working_memory","","54276","","","[{""page_index"":0,""viewing_time"":1836},{""page_index"":1,""viewing_time"":1648},{""page_index"":2,""viewing_time"":8153},{""page_index"":3,""viewing_time"":3109},{""page_index"":4,""viewing_time"":6585},{""page_index"":5,""viewing_time"":7409},{""page_index"":6,""viewing_time"":7864},{""page_index"":5,""viewing_time"":1095},{""page_index"":6,""viewing_time"":7633},{""page_index"":7,""viewing_time"":2615},{""page_index"":8,""viewing_time"":6328}]","","","","","","","","","","","","","","","",""
"survey-multi-choice","7","195358","0.0-5.0-2.0-1.0","69807d4738a6a1d1a2774e67","not_provided","desktop","0","0","0","","","","","","working_memory","","35143","","{""set_size"":""4 or 8"",""steps"":""True"",""choose_square"":""Press the 'k' or 's' key."",""remember"":""The colors and locations of the 'memory' squares"",""task"":""To tell if the 'test' square is in the same color as the square previously appearing in this location""}","","[0,1,2,3,4]","test_squares_quiz","","","","","","","","","","","","","",""
"html-keyboard-response","8","221398","0.0-5.0-3.0-0.0","69807d4738a6a1d1a2774e67","not_provided","desktop","0","0","0","","","","","","working_memory","","26036","<p>We will now start some practice trials.<br><b>The practice trials will also include some trials in which you will need to remember only one square to make sure you understood the instructions.</b><br>You may already want to be ready with your fingers on '<b>s</b>' and '<b>k</b>'.<br><img class=""wm-example-img"" src=""images/examples/keyboard.png""><br><b style=""font-size:1.2em;"">&lsquo;K&rsquo; = SAME &nbsp;&nbsp;&nbsp; &lsquo;S&rsquo; = DIFFERENT</b><br><br><u>Please try to be as accurate as possible.</u><br><br><b>Press any key to begin</b></p>","k","","","","","","","","","","","","","","","","",""
"html-keyboard-response","9","223411","0.0-5.0-3.0-1.0-0.0","69807d4738a6a1d1a2774e67","not_provided","desktop","0","0","0","","","","","","working_memory","","null","<div class=""fixation"">+</div>","null","","","","","","","","","","","","","","","","",""
"html-keyboard-response","10","223618","0.0-5.0-3.0-1.0-1.0","69807d4738a6a1d1a2774e67","not_provided","desktop","0","0","0","","","","","","working_memory","","null","<img class='upper1' src=images/squares/blue.png><div class=""fixation"">+</div>","null","","","memory","practice","0","1","","","","","","","","","","",""
"html-keyboard-response","11","224522","0.0-5.0-3.0-1.0-2.0","69807d4738a6a1d1a2774e67","not_provided","desktop","0","0","0","","","","","","working_memory","","null","<div class=""fixation"">+</div>","null","","","","","","","","","","","","","","","","",""
"html-keyboard-response","12","229196","0.0-5.0-3.0-1.0-3.0","69807d4738a6a1d1a2774e67","not_provided","desktop","0","0","0","","","","","","working_memory","","4671","<img class='upper1' src=images/squares/blue.png><div class=""fixation"">+</div>","k","","","test","practice","0","1","k","true","","","","","","","","",""
"html-keyboard-response","13","229707","0.0-5.0-3.0-1.0-4.0","69807d4738a6a1d1a2774e67","not_provided","desktop","0","0","0","","","","","","working_memory","","null","<div class=""fixation"">Correct</div>","null","","","","","","","","","","","","","","","","",""
"html-keyboard-response","14","230714","0.0-5.0-3.0-1.0-0.1","69807d4738a6a1d1a2774e67","not_provided","desktop","0","0","0","","","","","","working_memory","","null","<div class=""fixation"">+</div>","null","","","","","","","","","","","","","","","","",""
"html-keyboard-response","15","230923","0.0-5.0-3.0-1.0-1.1","69807d4738a6a1d1a2774e67","not_provided","desktop","0","0","0","","","","","","working_memory","","null","<img class='a' src=images/squares/blue.png><img class='c' src=images/squares/magenta.png><img class='d' src=images/squares/orange.png><img class='e' src=images/squares/black.png><img class='g' src=images/squares/red.png><img class='h' src=images/squares/green.png><img class='k' src=images/squares/brown.png><img class='l' src=images/squares/yellow.png><div class=""fixation"">+</div>","null","","","memory","practice","1","8","","","","","","","","","","",""
"html-keyboard-response","16","231826","0.0-5.0-3.0-1.0-2.1","69807d4738a6a1d1a2774e67","not_provided","desktop","0","0","0","","","","","","working_memory","","null","<div class=""fixation"">+</div>","null","","","","","","","","","","","","","","","","",""
"html-keyboard-response","17","233259","0.0-5.0-3.0-1.0-3.1","69807d4738a6a1d1a2774e67","not_provided","desktop","0","0","0","","","","","","working_memory","","1431","<img class='c' src=images/squares/magenta.png><div class=""fixation"">+</div>","s","","","test","practice","1","8","k","false","","","","","","","","",""
"html-keyboard-response","18","233762","0.0-5.0-3.0-1.0-4.1","69807d4738a6a1d1a2774e67","not_provided","desktop","0","0","0","","","","","","working_memory","","null","<div class=""fixation"">Incorrect</div>","null","","","","","","","","","","","","","","","","",""
"html-keyboard-response","19","234772","0.0-5.0-3.0-1.0-0.2","69807d4738a6a1d1a2774e67","not_provided","desktop","0","0","0","","","","","","working_memory","","null","<div class=""fixation"">+</div>","null","","","","","","","","","","","","","","","","",""
"html-keyboard-response","20","234978","0.0-5.0-3.0-1.0-1.2","69807d4738a6a1d1a2774e67","not_provided","desktop","0","0","0","","","","","","working_memory","","null","<img class='b' src=images/squares/brown.png><img class='a' src=images/squares/magenta.png><img class='d' src=images/squares/black.png><img class='e' src=images/squares/orange.png><img class='g' src=images/squares/cyan.png><img class='h' src=images/squares/green.png><img class='l' src=images/squares/red.png><img class='k' src=images/squares/yellow.png><div class=""fixation"">+</div>","null","","","memory","practice","2","8","","","","","","","","","","",""
"html-keyboard-response","21","235883","0.0-5.0-3.0-1.0-2.2","69807d4738a6a1d1a2774e67","not_provided","desktop","0","0","0","","","","","","working_memory","","null","<div class=""fixation"">+</div>","null","","","","","","","","","","","","","","","","",""
"html-keyboard-response","22","237820","0.0-5.0-3.0-1.0-3.2","69807d4738a6a1d1a2774e67","not_provided","desktop","0","0","0","","","","","","working_memory","","1935","<img class='k' src=images/squares/yellow.png><div class=""fixation"">+</div>","s","","","test","practice","2","8","k","false","","","","","","","","",""
"html-keyboard-response","23","238322","0.0-5.0-3.0-1.0-4.2","69807d4738a6a1d1a2774e67","not_provided","desktop","0","0","0","","","","","","working_memory","","null","<div class=""fixation"">Incorrect</div>","null","","","","","","","","","","","","","","","","",""
"html-keyboard-response","24","239331","0.0-5.0-3.0-1.0-0.3","69807d4738a6a1d1a2774e67","not_provided","desktop","0","0","0","","","","","","working_memory","","null","<div class=""fixation"">+</div>","null","","","","","","","","","","","","","","","","",""
"html-keyboard-response","25","239539","0.0-5.0-3.0-1.0-1.3","69807d4738a6a1d1a2774e67","not_provided","desktop","0","0","0","","","","","","working_memory","","null","<img class='c' src=images/squares/brown.png><img class='f' src=images/squares/black.png><img class='g' src=images/squares/blue.png><img class='l' src=images/squares/yellow.png><div class=""fixation"">+</div>","null","","","memory","practice","3","4","","","","","","","","","","",""
"html-keyboard-response","26","240442","0.0-5.0-3.0-1.0-2.3","69807d4738a6a1d1a2774e67","not_provided","desktop","0","0","0","","","","","","working_memory","","null","<div class=""fixation"">+</div>","null","","","","","","","","","","","","","","","","",""
"html-keyboard-response","27","241531","0.0-5.0-3.0-1.0-3.3","69807d4738a6a1d1a2774e67","not_provided","desktop","0","0","0","","","","","","working_memory","","1088","<img class='g' src=images/squares/blue.png><div class=""fixation"">+</div>","k","","","test","practice","3","4","k","true","","","","","","","","",""
"html-keyboard-response","28","242034","0.0-5.0-3.0-1.0-4.3","69807d4738a6a1d1a2774e67","not_provided","desktop","0","0","0","","","","","","working_memory","","null","<div class=""fixation"">Correct</div>","null","","","","","","","","","","","","","","","","",""
"html-keyboard-response","29","243042","0.0-5.0-3.0-1.0-0.4","69807d4738a6a1d1a2774e67","not_provided","desktop","0","0","0","","","","","","working_memory","","null","<div class=""fixation"">+</div>","null","","","","","","","","","","","","","","","","",""
"html-keyboard-response","30","243250","0.0-5.0-3.0-1.0-1.4","69807d4738a6a1d1a2774e67","not_provided","desktop","0","0","0","","","","","","working_memory","","null","<img class='upper3' src=images/squares/blue.png><div class=""fixation"">+</div>","null","","","memory","practice","4","1","","","","","","","","","","",""
"html-keyboard-response","31","244155","0.0-5.0-3.0-1.0-2.4","69807d4738a6a1d1a2774e67","not_provided","desktop","0","0","0","","","","","","working_memory","","null","<div class=""fixation"">+</div>","null","","","","","","","","","","","","","","","","",""
"html-keyboard-response","32","245572","0.0-5.0-3.0-1.0-3.4","69807d4738a6a1d1a2774e67","not_provided","desktop","0","0","0","","","","","","working_memory","","1415","<img class='upper3' src=images/squares/blue.png><div class=""fixation"">+</div>","k","","","test","practice","4","1","k","true","","","","","","","","",""
"html-keyboard-response","33","246075","0.0-5.0-3.0-1.0-4.4","69807d4738a6a1d1a2774e67","not_provided","desktop","0","0","0","","","","","","working_memory","","null","<div class=""fixation"">Correct</div>","null","","","","","","","","","","","","","","","","",""
"html-keyboard-response","34","247082","0.0-5.0-3.0-1.0-0.5","69807d4738a6a1d1a2774e67","not_provided","desktop","0","0","0","","","","","","working_memory","","null","<div class=""fixation"">+</div>","null","","","","","","","","","","","","","","","","",""
"html-keyboard-response","35","247290","0.0-5.0-3.0-1.0-1.5","69807d4738a6a1d1a2774e67","not_provided","desktop","0","0","0","","","","","","working_memory","","null","<img class='lower2' src=images/squares/green.png><div class=""fixation"">+</div>","null","","","memory","practice","5","1","","","","","","","","","","",""
"html-keyboard-response","36","248195","0.0-5.0-3.0-1.0-2.5","69807d4738a6a1d1a2774e67","not_provided","desktop","0","0","0","","","","","","working_memory","","null","<div class=""fixation"">+</div>","null","","","","","","","","","","","","","","","","",""
"html-keyboard-response","37","249163","0.0-5.0-3.0-1.0-3.5","69807d4738a6a1d1a2774e67","not_provided","desktop","0","0","0","","","","","","working_memory","","967","<img class='lower2' src=images/squares/green.png><div class=""fixation"">+</div>","k","","","test","practice","5","1","k","true","","","","","","","","",""
"html-keyboard-response","38","249666","0.0-5.0-3.0-1.0-4.5","69807d4738a6a1d1a2774e67","not_provided","desktop","0","0","0","","","","","","working_memory","","null","<div class=""fixation"">Correct</div>","null","","","","","","","","","","","","","","","","",""
"html-keyboard-response","39","250674","0.0-5.0-3.0-1.0-0.6","69807d4738a6a1d1a2774e67","not_provided","desktop","0","0","0","","","","","","working_memory","","null","<div class=""fixation"">+</div>","null","","","","","","","","","","","","","","","","",""
"html-keyboard-response","40","250882","0.0-5.0-3.0-1.0-1.6","69807d4738a6a1d1a2774e67","not_provided","desktop","0","0","0","","","","","","working_memory","","null","<img class='upper3' src=images/squares/red.png><div class=""fixation"">+</div>","null","","","memory","practice","6","1","","","","","","","","","","",""
"html-keyboard-response","41","251786","0.0-5.0-3.0-1.0-2.6","69807d4738a6a1d1a2774e67","not_provided","desktop","0","0","0","","","","","","working_memory","","null","<div class=""fixation"">+</div>","null","","","","","","","","","","","","","","","","",""
"html-keyboard-response","42","252627","0.0-5.0-3.0-1.0-3.6","69807d4738a6a1d1a2774e67","not_provided","desktop","0","0","0","","","","","","working_memory","","839","<img class='upper3' src=images/squares/red.png><div class=""fixation"">+</div>","k","","","test","practice","6","1","k","true","","","","","","","","",""
"html-keyboard-response","43","253129","0.0-5.0-3.0-1.0-4.6","69807d4738a6a1d1a2774e67","not_provided","desktop","0","0","0","","","","","","working_memory","","null","<div class=""fixation"">Correct</div>","null","","","","","","","","","","","","","","","","",""
"html-keyboard-response","44","254139","0.0-5.0-3.0-1.0-0.7","69807d4738a6a1d1a2774e67","not_provided","desktop","0","0","0","","","","","","working_memory","","null","<div class=""fixation"">+</div>","null","","","","","","","","","","","","","","","","",""
"html-keyboard-response","45","254347","0.0-5.0-3.0-1.0-1.7","69807d4738a6a1d1a2774e67","not_provided","desktop","0","0","0","","","","","","working_memory","","null","<img class='c' src=images/squares/red.png><img class='a' src=images/squares/brown.png><img class='d' src=images/squares/blue.png><img class='f' src=images/squares/black.png><img class='g' src=images/squares/orange.png><img class='i' src=images/squares/yellow.png><img class='k' src=images/squares/cyan.png><img class='j' src=images/squares/green.png><div class=""fixation"">+</div>","null","","","memory","practice","7","8","","","","","","","","","","",""
"html-keyboard-response","46","255250","0.0-5.0-3.0-1.0-2.7","69807d4738a6a1d1a2774e67","not_provided","desktop","0","0","0","","","","","","working_memory","","null","<div class=""fixation"">+</div>","null","","","","","","","","","","","","","","","","",""
"html-keyboard-response","47","258026","0.0-5.0-3.0-1.0-3.7","69807d4738a6a1d1a2774e67","not_provided","desktop","0","0","0","","","","","","working_memory","","2773","<img class='k' src=images/squares/cyan.png><div class=""fixation"">+</div>","k","","","test","practice","7","8","k","true","","","","","","","","",""
"html-keyboard-response","48","258530","0.0-5.0-3.0-1.0-4.7","69807d4738a6a1d1a2774e67","not_provided","desktop","0","0","0","","","","","","working_memory","","null","<div class=""fixation"">Correct</div>","null","","","","","","","","","","","","","","","","",""
"html-keyboard-response","49","259537","0.0-5.0-3.0-1.0-0.8","69807d4738a6a1d1a2774e67","not_provided","desktop","0","0","0","","","","","","working_memory","","null","<div class=""fixation"">+</div>","null","","","","","","","","","","","","","","","","",""
"html-keyboard-response","50","259746","0.0-5.0-3.0-1.0-1.8","69807d4738a6a1d1a2774e67","not_provided","desktop","0","0","0","","","","","","working_memory","","null","<img class='a' src=images/squares/blue.png><img class='b' src=images/squares/brown.png><img class='d' src=images/squares/green.png><img class='e' src=images/squares/black.png><img class='h' src=images/squares/magenta.png><img class='g' src=images/squares/red.png><img class='l' src=images/squares/orange.png><img class='j' src=images/squares/cyan.png><div class=""fixation"">+</div>","null","","","memory","practice","8","8","","","","","","","","","","",""
"html-keyboard-response","51","260650","0.0-5.0-3.0-1.0-2.8","69807d4738a6a1d1a2774e67","not_provided","desktop","0","0","0","","","","","","working_memory","","null","<div class=""fixation"">+</div>","null","","","","","","","","","","","","","","","","",""
"html-keyboard-response","52","261819","0.0-5.0-3.0-1.0-3.8","69807d4738a6a1d1a2774e67","not_provided","desktop","0","0","0","","","","","","working_memory","","1167","<img class='h' src=images/squares/yellow.png><div class=""fixation"">+</div>","s","","","test","practice","8","8","s","true","","","","","","","","",""
"html-keyboard-response","53","262322","0.0-5.0-3.0-1.0-4.8","69807d4738a6a1d1a2774e67","not_provided","desktop","0","0","0","","","","","","working_memory","","null","<div class=""fixation"">Correct</div>","null","","","","","","","","","","","","","","","","",""
"html-keyboard-response","54","263330","0.0-5.0-3.0-1.0-0.9","69807d4738a6a1d1a2774e67","not_provided","desktop","0","0","0","","","","","","working_memory","","null","<div class=""fixation"">+</div>","null","","","","","","","","","","","","","","","","",""
"html-keyboard-response","55","263538","0.0-5.0-3.0-1.0-1.9","69807d4738a6a1d1a2774e67","not_provided","desktop","0","0","0","","","","","","working_memory","","null","<img class='b' src=images/squares/green.png><img class='c' src=images/squares/cyan.png><img class='f' src=images/squares/blue.png><img class='d' src=images/squares/magenta.png><img class='i' src=images/squares/red.png><img class='g' src=images/squares/yellow.png><img class='j' src=images/squares/orange.png><img class='l' src=images/squares/brown.png><div class=""fixation"">+</div>","null","","","memory","practice","9","8","","","","","","","","","","",""
"html-keyboard-response","56","264442","0.0-5.0-3.0-1.0-2.9","69807d4738a6a1d1a2774e67","not_provided","desktop","0","0","0","","","","","","working_memory","","null","<div class=""fixation"">+</div>","null","","","","","","","","","","","","","","","","",""
"html-keyboard-response","57","265835","0.0-5.0-3.0-1.0-3.9","69807d4738a6a1d1a2774e67","not_provided","desktop","0","0","0","","","","","","working_memory","","1391","<img class='d' src=images/squares/magenta.png><div class=""fixation"">+</div>","s","","","test","practice","9","8","k","false","","","","","","","","",""
"html-keyboard-response","58","266338","0.0-5.0-3.0-1.0-4.9","69807d4738a6a1d1a2774e67","not_provided","desktop","0","0","0","","","","","","working_memory","","null","<div class=""fixation"">Incorrect</div>","null","","","","","","","","","","","","","","","","",""
"html-keyboard-response","59","267345","0.0-5.0-3.0-1.0-0.10","69807d4738a6a1d1a2774e67","not_provided","desktop","0","0","0","","","","","","working_memory","","null","<div class=""fixation"">+</div>","null","","","","","","","","","","","","","","","","",""
"html-keyboard-response","60","267554","0.0-5.0-3.0-1.0-1.10","69807d4738a6a1d1a2774e67","not_provided","desktop","0","0","0","","","","","","working_memory","","null","<img class='b' src=images/squares/magenta.png><img class='a' src=images/squares/green.png><img class='e' src=images/squares/orange.png><img class='f' src=images/squares/cyan.png><img class='h' src=images/squares/yellow.png><img class='i' src=images/squares/brown.png><img class='j' src=images/squares/red.png><img class='k' src=images/squares/blue.png><div class=""fixation"">+</div>","null","","","memory","practice","10","8","","","","","","","","","","",""
"html-keyboard-response","61","268458","0.0-5.0-3.0-1.0-2.10","69807d4738a6a1d1a2774e67","not_provided","desktop","0","0","0","","","","","","working_memory","","null","<div class=""fixation"">+</div>","null","","","","","","","","","","","","","","","","",""
"html-keyboard-response","62","269876","0.0-5.0-3.0-1.0-3.10","69807d4738a6a1d1a2774e67","not_provided","desktop","0","0","0","","","","","","working_memory","","1416","<img class='a' src=images/squares/green.png><div class=""fixation"">+</div>","s","","","test","practice","10","8","k","false","","","","","","","","",""
"html-keyboard-response","63","270378","0.0-5.0-3.0-1.0-4.10","69807d4738a6a1d1a2774e67","not_provided","desktop","0","0","0","","","","","","working_memory","","null","<div class=""fixation"">Incorrect</div>","null","","","","","","","","","","","","","","","","",""
"html-keyboard-response","64","271386","0.0-5.0-3.0-1.0-0.11","69807d4738a6a1d1a2774e67","not_provided","desktop","0","0","0","","","","","","working_memory","","null","<div class=""fixation"">+</div>","null","","","","","","","","","","","","","","","","",""
"html-keyboard-response","65","271593","0.0-5.0-3.0-1.0-1.11","69807d4738a6a1d1a2774e67","not_provided","desktop","0","0","0","","","","","","working_memory","","null","<img class='upper3' src=images/squares/yellow.png><div class=""fixation"">+</div>","null","","","memory","practice","11","1","","","","","","","","","","",""
"html-keyboard-response","66","272498","0.0-5.0-3.0-1.0-2.11","69807d4738a6a1d1a2774e67","not_provided","desktop","0","0","0","","","","","","working_memory","","null","<div class=""fixation"">+</div>","null","","","","","","","","","","","","","","","","",""
"html-keyboard-response","67","273699","0.0-5.0-3.0-1.0-3.11","69807d4738a6a1d1a2774e67","not_provided","desktop","0","0","0","","","","","","working_memory","","1199","<img class='upper3' src=images/squares/brown.png><div class=""fixation"">+</div>","s","","","test","practice","11","1","s","true","","","","","","","","",""
"html-keyboard-response","68","274202","0.0-5.0-3.0-1.0-4.11","69807d4738a6a1d1a2774e67","not_provided","desktop","0","0","0","","","","","","working_memory","","null","<div class=""fixation"">Correct</div>","null","","","","","","","","","","","","","","","","",""
"html-keyboard-response","69","275210","0.0-5.0-3.0-1.0-0.12","69807d4738a6a1d1a2774e67","not_provided","desktop","0","0","0","","","","","","working_memory","","null","<div class=""fixation"">+</div>","null","","","","","","","","","","","","","","","","",""
"html-keyboard-response","70","275418","0.0-5.0-3.0-1.0-1.12","69807d4738a6a1d1a2774e67","not_provided","desktop","0","0","0","","","","","","working_memory","","null","<img class='a' src=images/squares/yellow.png><img class='c' src=images/squares/black.png><img class='f' src=images/squares/cyan.png><img class='e' src=images/squares/green.png><img class='h' src=images/squares/magenta.png><img class='i' src=images/squares/red.png><img class='j' src=images/squares/blue.png><img class='k' src=images/squares/orange.png><div class=""fixation"">+</div>","null","","","memory","practice","12","8","","","","","","","","","","",""
"html-keyboard-response","71","276322","0.0-5.0-3.0-1.0-2.12","69807d4738a6a1d1a2774e67","not_provided","desktop","0","0","0","","","","","","working_memory","","null","<div class=""fixation"">+</div>","null","","","","","","","","","","","","","","","","",""
"html-keyboard-response","72","280116","0.0-5.0-3.0-1.0-3.12","69807d4738a6a1d1a2774e67","not_provided","desktop","0","0","0","","","","","","working_memory","","3792","<img class='f' src=images/squares/cyan.png><div class=""fixation"">+</div>","k","","","test","practice","12","8","k","true","","","","","","","","",""
"html-keyboard-response","73","280618","0.0-5.0-3.0-1.0-4.12","69807d4738a6a1d1a2774e67","not_provided","desktop","0","0","0","","","","","","working_memory","","null","<div class=""fixation"">Correct</div>","null","","","","","","","","","","","","","","","","",""
"html-keyboard-response","74","281626","0.0-5.0-3.0-1.0-0.13","69807d4738a6a1d1a2774e67","not_provided","desktop","0","0","0","","","","","","working_memory","","null","<div class=""fixation"">+</div>","null","","","","","","","","","","","","","","","","",""
"html-keyboard-response","75","281834","0.0-5.0-3.0-1.0-1.13","69807d4738a6a1d1a2774e67","not_provided","desktop","0","0","0","","","","","","working_memory","","null","<img class='upper2' src=images/squares/green.png><div class=""fixation"">+</div>","null","","","memory","practice","13","1","","","","","","","","","","",""
"html-keyboard-response","76","282737","0.0-5.0-3.0-1.0-2.13","69807d4738a6a1d1a2774e67","not_provided","desktop","0","0","0","","","","","","working_memory","","null","<div class=""fixation"">+</div>","null","","","","","","","","","","","","","","","","",""
"html-keyboard-response","77","283803","0.0-5.0-3.0-1.0-3.13","69807d4738a6a1d1a2774e67","not_provided","desktop","0","0","0","","","","","","working_memory","","1063","<img class='upper2' src=images/squares/black.png><div class=""fixation"">+</div>","s","","","test","practice","13","1","s","true","","","","","","","","",""
"html-keyboard-response","78","284306","0.0-5.0-3.0-1.0-4.13","69807d4738a6a1d1a2774e67","not_provided","desktop","0","0","0","","","","","","working_memory","","null","<div class=""fixation"">Correct</div>","null","","","","","","","","","","","","","","","","",""
"html-keyboard-response","79","285314","0.0-5.0-3.0-1.0-0.14","69807d4738a6a1d1a2774e67","not_provided","desktop","0","0","0","","","","","","working_memory","","null","<div class=""fixation"">+</div>","null","","","","","","","","","","","","","","","","",""
"html-keyboard-response","80","285522","0.0-5.0-3.0-1.0-1.14","69807d4738a6a1d1a2774e67","not_provided","desktop","0","0","0","","","","","","working_memory","","null","<img class='c' src=images/squares/black.png><img class='d' src=images/squares/green.png><img class='i' src=images/squares/orange.png><img class='l' src=images/squares/red.png><div class=""fixation"">+</div>","null","","","memory","practice","14","4","","","","","","","","","","",""
"html-keyboard-response","81","286426","0.0-5.0-3.0-1.0-2.14","69807d4738a6a1d1a2774e67","not_provided","desktop","0","0","0","","","","","","working_memory","","null","<div class=""fixation"">+</div>","null","","","","","","","","","","","","","","","","",""
"html-keyboard-response","82","287611","0.0-5.0-3.0-1.0-3.14","69807d4738a6a1d1a2774e67","not_provided","desktop","0","0","0","","","","","","working_memory","","1183","<img class='l' src=images/squares/red.png><div class=""fixation"">+</div>","k","","","test","practice","14","4","k","true","","","","","","","","",""
"html-keyboard-response","83","288113","0.0-5.0-3.0-1.0-4.14","69807d4738a6a1d1a2774e67","not_provided","desktop","0","0","0","","","","","","working_memory","","null","<div class=""fixation"">Correct</div>","null","","","","","","","","","","","","","","","","",""
"html-keyboard-response","84","296132","0.0-5.0-4.0","69807d4738a6a1d1a2774e67","not_provided","desktop","0","0","0","","","","","","working_memory","","8012","<div style=""text-align:center;font-family:sans-serif;""><p>Good job! You have finished the practice.</p><p>We will now start the real experiment.</p><p>Please try to be as accurate as possible.</p><p><b><u>Note: random guessing may risk your payment.</u></b></p><br><p><b>Press any key to begin.</b></p></div>","k","","","","","","","","","","","","","","","","",""
"html-keyboard-response","85","297138","0.0-5.0-5.0-0.0","69807d4738a6a1d1a2774e67","not_provided","desktop","0","0","0","","","","","","working_memory","","null","<div class=""fixation"">+</div>","null","","","","","","","","","","","","","","","","",""
"html-keyboard-response","86","297346","0.0-5.0-5.0-1.0","69807d4738a6a1d1a2774e67","not_provided","desktop","0","0","0","","","","","","working_memory","","null","<img class='c' src=images/squares/brown.png><img class='b' src=images/squares/green.png><img class='e' src=images/squares/yellow.png><img class='f' src=images/squares/red.png><img class='i' src=images/squares/blue.png><img class='g' src=images/squares/cyan.png><img class='j' src=images/squares/magenta.png><img class='l' src=images/squares/black.png><div class=""fixation"">+</div>","null","","","memory","exp","0","","","","","","","","","","","",""
"html-keyboard-response","87","298249","0.0-5.0-5.0-2.0","69807d4738a6a1d1a2774e67","not_provided","desktop","0","0","0","","","","","","working_memory","","null","<div class=""fixation"">+</div>","null","","","","","","","","","","","","","","","","",""
"html-keyboard-response","88","299563","0.0-5.0-5.0-3.0","69807d4738a6a1d1a2774e67","not_provided","desktop","0","0","0","","","","","","working_memory","","1312","<img class='b' src=images/squares/orange.png><div class=""fixation"">+</div>","s","","","test_squares","exp","0","8","s","true","ks","d","","","","","","",""
"html-keyboard-response","89","300066","0.0-5.0-5.0-4.0","69807d4738a6a1d1a2774e67","not_provided","desktop","0","0","0","","","","","","working_memory","","null","<div class=""fixation"">Correct</div>","null","","","","","","","","","","","","","","","","",""
"html-keyboard-response","90","301074","0.0-5.0-5.0-0.1","69807d4738a6a1d1a2774e67","not_provided","desktop","0","0","0","","","","","","working_memory","","null","<div class=""fixation"">+</div>","null","","","","","","","","","","","","","","","","",""
"html-keyboard-response","91","301282","0.0-5.0-5.0-1.1","69807d4738a6a1d1a2774e67","not_provided","desktop","0","0","0","","","","","","working_memory","","null","<img class='a' src=images/squares/brown.png><img class='c' src=images/squares/cyan.png><img class='e' src=images/squares/orange.png><img class='f' src=images/squares/magenta.png><img class='h' src=images/squares/red.png><img class='g' src=images/squares/green.png><img class='k' src=images/squares/blue.png><img class='j' src=images/squares/yellow.png><div class=""fixation"">+</div>","null","","","memory","exp","1","","","","","","","","","","","",""
"html-keyboard-response","92","302186","0.0-5.0-5.0-2.1","69807d4738a6a1d1a2774e67","not_provided","desktop","0","0","0","","","","","","working_memory","","null","<div class=""fixation"">+</div>","null","","","","","","","","","","","","","","","","",""
"html-keyboard-response","93","304691","0.0-5.0-5.0-3.1","69807d4738a6a1d1a2774e67","not_provided","desktop","0","0","0","","","","","","working_memory","","2503","<img class='c' src=images/squares/cyan.png><div class=""fixation"">+</div>","k","","","test_squares","exp","1","8","k","true","ks","s","","","","","","",""
"html-keyboard-response","94","305194","0.0-5.0-5.0-4.1","69807d4738a6a1d1a2774e67","not_provided","desktop","0","0","0","","","","","","working_memory","","null","<div class=""fixation"">Correct</div>","null","","","","","","","","","","","","","","","","",""
"html-keyboard-response","95","306202","0.0-5.0-5.0-0.2","69807d4738a6a1d1a2774e67","not_provided","desktop","0","0","0","","","","","","working_memory","","null","<div class=""fixation"">+</div>","null","","","","","","","","","","","","","","","","",""
"html-keyboard-response","96","306409","0.0-5.0-5.0-1.2","69807d4738a6a1d1a2774e67","not_provided","desktop","0","0","0","","","","","","working_memory","","null","<img class='b' src=images/squares/magenta.png><img class='f' src=images/squares/black.png><img class='i' src=images/squares/yellow.png><img class='k' src=images/squares/cyan.png><div class=""fixation"">+</div>","null","","","memory","exp","2","","","","","","","","","","","",""
"html-keyboard-response","97","307314","0.0-5.0-5.0-2.2","69807d4738a6a1d1a2774e67","not_provided","desktop","0","0","0","","","","","","working_memory","","null","<div class=""fixation"">+</div>","null","","","","","","","","","","","","","","","","",""
"html-keyboard-response","98","308508","0.0-5.0-5.0-3.2","69807d4738a6a1d1a2774e67","not_provided","desktop","0","0","0","","","","","","working_memory","","1192","<img class='i' src=images/squares/orange.png><div class=""fixation"">+</div>","s","","","test_squares","exp","2","4","s","true","ks","d","","","","","","",""
"html-keyboard-response","99","309010","0.0-5.0-5.0-4.2","69807d4738a6a1d1a2774e67","not_provided","desktop","0","0","0","","","","","","working_memory","","null","<div class=""fixation"">Correct</div>","null","","","","","","","","","","","","","","","","",""
"html-keyboard-response","100","310019","0.0-5.0-5.0-0.3","69807d4738a6a1d1a2774e67","not_provided","desktop","0","0","0","","","","","","working_memory","","null","<div class=""fixation"">+</div>","null","","","","","","","","","","","","","","","","",""
"html-keyboard-response","101","310227","0.0-5.0-5.0-1.3","69807d4738a6a1d1a2774e67","not_provided","desktop","0","0","0","","","","","","working_memory","","null","<img class='a' src=images/squares/brown.png><img class='d' src=images/squares/green.png><img class='i' src=images/squares/orange.png><img class='j' src=images/squares/black.png><div class=""fixation"">+</div>","null","","","memory","exp","3","","","","","","","","","","","",""
"html-keyboard-response","102","311130","0.0-5.0-5.0-2.3","69807d4738a6a1d1a2774e67","not_provided","desktop","0","0","0","","","","","","working_memory","","null","<div class=""fixation"">+</div>","null","","","","","","","","","","","","","","","","",""
"html-keyboard-response","103","311907","0.0-5.0-5.0-3.3","69807d4738a6a1d1a2774e67","not_provided","desktop","0","0","0","","","","","","working_memory","","775","<img class='d' src=images/squares/green.png><div class=""fixation"">+</div>","k","","","test_squares","exp","3","4","k","true","ks","s","","","","","","",""
"html-keyboard-response","104","312410","0.0-5.0-5.0-4.3","69807d4738a6a1d1a2774e67","not_provided","desktop","0","0","0","","","","","","working_memory","","null","<div class=""fixation"">Correct</div>","null","","","","","","","","","","","","","","","","",""
"html-keyboard-response","105","313419","0.0-5.0-5.0-0.4","69807d4738a6a1d1a2774e67","not_provided","desktop","0","0","0","","","","","","working_memory","","null","<div class=""fixation"">+</div>","null","","","","","","","","","","","","","","","","",""
"html-keyboard-response","106","313626","0.0-5.0-5.0-1.4","69807d4738a6a1d1a2774e67","not_provided","desktop","0","0","0","","","","","","working_memory","","null","<img class='a' src=images/squares/green.png><img class='d' src=images/squares/cyan.png><img class='i' src=images/squares/magenta.png><img class='j' src=images/squares/blue.png><div class=""fixation"">+</div>","null","","","memory","exp","4","","","","","","","","","","","",""
"html-keyboard-response","107","314530","0.0-5.0-5.0-2.4","69807d4738a6a1d1a2774e67","not_provided","desktop","0","0","0","","","","","","working_memory","","null","<div class=""fixation"">+</div>","null","","","","","","","","","","","","","","","","",""
"html-keyboard-response","108","315481","0.0-5.0-5.0-3.4","69807d4738a6a1d1a2774e67","not_provided","desktop","0","0","0","","","","","","working_memory","","950","<img class='i' src=images/squares/black.png><div class=""fixation"">+</div>","s","","","test_squares","exp","4","4","s","true","ks","d","","","","","","",""
"html-keyboard-response","109","315985","0.0-5.0-5.0-4.4","69807d4738a6a1d1a2774e67","not_provided","desktop","0","0","0","","","","","","working_memory","","null","<div class=""fixation"">Correct</div>","null","","","","","","","","","","","","","","","","",""
"html-keyboard-response","110","316993","0.0-5.0-5.0-0.5","69807d4738a6a1d1a2774e67","not_provided","desktop","0","0","0","","","","","","working_memory","","null","<div class=""fixation"">+</div>","null","","","","","","","","","","","","","","","","",""
"html-keyboard-response","111","317201","0.0-5.0-5.0-1.5","69807d4738a6a1d1a2774e67","not_provided","desktop","0","0","0","","","","","","working_memory","","null","<img class='b' src=images/squares/yellow.png><img class='f' src=images/squares/green.png><img class='h' src=images/squares/blue.png><img class='k' src=images/squares/magenta.png><div class=""fixation"">+</div>","null","","","memory","exp","5","","","","","","","","","","","",""
"html-keyboard-response","112","318106","0.0-5.0-5.0-2.5","69807d4738a6a1d1a2774e67","not_provided","desktop","0","0","0","","","","","","working_memory","","null","<div class=""fixation"">+</div>","null","","","","","","","","","","","","","","","","",""
"html-keyboard-response","113","319201","0.0-5.0-5.0-3.5","69807d4738a6a1d1a2774e67","not_provided","desktop","0","0","0","","","","","","working_memory","","1095","<img class='b' src=images/squares/brown.png><div class=""fixation"">+</div>","s","","","test_squares","exp","5","4","s","true","ks","d","","","","","","",""
"html-keyboard-response","114","319706","0.0-5.0-5.0-4.5","69807d4738a6a1d1a2774e67","not_provided","desktop","0","0","0","","","","","","working_memory","","null","<div class=""fixation"">Correct</div>","null","","","","","","","","","","","","","","","","",""
"html-keyboard-response","115","320714","0.0-5.0-5.0-0.6","69807d4738a6a1d1a2774e67","not_provided","desktop","0","0","0","","","","","","working_memory","","null","<div class=""fixation"">+</div>","null","","","","","","","","","","","","","","","","",""
"html-keyboard-response","116","320922","0.0-5.0-5.0-1.6","69807d4738a6a1d1a2774e67","not_provided","desktop","0","0","0","","","","","","working_memory","","null","<img class='a' src=images/squares/green.png><img class='c' src=images/squares/black.png><img class='e' src=images/squares/cyan.png><img class='d' src=images/squares/yellow.png><img class='h' src=images/squares/brown.png><img class='i' src=images/squares/red.png><img class='l' src=images/squares/orange.png><img class='j' src=images/squares/magenta.png><div class=""fixation"">+</div>","null","","","memory","exp","6","","","","","","","","","","","",""
"html-keyboard-response","117","321826","0.0-5.0-5.0-2.6","69807d4738a6a1d1a2774e67","not_provided","desktop","0","0","0","","","","","","working_memory","","null","<div class=""fixation"">+</div>","null","","","","","","","","","","","","","","","","",""
"html-keyboard-response","118","322699","0.0-5.0-5.0-3.6","69807d4738a6a1d1a2774e67","not_provided","desktop","0","0","0","","","","","","working_memory","","871","<img class='e' src=images/squares/blue.png><div class=""fixation"">+</div>","s","","","test_squares","exp","6","8","s","true","ks","d","","","","","","",""
"html-keyboard-response","119","323202","0.0-5.0-5.0-4.6","69807d4738a6a1d1a2774e67","not_provided","desktop","0","0","0","","","","","","working_memory","","null","<div class=""fixation"">Correct</div>","null","","","","","","","","","","","","","","","","",""
"html-keyboard-response","120","324210","0.0-5.0-5.0-0.7","69807d4738a6a1d1a2774e67","not_provided","desktop","0","0","0","","","","","","working_memory","","null","<div class=""fixation"">+</div>","null","","","","","","","","","","","","","","","","",""
"html-keyboard-response","121","324417","0.0-5.0-5.0-1.7","69807d4738a6a1d1a2774e67","not_provided","desktop","0","0","0","","","","","","working_memory","","null","<img class='b' src=images/squares/red.png><img class='e' src=images/squares/magenta.png><img class='i' src=images/squares/yellow.png><img class='k' src=images/squares/black.png><div class=""fixation"">+</div>","null","","","memory","exp","7","","","","","","","","","","","",""
"html-keyboard-response","122","325323","0.0-5.0-5.0-2.7","69807d4738a6a1d1a2774e67","not_provided","desktop","0","0","0","","","","","","working_memory","","null","<div class=""fixation"">+</div>","null","","","","","","","","","","","","","","","","",""
"html-keyboard-response","123","326123","0.0-5.0-5.0-3.7","69807d4738a6a1d1a2774e67","not_provided","desktop","0","0","0","","","","","","working_memory","","798","<img class='e' src=images/squares/magenta.png><div class=""fixation"">+</div>","k","","","test_squares","exp","7","4","k","true","ks","s","","","","","","",""
"html-keyboard-response","124","326626","0.0-5.0-5.0-4.7","69807d4738a6a1d1a2774e67","not_provided","desktop","0","0","0","","","","","","working_memory","","null","<div class=""fixation"">Correct</div>","null","","","","","","","","","","","","","","","","",""
"html-keyboard-response","125","327634","0.0-5.0-5.0-0.8","69807d4738a6a1d1a2774e67","not_provided","desktop","0","0","0","","","","","","working_memory","","null","<div class=""fixation"">+</div>","null","","","","","","","","","","","","","","","","",""
"html-keyboard-response","126","327842","0.0-5.0-5.0-1.8","69807d4738a6a1d1a2774e67","not_provided","desktop","0","0","0","","","","","","working_memory","","null","<img class='b' src=images/squares/yellow.png><img class='c' src=images/squares/cyan.png><img class='d' src=images/squares/green.png><img class='f' src=images/squares/orange.png><img class='g' src=images/squares/brown.png><img class='i' src=images/squares/black.png><img class='j' src=images/squares/red.png><img class='k' src=images/squares/magenta.png><div class=""fixation"">+</div>","null","","","memory","exp","8","","","","","","","","","","","",""
"html-keyboard-response","127","328746","0.0-5.0-5.0-2.8","69807d4738a6a1d1a2774e67","not_provided","desktop","0","0","0","","","","","","working_memory","","null","<div class=""fixation"">+</div>","null","","","","","","","","","","","","","","","","",""
"html-keyboard-response","128","329587","0.0-5.0-5.0-3.8","69807d4738a6a1d1a2774e67","not_provided","desktop","0","0","0","","","","","","working_memory","","840","<img class='i' src=images/squares/black.png><div class=""fixation"">+</div>","k","","","test_squares","exp","8","8","k","true","ks","s","","","","","","",""
"html-keyboard-response","129","330090","0.0-5.0-5.0-4.8","69807d4738a6a1d1a2774e67","not_provided","desktop","0","0","0","","","","","","working_memory","","null","<div class=""fixation"">Correct</div>","null","","","","","","","","","","","","","","","","",""
"html-keyboard-response","130","331098","0.0-5.0-5.0-0.9","69807d4738a6a1d1a2774e67","not_provided","desktop","0","0","0","","","","","","working_memory","","null","<div class=""fixation"">+</div>","null","","","","","","","","","","","","","","","","",""
"html-keyboard-response","131","331306","0.0-5.0-5.0-1.9","69807d4738a6a1d1a2774e67","not_provided","desktop","0","0","0","","","","","","working_memory","","null","<img class='a' src=images/squares/cyan.png><img class='b' src=images/squares/blue.png><img class='e' src=images/squares/brown.png><img class='f' src=images/squares/green.png><img class='i' src=images/squares/orange.png><img class='g' src=images/squares/red.png><img class='j' src=images/squares/magenta.png><img class='l' src=images/squares/black.png><div class=""fixation"">+</div>","null","","","memory","exp","9","","","","","","","","","","","",""
"html-keyboard-response","132","332210","0.0-5.0-5.0-2.9","69807d4738a6a1d1a2774e67","not_provided","desktop","0","0","0","","","","","","working_memory","","null","<div class=""fixation"">+</div>","null","","","","","","","","","","","","","","","","",""
"html-keyboard-response","133","332923","0.0-5.0-5.0-3.9","69807d4738a6a1d1a2774e67","not_provided","desktop","0","0","0","","","","","","working_memory","","710","<img class='l' src=images/squares/yellow.png><div class=""fixation"">+</div>","s","","","test_squares","exp","9","8","s","true","ks","d","","","","","","",""
"html-keyboard-response","134","333426","0.0-5.0-5.0-4.9","69807d4738a6a1d1a2774e67","not_provided","desktop","0","0","0","","","","","","working_memory","","null","<div class=""fixation"">Correct</div>","null","","","","","","","","","","","","","","","","",""
"html-keyboard-response","135","334433","0.0-5.0-5.0-0.10","69807d4738a6a1d1a2774e67","not_provided","desktop","0","0","0","","","","","","working_memory","","null","<div class=""fixation"">+</div>","null","","","","","","","","","","","","","","","","",""
"html-keyboard-response","136","334642","0.0-5.0-5.0-1.10","69807d4738a6a1d1a2774e67","not_provided","desktop","0","0","0","","","","","","working_memory","","null","<img class='a' src=images/squares/yellow.png><img class='f' src=images/squares/cyan.png><img class='i' src=images/squares/black.png><img class='j' src=images/squares/green.png><div class=""fixation"">+</div>","null","","","memory","exp","10","","","","","","","","","","","",""
"html-keyboard-response","137","335545","0.0-5.0-5.0-2.10","69807d4738a6a1d1a2774e67","not_provided","desktop","0","0","0","","","","","","working_memory","","null","<div class=""fixation"">+</div>","null","","","","","","","","","","","","","","","","",""
"html-keyboard-response","138","336283","0.0-5.0-5.0-3.10","69807d4738a6a1d1a2774e67","not_provided","desktop","0","0","0","","","","","","working_memory","","735","<img class='f' src=images/squares/blue.png><div class=""fixation"">+</div>","s","","","test_squares","exp","10","4","s","true","ks","d","","","","","","",""
"html-keyboard-response","139","336785","0.0-5.0-5.0-4.10","69807d4738a6a1d1a2774e67","not_provided","desktop","0","0","0","","","","","","working_memory","","null","<div class=""fixation"">Correct</div>","null","","","","","","","","","","","","","","","","",""
"html-keyboard-response","140","337794","0.0-5.0-5.0-0.11","69807d4738a6a1d1a2774e67","not_provided","desktop","0","0","0","","","","","","working_memory","","null","<div class=""fixation"">+</div>","null","","","","","","","","","","","","","","","","",""
"html-keyboard-response","141","338002","0.0-5.0-5.0-1.11","69807d4738a6a1d1a2774e67","not_provided","desktop","0","0","0","","","","","","working_memory","","null","<img class='c' src=images/squares/cyan.png><img class='f' src=images/squares/yellow.png><img class='i' src=images/squares/brown.png><img class='j' src=images/squares/orange.png><div class=""fixation"">+</div>","null","","","memory","exp","11","","","","","","","","","","","",""
"html-keyboard-response","142","338906","0.0-5.0-5.0-2.11","69807d4738a6a1d1a2774e67","not_provided","desktop","0","0","0","","","","","","working_memory","","null","<div class=""fixation"">+</div>","null","","","","","","","","","","","","","","","","",""
"html-keyboard-response","143","339788","0.0-5.0-5.0-3.11","69807d4738a6a1d1a2774e67","not_provided","desktop","0","0","0","","","","","","working_memory","","880","<img class='f' src=images/squares/magenta.png><div class=""fixation"">+</div>","s","","","test_squares","exp","11","4","s","true","ks","d","","","","","","",""
"html-keyboard-response","144","340290","0.0-5.0-5.0-4.11","69807d4738a6a1d1a2774e67","not_provided","desktop","0","0","0","","","","","","working_memory","","null","<div class=""fixation"">Correct</div>","null","","","","","","","","","","","","","","","","",""
"html-keyboard-response","145","341299","0.0-5.0-5.0-0.12","69807d4738a6a1d1a2774e67","not_provided","desktop","0","0","0","","","","","","working_memory","","null","<div class=""fixation"">+</div>","null","","","","","","","","","","","","","","","","",""
"html-keyboard-response","146","341506","0.0-5.0-5.0-1.12","69807d4738a6a1d1a2774e67","not_provided","desktop","0","0","0","","","","","","working_memory","","null","<img class='b' src=images/squares/blue.png><img class='d' src=images/squares/yellow.png><img class='g' src=images/squares/black.png><img class='k' src=images/squares/green.png><div class=""fixation"">+</div>","null","","","memory","exp","12","","","","","","","","","","","",""
"html-keyboard-response","147","342411","0.0-5.0-5.0-2.12","69807d4738a6a1d1a2774e67","not_provided","desktop","0","0","0","","","","","","working_memory","","null","<div class=""fixation"">+</div>","null","","","","","","","","","","","","","","","","",""
"html-keyboard-response","148","343163","0.0-5.0-5.0-3.12","69807d4738a6a1d1a2774e67","not_provided","desktop","0","0","0","","","","","","working_memory","","750","<img class='g' src=images/squares/cyan.png><div class=""fixation"">+</div>","s","","","test_squares","exp","12","4","s","true","ks","d","","","","","","",""
"html-keyboard-response","149","343667","0.0-5.0-5.0-4.12","69807d4738a6a1d1a2774e67","not_provided","desktop","0","0","0","","","","","","working_memory","","null","<div class=""fixation"">Correct</div>","null","","","","","","","","","","","","","","","","",""
"html-keyboard-response","150","344673","0.0-5.0-5.0-0.13","69807d4738a6a1d1a2774e67","not_provided","desktop","0","0","0","","","","","","working_memory","","null","<div class=""fixation"">+</div>","null","","","","","","","","","","","","","","","","",""
"html-keyboard-response","151","344882","0.0-5.0-5.0-1.13","69807d4738a6a1d1a2774e67","not_provided","desktop","0","0","0","","","","","","working_memory","","null","<img class='a' src=images/squares/blue.png><img class='b' src=images/squares/green.png><img class='e' src=images/squares/magenta.png><img class='f' src=images/squares/red.png><img class='h' src=images/squares/yellow.png><img class='g' src=images/squares/black.png><img class='k' src=images/squares/orange.png><img class='j' src=images/squares/cyan.png><div class=""fixation"">+</div>","null","","","memory","exp","13","","","","","","","","","","","",""
"html-keyboard-response","152","345787","0.0-5.0-5.0-2.13","69807d4738a6a1d1a2774e67","not_provided","desktop","0","0","0","","","","","","working_memory","","null","<div class=""fixation"">+</div>","null","","","","","","","","","","","","","","","","",""
"html-keyboard-response","153","346651","0.0-5.0-5.0-3.13","69807d4738a6a1d1a2774e67","not_provided","desktop","0","0","0","","","","","","working_memory","","861","<img class='b' src=images/squares/green.png><div class=""fixation"">+</div>","s","","","test_squares","exp","13","8","k","false","ks","s","","","","","","",""
"html-keyboard-response","154","347154","0.0-5.0-5.0-4.13","69807d4738a6a1d1a2774e67","not_provided","desktop","0","0","0","","","","","","working_memory","","null","<div class=""fixation"">Incorrect</div>","null","","","","","","","","","","","","","","","","",""
"html-keyboard-response","155","348162","0.0-5.0-5.0-0.14","69807d4738a6a1d1a2774e67","not_provided","desktop","0","0","0","","","","","","working_memory","","null","<div class=""fixation"">+</div>","null","","","","","","","","","","","","","","","","",""
"html-keyboard-response","156","348369","0.0-5.0-5.0-1.14","69807d4738a6a1d1a2774e67","not_provided","desktop","0","0","0","","","","","","working_memory","","null","<img class='b' src=images/squares/green.png><img class='a' src=images/squares/brown.png><img class='f' src=images/squares/red.png><img class='d' src=images/squares/blue.png><img class='g' src=images/squares/magenta.png><img class='i' src=images/squares/black.png><img class='j' src=images/squares/yellow.png><img class='k' src=images/squares/orange.png><div class=""fixation"">+</div>","null","","","memory","exp","14","","","","","","","","","","","",""
"html-keyboard-response","157","349274","0.0-5.0-5.0-2.14","69807d4738a6a1d1a2774e67","not_provided","desktop","0","0","0","","","","","","working_memory","","null","<div class=""fixation"">+</div>","null","","","","","","","","","","","","","","","","",""
"html-keyboard-response","158","350036","0.0-5.0-5.0-3.14","69807d4738a6a1d1a2774e67","not_provided","desktop","0","0","0","","","","","","working_memory","","759","<img class='g' src=images/squares/magenta.png><div class=""fixation"">+</div>","s","","","test_squares","exp","14","8","k","false","ks","s","","","","","","",""
"html-keyboard-response","159","350537","0.0-5.0-5.0-4.14","69807d4738a6a1d1a2774e67","not_provided","desktop","0","0","0","","","","","","working_memory","","null","<div class=""fixation"">Incorrect</div>","null","","","","","","","","","","","","","","","","",""
"html-keyboard-response","160","351546","0.0-5.0-5.0-0.15","69807d4738a6a1d1a2774e67","not_provided","desktop","0","0","0","","","","","","working_memory","","null","<div class=""fixation"">+</div>","null","","","","","","","","","","","","","","","","",""
"html-keyboard-response","161","351754","0.0-5.0-5.0-1.15","69807d4738a6a1d1a2774e67","not_provided","desktop","0","0","0","","","","","","working_memory","","null","<img class='c' src=images/squares/magenta.png><img class='f' src=images/squares/green.png><img class='h' src=images/squares/cyan.png><img class='j' src=images/squares/red.png><div class=""fixation"">+</div>","null","","","memory","exp","15","","","","","","","","","","","",""
"html-keyboard-response","162","352658","0.0-5.0-5.0-2.15","69807d4738a6a1d1a2774e67","not_provided","desktop","0","0","0","","","","","","working_memory","","null","<div class=""fixation"">+</div>","null","","","","","","","","","","","","","","","","",""
"html-keyboard-response","163","353499","0.0-5.0-5.0-3.15","69807d4738a6a1d1a2774e67","not_provided","desktop","0","0","0","","","","","","working_memory","","839","<img class='c' src=images/squares/magenta.png><div class=""fixation"">+</div>","k","","","test_squares","exp","15","4","k","true","ks","s","","","","","","",""
"html-keyboard-response","164","354002","0.0-5.0-5.0-4.15","69807d4738a6a1d1a2774e67","not_provided","desktop","0","0","0","","","","","","working_memory","","null","<div class=""fixation"">Correct</div>","null","","","","","","","","","","","","","","","","",""
"html-keyboard-response","165","355010","0.0-5.0-5.0-0.16","69807d4738a6a1d1a2774e67","not_provided","desktop","0","0","0","","","","","","working_memory","","null","<div class=""fixation"">+</div>","null","","","","","","","","","","","","","","","","",""
"html-keyboard-response","166","355218","0.0-5.0-5.0-1.16","69807d4738a6a1d1a2774e67","not_provided","desktop","0","0","0","","","","","","working_memory","","null","<img class='b' src=images/squares/brown.png><img class='e' src=images/squares/green.png><img class='h' src=images/squares/black.png><img class='j' src=images/squares/yellow.png><div class=""fixation"">+</div>","null","","","memory","exp","16","","","","","","","","","","","",""
"html-keyboard-response","167","356122","0.0-5.0-5.0-2.16","69807d4738a6a1d1a2774e67","not_provided","desktop","0","0","0","","","","","","working_memory","","null","<div class=""fixation"">+</div>","null","","","","","","","","","","","","","","","","",""
"html-keyboard-response","168","356947","0.0-5.0-5.0-3.16","69807d4738a6a1d1a2774e67","not_provided","desktop","0","0","0","","","","","","working_memory","","823","<img class='h' src=images/squares/orange.png><div class=""fixation"">+</div>","s","","","test_squares","exp","16","4","s","true","ks","d","","","","","","",""
"html-keyboard-response","169","357450","0.0-5.0-5.0-4.16","69807d4738a6a1d1a2774e67","not_provided","desktop","0","0","0","","","","","","working_memory","","null","<div class=""fixation"">Correct</div>","null","","","","","","","","","","","","","","","","",""
"html-keyboard-response","170","358457","0.0-5.0-5.0-0.17","69807d4738a6a1d1a2774e67","not_provided","desktop","0","0","0","","","","","","working_memory","","null","<div class=""fixation"">+</div>","null","","","","","","","","","","","","","","","","",""
"html-keyboard-response","171","358666","0.0-5.0-5.0-1.17","69807d4738a6a1d1a2774e67","not_provided","desktop","0","0","0","","","","","","working_memory","","null","<img class='b' src=images/squares/black.png><img class='a' src=images/squares/magenta.png><img class='d' src=images/squares/green.png><img class='f' src=images/squares/yellow.png><img class='i' src=images/squares/cyan.png><img class='g' src=images/squares/blue.png><img class='j' src=images/squares/red.png><img class='k' src=images/squares/orange.png><div class=""fixation"">+</div>","null","","","memory","exp","17","","","","","","","","","","","",""
"html-keyboard-response","172","359571","0.0-5.0-5.0-2.17","69807d4738a6a1d1a2774e67","not_provided","desktop","0","0","0","","","","","","working_memory","","null","<div class=""fixation"">+</div>","null","","","","","","","","","","","","","","","","",""
"html-keyboard-response","173","360563","0.0-5.0-5.0-3.17","69807d4738a6a1d1a2774e67","not_provided","desktop","0","0","0","","","","","","working_memory","","990","<img class='d' src=images/squares/green.png><div class=""fixation"">+</div>","s","","","test_squares","exp","17","8","k","false","ks","s","","","","","","",""
"html-keyboard-response","174","361067","0.0-5.0-5.0-4.17","69807d4738a6a1d1a2774e67","not_provided","desktop","0","0","0","","","","","","working_memory","","null","<div class=""fixation"">Incorrect</div>","null","","","","","","","","","","","","","","","","",""
"html-keyboard-response","175","362074","0.0-5.0-5.0-0.18","69807d4738a6a1d1a2774e67","not_provided","desktop","0","0","0","","","","","","working_memory","","null","<div class=""fixation"">+</div>","null","","","","","","","","","","","","","","","","",""
"html-keyboard-response","176","362282","0.0-5.0-5.0-1.18","69807d4738a6a1d1a2774e67","not_provided","desktop","0","0","0","","","","","","working_memory","","null","<img class='b' src=images/squares/red.png><img class='c' src=images/squares/blue.png><img class='f' src=images/squares/magenta.png><img class='d' src=images/squares/brown.png><img class='h' src=images/squares/black.png><img class='g' src=images/squares/cyan.png><img class='k' src=images/squares/orange.png><img class='l' src=images/squares/green.png><div class=""fixation"">+</div>","null","","","memory","exp","18","","","","","","","","","","","",""
"html-keyboard-response","177","363186","0.0-5.0-5.0-2.18","69807d4738a6a1d1a2774e67","not_provided","desktop","0","0","0","","","","","","working_memory","","null","<div class=""fixation"">+</div>","null","","","","","","","","","","","","","","","","",""
"html-keyboard-response","178","363955","0.0-5.0-5.0-3.18","69807d4738a6a1d1a2774e67","not_provided","desktop","0","0","0","","","","","","working_memory","","766","<img class='h' src=images/squares/black.png><div class=""fixation"">+</div>","k","","","test_squares","exp","18","8","k","true","ks","s","","","","","","",""
"html-keyboard-response","179","364458","0.0-5.0-5.0-4.18","69807d4738a6a1d1a2774e67","not_provided","desktop","0","0","0","","","","","","working_memory","","null","<div class=""fixation"">Correct</div>","null","","","","","","","","","","","","","","","","",""
"html-keyboard-response","180","365467","0.0-5.0-5.0-0.19","69807d4738a6a1d1a2774e67","not_provided","desktop","0","0","0","","","","","","working_memory","","null","<div class=""fixation"">+</div>","null","","","","","","","","","","","","","","","","",""
"html-keyboard-response","181","365674","0.0-5.0-5.0-1.19","69807d4738a6a1d1a2774e67","not_provided","desktop","0","0","0","","","","","","working_memory","","null","<img class='c' src=images/squares/brown.png><img class='a' src=images/squares/green.png><img class='f' src=images/squares/blue.png><img class='d' src=images/squares/magenta.png><img class='h' src=images/squares/orange.png><img class='i' src=images/squares/black.png><img class='l' src=images/squares/cyan.png><img class='k' src=images/squares/yellow.png><div class=""fixation"">+</div>","null","","","memory","exp","19","","","","","","","","","","","",""
"html-keyboard-response","182","366578","0.0-5.0-5.0-2.19","69807d4738a6a1d1a2774e67","not_provided","desktop","0","0","0","","","","","","working_memory","","null","<div class=""fixation"">+</div>","null","","","","","","","","","","","","","","","","",""
"html-keyboard-response","183","367563","0.0-5.0-5.0-3.19","69807d4738a6a1d1a2774e67","not_provided","desktop","0","0","0","","","","","","working_memory","","983","<img class='l' src=images/squares/red.png><div class=""fixation"">+</div>","s","","","test_squares","exp","19","8","s","true","ks","d","","","","","","",""
"html-keyboard-response","184","368066","0.0-5.0-5.0-4.19","69807d4738a6a1d1a2774e67","not_provided","desktop","0","0","0","","","","","","working_memory","","null","<div class=""fixation"">Correct</div>","null","","","","","","","","","","","","","","","","",""
"html-keyboard-response","185","369073","0.0-5.0-5.0-0.20","69807d4738a6a1d1a2774e67","not_provided","desktop","0","0","0","","","","","","working_memory","","null","<div class=""fixation"">+</div>","null","","","","","","","","","","","","","","","","",""
"html-keyboard-response","186","369282","0.0-5.0-5.0-1.20","69807d4738a6a1d1a2774e67","not_provided","desktop","0","0","0","","","","","","working_memory","","null","<img class='c' src=images/squares/yellow.png><img class='b' src=images/squares/black.png><img class='f' src=images/squares/red.png><img class='e' src=images/squares/blue.png><img class='i' src=images/squares/cyan.png><img class='h' src=images/squares/brown.png><img class='k' src=images/squares/green.png><img class='j' src=images/squares/magenta.png><div class=""fixation"">+</div>","null","","","memory","exp","20","","","","","","","","","","","",""
"html-keyboard-response","187","370186","0.0-5.0-5.0-2.20","69807d4738a6a1d1a2774e67","not_provided","desktop","0","0","0","","","","","","working_memory","","null","<div class=""fixation"">+</div>","null","","","","","","","","","","","","","","","","",""
"html-keyboard-response","188","370875","0.0-5.0-5.0-3.20","69807d4738a6a1d1a2774e67","not_provided","desktop","0","0","0","","","","","","working_memory","","687","<img class='k' src=images/squares/orange.png><div class=""fixation"">+</div>","s","","","test_squares","exp","20","8","s","true","ks","d","","","","","","",""
"html-keyboard-response","189","371378","0.0-5.0-5.0-4.20","69807d4738a6a1d1a2774e67","not_provided","desktop","0","0","0","","","","","","working_memory","","null","<div class=""fixation"">Correct</div>","null","","","","","","","","","","","","","","","","",""
"html-keyboard-response","190","372386","0.0-5.0-5.0-0.21","69807d4738a6a1d1a2774e67","not_provided","desktop","0","0","0","","","","","","working_memory","","null","<div class=""fixation"">+</div>","null","","","","","","","","","","","","","","","","",""
"html-keyboard-response","191","372594","0.0-5.0-5.0-1.21","69807d4738a6a1d1a2774e67","not_provided","desktop","0","0","0","","","","","","working_memory","","null","<img class='a' src=images/squares/blue.png><img class='c' src=images/squares/red.png><img class='e' src=images/squares/green.png><img class='d' src=images/squares/magenta.png><img class='h' src=images/squares/yellow.png><img class='i' src=images/squares/orange.png><img class='k' src=images/squares/brown.png><img class='j' src=images/squares/black.png><div class=""fixation"">+</div>","null","","","memory","exp","21","","","","","","","","","","","",""
"html-keyboard-response","192","373498","0.0-5.0-5.0-2.21","69807d4738a6a1d1a2774e67","not_provided","desktop","0","0","0","","","","","","working_memory","","null","<div class=""fixation"">+</div>","null","","","","","","","","","","","","","","","","",""
"html-keyboard-response","193","374555","0.0-5.0-5.0-3.21","69807d4738a6a1d1a2774e67","not_provided","desktop","0","0","0","","","","","","working_memory","","1055","<img class='j' src=images/squares/black.png><div class=""fixation"">+</div>","s","","","test_squares","exp","21","8","k","false","ks","s","","","","","","",""
"html-keyboard-response","194","375057","0.0-5.0-5.0-4.21","69807d4738a6a1d1a2774e67","not_provided","desktop","0","0","0","","","","","","working_memory","","null","<div class=""fixation"">Incorrect</div>","null","","","","","","","","","","","","","","","","",""
"html-keyboard-response","195","376066","0.0-5.0-5.0-0.22","69807d4738a6a1d1a2774e67","not_provided","desktop","0","0","0","","","","","","working_memory","","null","<div class=""fixation"">+</div>","null","","","","","","","","","","","","","","","","",""
"html-keyboard-response","196","376273","0.0-5.0-5.0-1.22","69807d4738a6a1d1a2774e67","not_provided","desktop","0","0","0","","","","","","working_memory","","null","<img class='c' src=images/squares/orange.png><img class='a' src=images/squares/black.png><img class='d' src=images/squares/magenta.png><img class='f' src=images/squares/cyan.png><img class='g' src=images/squares/green.png><img class='i' src=images/squares/blue.png><img class='j' src=images/squares/yellow.png><img class='l' src=images/squares/red.png><div class=""fixation"">+</div>","null","","","memory","exp","22","","","","","","","","","","","",""
"html-keyboard-response","197","377178","0.0-5.0-5.0-2.22","69807d4738a6a1d1a2774e67","not_provided","desktop","0","0","0","","","","","","working_memory","","null","<div class=""fixation"">+</div>","null","","","","","","","","","","","","","","","","",""
"html-keyboard-response","198","377993","0.0-5.0-5.0-3.22","69807d4738a6a1d1a2774e67","not_provided","desktop","0","0","0","","","","","","working_memory","","814","<img class='j' src=images/squares/yellow.png><div class=""fixation"">+</div>","k","","","test_squares","exp","22","8","k","true","ks","s","","","","","","",""
"html-keyboard-response","199","378498","0.0-5.0-5.0-4.22","69807d4738a6a1d1a2774e67","not_provided","desktop","0","0","0","","","","","","working_memory","","null","<div class=""fixation"">Correct</div>","null","","","","","","","","","","","","","","","","",""
"html-keyboard-response","200","379505","0.0-5.0-5.0-0.23","69807d4738a6a1d1a2774e67","not_provided","desktop","0","0","0","","","","","","working_memory","","null","<div class=""fixation"">+</div>","null","","","","","","","","","","","","","","","","",""
"html-keyboard-response","201","379714","0.0-5.0-5.0-1.23","69807d4738a6a1d1a2774e67","not_provided","desktop","0","0","0","","","","","","working_memory","","null","<img class='a' src=images/squares/cyan.png><img class='c' src=images/squares/red.png><img class='e' src=images/squares/green.png><img class='f' src=images/squares/yellow.png><img class='i' src=images/squares/brown.png><img class='h' src=images/squares/black.png><img class='j' src=images/squares/orange.png><img class='k' src=images/squares/magenta.png><div class=""fixation"">+</div>","null","","","memory","exp","23","","","","","","","","","","","",""
"html-keyboard-response","202","380618","0.0-5.0-5.0-2.23","69807d4738a6a1d1a2774e67","not_provided","desktop","0","0","0","","","","","","working_memory","","null","<div class=""fixation"">+</div>","null","","","","","","","","","","","","","","","","",""
"html-keyboard-response","203","381588","0.0-5.0-5.0-3.23","69807d4738a6a1d1a2774e67","not_provided","desktop","0","0","0","","","","","","working_memory","","968","<img class='f' src=images/squares/blue.png><div class=""fixation"">+</div>","s","","","test_squares","exp","23","8","s","true","ks","d","","","","","","",""
"html-keyboard-response","204","382098","0.0-5.0-5.0-4.23","69807d4738a6a1d1a2774e67","not_provided","desktop","0","0","0","","","","","","working_memory","","null","<div class=""fixation"">Correct</div>","null","","","","","","","","","","","","","","","","",""
"html-keyboard-response","205","383106","0.0-5.0-5.0-0.24","69807d4738a6a1d1a2774e67","not_provided","desktop","0","0","0","","","","","","working_memory","","null","<div class=""fixation"">+</div>","null","","","","","","","","","","","","","","","","",""
"html-keyboard-response","206","383314","0.0-5.0-5.0-1.24","69807d4738a6a1d1a2774e67","not_provided","desktop","0","0","0","","","","","","working_memory","","null","<img class='c' src=images/squares/green.png><img class='d' src=images/squares/blue.png><img class='h' src=images/squares/black.png><img class='k' src=images/squares/yellow.png><div class=""fixation"">+</div>","null","","","memory","exp","24","","","","","","","","","","","",""
"html-keyboard-response","207","384218","0.0-5.0-5.0-2.24","69807d4738a6a1d1a2774e67","not_provided","desktop","0","0","0","","","","","","working_memory","","null","<div class=""fixation"">+</div>","null","","","","","","","","","","","","","","","","",""
"html-keyboard-response","208","385891","0.0-5.0-5.0-3.24","69807d4738a6a1d1a2774e67","not_provided","desktop","0","0","0","","","","","","working_memory","","1670","<img class='d' src=images/squares/blue.png><div class=""fixation"">+</div>","s","","","test_squares","exp","24","4","k","false","ks","s","","","","","","",""
"html-keyboard-response","209","386393","0.0-5.0-5.0-4.24","69807d4738a6a1d1a2774e67","not_provided","desktop","0","0","0","","","","","","working_memory","","null","<div class=""fixation"">Incorrect</div>","null","","","","","","","","","","","","","","","","",""
"html-keyboard-response","210","387402","0.0-5.0-5.0-0.25","69807d4738a6a1d1a2774e67","not_provided","desktop","0","0","0","","","","","","working_memory","","null","<div class=""fixation"">+</div>","null","","","","","","","","","","","","","","","","",""
"html-keyboard-response","211","387609","0.0-5.0-5.0-1.25","69807d4738a6a1d1a2774e67","not_provided","desktop","0","0","0","","","","","","working_memory","","null","<img class='a' src=images/squares/brown.png><img class='b' src=images/squares/blue.png><img class='d' src=images/squares/cyan.png><img class='f' src=images/squares/magenta.png><img class='h' src=images/squares/red.png><img class='g' src=images/squares/yellow.png><img class='k' src=images/squares/green.png><img class='l' src=images/squares/black.png><div class=""fixation"">+</div>","null","","","memory","exp","25","","","","","","","","","","","",""
"html-keyboard-response","212","388514","0.0-5.0-5.0-2.25","69807d4738a6a1d1a2774e67","not_provided","desktop","0","0","0","","","","","","working_memory","","null","<div class=""fixation"">+</div>","null","","","","","","","","","","","","","","","","",""
"html-keyboard-response","213","389851","0.0-5.0-5.0-3.25","69807d4738a6a1d1a2774e67","not_provided","desktop","0","0","0","","","","","","working_memory","","1334","<img class='f' src=images/squares/magenta.png><div class=""fixation"">+</div>","k","","","test_squares","exp","25","8","k","true","ks","s","","","","","","",""
"html-keyboard-response","214","390354","0.0-5.0-5.0-4.25","69807d4738a6a1d1a2774e67","not_provided","desktop","0","0","0","","","","","","working_memory","","null","<div class=""fixation"">Correct</div>","null","","","","","","","","","","","","","","","","",""
"html-keyboard-response","215","391362","0.0-5.0-5.0-0.26","69807d4738a6a1d1a2774e67","not_provided","desktop","0","0","0","","","","","","working_memory","","null","<div class=""fixation"">+</div>","null","","","","","","","","","","","","","","","","",""
"html-keyboard-response","216","391570","0.0-5.0-5.0-1.26","69807d4738a6a1d1a2774e67","not_provided","desktop","0","0","0","","","","","","working_memory","","null","<img class='b' src=images/squares/blue.png><img class='e' src=images/squares/orange.png><img class='h' src=images/squares/brown.png><img class='l' src=images/squares/magenta.png><div class=""fixation"">+</div>","null","","","memory","exp","26","","","","","","","","","","","",""
"html-keyboard-response","217","392474","0.0-5.0-5.0-2.26","69807d4738a6a1d1a2774e67","not_provided","desktop","0","0","0","","","","","","working_memory","","null","<div class=""fixation"">+</div>","null","","","","","","","","","","","","","","","","",""
"html-keyboard-response","218","393251","0.0-5.0-5.0-3.26","69807d4738a6a1d1a2774e67","not_provided","desktop","0","0","0","","","","","","working_memory","","775","<img class='e' src=images/squares/orange.png><div class=""fixation"">+</div>","k","","","test_squares","exp","26","4","k","true","ks","s","","","","","","",""
"html-keyboard-response","219","393753","0.0-5.0-5.0-4.26","69807d4738a6a1d1a2774e67","not_provided","desktop","0","0","0","","","","","","working_memory","","null","<div class=""fixation"">Correct</div>","null","","","","","","","","","","","","","","","","",""
"html-keyboard-response","220","394761","0.0-5.0-5.0-0.27","69807d4738a6a1d1a2774e67","not_provided","desktop","0","0","0","","","","","","working_memory","","null","<div class=""fixation"">+</div>","null","","","","","","","","","","","","","","","","",""
"html-keyboard-response","221","394970","0.0-5.0-5.0-1.27","69807d4738a6a1d1a2774e67","not_provided","desktop","0","0","0","","","","","","working_memory","","null","<img class='b' src=images/squares/magenta.png><img class='c' src=images/squares/orange.png><img class='f' src=images/squares/brown.png><img class='d' src=images/squares/blue.png><img class='g' src=images/squares/yellow.png><img class='i' src=images/squares/black.png><img class='k' src=images/squares/green.png><img class='l' src=images/squares/red.png><div class=""fixation"">+</div>","null","","","memory","exp","27","","","","","","","","","","","",""
"html-keyboard-response","222","395874","0.0-5.0-5.0-2.27","69807d4738a6a1d1a2774e67","not_provided","desktop","0","0","0","","","","","","working_memory","","null","<div class=""fixation"">+</div>","null","","","","","","","","","","","","","","","","",""
"html-keyboard-response","223","396651","0.0-5.0-5.0-3.27","69807d4738a6a1d1a2774e67","not_provided","desktop","0","0","0","","","","","","working_memory","","774","<img class='f' src=images/squares/cyan.png><div class=""fixation"">+</div>","s","","","test_squares","exp","27","8","s","true","ks","d","","","","","","",""
"html-keyboard-response","224","397154","0.0-5.0-5.0-4.27","69807d4738a6a1d1a2774e67","not_provided","desktop","0","0","0","","","","","","working_memory","","null","<div class=""fixation"">Correct</div>","null","","","","","","","","","","","","","","","","",""
"html-keyboard-response","225","398163","0.0-5.0-5.0-0.28","69807d4738a6a1d1a2774e67","not_provided","desktop","0","0","0","","","","","","working_memory","","null","<div class=""fixation"">+</div>","null","","","","","","","","","","","","","","","","",""
"html-keyboard-response","226","398370","0.0-5.0-5.0-1.28","69807d4738a6a1d1a2774e67","not_provided","desktop","0","0","0","","","","","","working_memory","","null","<img class='b' src=images/squares/magenta.png><img class='d' src=images/squares/black.png><img class='g' src=images/squares/yellow.png><img class='j' src=images/squares/green.png><div class=""fixation"">+</div>","null","","","memory","exp","28","","","","","","","","","","","",""
"html-keyboard-response","227","399274","0.0-5.0-5.0-2.28","69807d4738a6a1d1a2774e67","not_provided","desktop","0","0","0","","","","","","working_memory","","null","<div class=""fixation"">+</div>","null","","","","","","","","","","","","","","","","",""
"html-keyboard-response","228","399995","0.0-5.0-5.0-3.28","69807d4738a6a1d1a2774e67","not_provided","desktop","0","0","0","","","","","","working_memory","","718","<img class='j' src=images/squares/green.png><div class=""fixation"">+</div>","s","","","test_squares","exp","28","4","k","false","ks","s","","","","","","",""
"html-keyboard-response","229","400498","0.0-5.0-5.0-4.28","69807d4738a6a1d1a2774e67","not_provided","desktop","0","0","0","","","","","","working_memory","","null","<div class=""fixation"">Incorrect</div>","null","","","","","","","","","","","","","","","","",""
"html-keyboard-response","230","401506","0.0-5.0-5.0-0.29","69807d4738a6a1d1a2774e67","not_provided","desktop","0","0","0","","","","","","working_memory","","null","<div class=""fixation"">+</div>","null","","","","","","","","","","","","","","","","",""
"html-keyboard-response","231","401714","0.0-5.0-5.0-1.29","69807d4738a6a1d1a2774e67","not_provided","desktop","0","0","0","","","","","","working_memory","","null","<img class='b' src=images/squares/orange.png><img class='c' src=images/squares/green.png><img class='d' src=images/squares/blue.png><img class='e' src=images/squares/red.png><img class='i' src=images/squares/magenta.png><img class='h' src=images/squares/yellow.png><img class='l' src=images/squares/cyan.png><img class='j' src=images/squares/black.png><div class=""fixation"">+</div>","null","","","memory","exp","29","","","","","","","","","","","",""
"html-keyboard-response","232","402618","0.0-5.0-5.0-2.29","69807d4738a6a1d1a2774e67","not_provided","desktop","0","0","0","","","","","","working_memory","","null","<div class=""fixation"">+</div>","null","","","","","","","","","","","","","","","","",""
"html-keyboard-response","233","403387","0.0-5.0-5.0-3.29","69807d4738a6a1d1a2774e67","not_provided","desktop","0","0","0","","","","","","working_memory","","767","<img class='j' src=images/squares/black.png><div class=""fixation"">+</div>","k","","","test_squares","exp","29","8","k","true","ks","s","","","","","","",""
"html-keyboard-response","234","403890","0.0-5.0-5.0-4.29","69807d4738a6a1d1a2774e67","not_provided","desktop","0","0","0","","","","","","working_memory","","null","<div class=""fixation"">Correct</div>","null","","","","","","","","","","","","","","","","",""
"html-keyboard-response","235","404898","0.0-5.0-5.0-0.30","69807d4738a6a1d1a2774e67","not_provided","desktop","0","0","0","","","","","","working_memory","","null","<div class=""fixation"">+</div>","null","","","","","","","","","","","","","","","","",""
"html-keyboard-response","236","405106","0.0-5.0-5.0-1.30","69807d4738a6a1d1a2774e67","not_provided","desktop","0","0","0","","","","","","working_memory","","null","<img class='c' src=images/squares/cyan.png><img class='a' src=images/squares/magenta.png><img class='e' src=images/squares/green.png><img class='f' src=images/squares/blue.png><img class='h' src=images/squares/black.png><img class='i' src=images/squares/brown.png><img class='k' src=images/squares/orange.png><img class='j' src=images/squares/yellow.png><div class=""fixation"">+</div>","null","","","memory","exp","30","","","","","","","","","","","",""
"html-keyboard-response","237","406010","0.0-5.0-5.0-2.30","69807d4738a6a1d1a2774e67","not_provided","desktop","0","0","0","","","","","","working_memory","","null","<div class=""fixation"">+</div>","null","","","","","","","","","","","","","","","","",""
"html-keyboard-response","238","407339","0.0-5.0-5.0-3.30","69807d4738a6a1d1a2774e67","not_provided","desktop","0","0","0","","","","","","working_memory","","1327","<img class='e' src=images/squares/red.png><div class=""fixation"">+</div>","s","","","test_squares","exp","30","8","s","true","ks","d","","","","","","",""
"html-keyboard-response","239","407842","0.0-5.0-5.0-4.30","69807d4738a6a1d1a2774e67","not_provided","desktop","0","0","0","","","","","","working_memory","","null","<div class=""fixation"">Correct</div>","null","","","","","","","","","","","","","","","","",""
"html-keyboard-response","240","408849","0.0-5.0-5.0-0.31","69807d4738a6a1d1a2774e67","not_provided","desktop","0","0","0","","","","","","working_memory","","null","<div class=""fixation"">+</div>","null","","","","","","","","","","","","","","","","",""
"html-keyboard-response","241","409058","0.0-5.0-5.0-1.31","69807d4738a6a1d1a2774e67","not_provided","desktop","0","0","0","","","","","","working_memory","","null","<img class='a' src=images/squares/red.png><img class='e' src=images/squares/blue.png><img class='g' src=images/squares/cyan.png><img class='l' src=images/squares/brown.png><div class=""fixation"">+</div>","null","","","memory","exp","31","","","","","","","","","","","",""
"html-keyboard-response","242","409962","0.0-5.0-5.0-2.31","69807d4738a6a1d1a2774e67","not_provided","desktop","0","0","0","","","","","","working_memory","","null","<div class=""fixation"">+</div>","null","","","","","","","","","","","","","","","","",""
"html-keyboard-response","243","410762","0.0-5.0-5.0-3.31","69807d4738a6a1d1a2774e67","not_provided","desktop","0","0","0","","","","","","working_memory","","799","<img class='g' src=images/squares/yellow.png><div class=""fixation"">+</div>","s","","","test_squares","exp","31","4","s","true","ks","d","","","","","","",""
"html-keyboard-response","244","411266","0.0-5.0-5.0-4.31","69807d4738a6a1d1a2774e67","not_provided","desktop","0","0","0","","","","","","working_memory","","null","<div class=""fixation"">Correct</div>","null","","","","","","","","","","","","","","","","",""
"html-keyboard-response","245","412274","0.0-5.0-5.0-0.32","69807d4738a6a1d1a2774e67","not_provided","desktop","0","0","0","","","","","","working_memory","","null","<div class=""fixation"">+</div>","null","","","","","","","","","","","","","","","","",""
"html-keyboard-response","246","412481","0.0-5.0-5.0-1.32","69807d4738a6a1d1a2774e67","not_provided","desktop","0","0","0","","","","","","working_memory","","null","<img class='c' src=images/squares/brown.png><img class='b' src=images/squares/yellow.png><img class='e' src=images/squares/blue.png><img class='d' src=images/squares/red.png><img class='g' src=images/squares/orange.png><img class='i' src=images/squares/black.png><img class='l' src=images/squares/magenta.png><img class='j' src=images/squares/cyan.png><div class=""fixation"">+</div>","null","","","memory","exp","32","","","","","","","","","","","",""
"html-keyboard-response","247","413386","0.0-5.0-5.0-2.32","69807d4738a6a1d1a2774e67","not_provided","desktop","0","0","0","","","","","","working_memory","","null","<div class=""fixation"">+</div>","null","","","","","","","","","","","","","","","","",""
"html-keyboard-response","248","414107","0.0-5.0-5.0-3.32","69807d4738a6a1d1a2774e67","not_provided","desktop","0","0","0","","","","","","working_memory","","720","<img class='j' src=images/squares/green.png><div class=""fixation"">+</div>","s","","","test_squares","exp","32","8","s","true","ks","d","","","","","","",""
"html-keyboard-response","249","414609","0.0-5.0-5.0-4.32","69807d4738a6a1d1a2774e67","not_provided","desktop","0","0","0","","","","","","working_memory","","null","<div class=""fixation"">Correct</div>","null","","","","","","","","","","","","","","","","",""
"html-keyboard-response","250","415618","0.0-5.0-5.0-0.33","69807d4738a6a1d1a2774e67","not_provided","desktop","0","0","0","","","","","","working_memory","","null","<div class=""fixation"">+</div>","null","","","","","","","","","","","","","","","","",""
"html-keyboard-response","251","415825","0.0-5.0-5.0-1.33","69807d4738a6a1d1a2774e67","not_provided","desktop","0","0","0","","","","","","working_memory","","null","<img class='c' src=images/squares/black.png><img class='b' src=images/squares/blue.png><img class='e' src=images/squares/brown.png><img class='f' src=images/squares/cyan.png><img class='i' src=images/squares/magenta.png><img class='h' src=images/squares/red.png><img class='k' src=images/squares/orange.png><img class='l' src=images/squares/yellow.png><div class=""fixation"">+</div>","null","","","memory","exp","33","","","","","","","","","","","",""
"html-keyboard-response","252","416729","0.0-5.0-5.0-2.33","69807d4738a6a1d1a2774e67","not_provided","desktop","0","0","0","","","","","","working_memory","","null","<div class=""fixation"">+</div>","null","","","","","","","","","","","","","","","","",""
"html-keyboard-response","253","417419","0.0-5.0-5.0-3.33","69807d4738a6a1d1a2774e67","not_provided","desktop","0","0","0","","","","","","working_memory","","687","<img class='c' src=images/squares/black.png><div class=""fixation"">+</div>","k","","","test_squares","exp","33","8","k","true","ks","s","","","","","","",""
"html-keyboard-response","254","417921","0.0-5.0-5.0-4.33","69807d4738a6a1d1a2774e67","not_provided","desktop","0","0","0","","","","","","working_memory","","null","<div class=""fixation"">Correct</div>","null","","","","","","","","","","","","","","","","",""
"html-keyboard-response","255","418930","0.0-5.0-5.0-0.34","69807d4738a6a1d1a2774e67","not_provided","desktop","0","0","0","","","","","","working_memory","","null","<div class=""fixation"">+</div>","null","","","","","","","","","","","","","","","","",""
"html-keyboard-response","256","419137","0.0-5.0-5.0-1.34","69807d4738a6a1d1a2774e67","not_provided","desktop","0","0","0","","","","","","working_memory","","null","<img class='a' src=images/squares/black.png><img class='c' src=images/squares/red.png><img class='d' src=images/squares/cyan.png><img class='e' src=images/squares/brown.png><img class='h' src=images/squares/green.png><img class='g' src=images/squares/yellow.png><img class='k' src=images/squares/blue.png><img class='l' src=images/squares/orange.png><div class=""fixation"">+</div>","null","","","memory","exp","34","","","","","","","","","","","",""
"html-keyboard-response","257","420041","0.0-5.0-5.0-2.34","69807d4738a6a1d1a2774e67","not_provided","desktop","0","0","0","","","","","","working_memory","","null","<div class=""fixation"">+</div>","null","","","","","","","","","","","","","","","","",""
"html-keyboard-response","258","420729","0.0-5.0-5.0-3.34","69807d4738a6a1d1a2774e67","not_provided","desktop","0","0","0","","","","","","working_memory","","686","<img class='c' src=images/squares/red.png><div class=""fixation"">+</div>","k","","","test_squares","exp","34","8","k","true","ks","s","","","","","","",""
"html-keyboard-response","259","421234","0.0-5.0-5.0-4.34","69807d4738a6a1d1a2774e67","not_provided","desktop","0","0","0","","","","","","working_memory","","null","<div class=""fixation"">Correct</div>","null","","","","","","","","","","","","","","","","",""
"html-keyboard-response","260","422241","0.0-5.0-5.0-0.35","69807d4738a6a1d1a2774e67","not_provided","desktop","0","0","0","","","","","","working_memory","","null","<div class=""fixation"">+</div>","null","","","","","","","","","","","","","","","","",""
"html-keyboard-response","261","422450","0.0-5.0-5.0-1.35","69807d4738a6a1d1a2774e67","not_provided","desktop","0","0","0","","","","","","working_memory","","null","<img class='b' src=images/squares/magenta.png><img class='a' src=images/squares/blue.png><img class='f' src=images/squares/green.png><img class='e' src=images/squares/cyan.png><img class='h' src=images/squares/brown.png><img class='i' src=images/squares/orange.png><img class='k' src=images/squares/red.png><img class='j' src=images/squares/black.png><div class=""fixation"">+</div>","null","","","memory","exp","35","","","","","","","","","","","",""
"html-keyboard-response","262","423354","0.0-5.0-5.0-2.35","69807d4738a6a1d1a2774e67","not_provided","desktop","0","0","0","","","","","","working_memory","","null","<div class=""fixation"">+</div>","null","","","","","","","","","","","","","","","","",""
"html-keyboard-response","263","424075","0.0-5.0-5.0-3.35","69807d4738a6a1d1a2774e67","not_provided","desktop","0","0","0","","","","","","working_memory","","718","<img class='a' src=images/squares/blue.png><div class=""fixation"">+</div>","s","","","test_squares","exp","35","8","k","false","ks","s","","","","","","",""
"html-keyboard-response","264","424578","0.0-5.0-5.0-4.35","69807d4738a6a1d1a2774e67","not_provided","desktop","0","0","0","","","","","","working_memory","","null","<div class=""fixation"">Incorrect</div>","null","","","","","","","","","","","","","","","","",""
"html-keyboard-response","265","425585","0.0-5.0-5.0-0.36","69807d4738a6a1d1a2774e67","not_provided","desktop","0","0","0","","","","","","working_memory","","null","<div class=""fixation"">+</div>","null","","","","","","","","","","","","","","","","",""
"html-keyboard-response","266","425794","0.0-5.0-5.0-1.36","69807d4738a6a1d1a2774e67","not_provided","desktop","0","0","0","","","","","","working_memory","","null","<img class='a' src=images/squares/cyan.png><img class='d' src=images/squares/orange.png><img class='i' src=images/squares/brown.png><img class='l' src=images/squares/yellow.png><div class=""fixation"">+</div>","null","","","memory","exp","36","","","","","","","","","","","",""
"html-keyboard-response","267","426698","0.0-5.0-5.0-2.36","69807d4738a6a1d1a2774e67","not_provided","desktop","0","0","0","","","","","","working_memory","","null","<div class=""fixation"">+</div>","null","","","","","","","","","","","","","","","","",""
"html-keyboard-response","268","427243","0.0-5.0-5.0-3.36","69807d4738a6a1d1a2774e67","not_provided","desktop","0","0","0","","","","","","working_memory","","543","<img class='d' src=images/squares/orange.png><div class=""fixation"">+</div>","k","","","test_squares","exp","36","4","k","true","ks","s","","","","","","",""
"html-keyboard-response","269","427745","0.0-5.0-5.0-4.36","69807d4738a6a1d1a2774e67","not_provided","desktop","0","0","0","","","","","","working_memory","","null","<div class=""fixation"">Correct</div>","null","","","","","","","","","","","","","","","","",""
"html-keyboard-response","270","428753","0.0-5.0-5.0-0.37","69807d4738a6a1d1a2774e67","not_provided","desktop","0","0","0","","","","","","working_memory","","null","<div class=""fixation"">+</div>","null","","","","","","","","","","","","","","","","",""
"html-keyboard-response","271","428961","0.0-5.0-5.0-1.37","69807d4738a6a1d1a2774e67","not_provided","desktop","0","0","0","","","","","","working_memory","","null","<img class='a' src=images/squares/green.png><img class='d' src=images/squares/brown.png><img class='i' src=images/squares/yellow.png><img class='l' src=images/squares/cyan.png><div class=""fixation"">+</div>","null","","","memory","exp","37","","","","","","","","","","","",""
"html-keyboard-response","272","429866","0.0-5.0-5.0-2.37","69807d4738a6a1d1a2774e67","not_provided","desktop","0","0","0","","","","","","working_memory","","null","<div class=""fixation"">+</div>","null","","","","","","","","","","","","","","","","",""
"html-keyboard-response","273","430498","0.0-5.0-5.0-3.37","69807d4738a6a1d1a2774e67","not_provided","desktop","0","0","0","","","","","","working_memory","","630","<img class='a' src=images/squares/green.png><div class=""fixation"">+</div>","k","","","test_squares","exp","37","4","k","true","ks","s","","","","","","",""
"html-keyboard-response","274","431003","0.0-5.0-5.0-4.37","69807d4738a6a1d1a2774e67","not_provided","desktop","0","0","0","","","","","","working_memory","","null","<div class=""fixation"">Correct</div>","null","","","","","","","","","","","","","","","","",""
"html-keyboard-response","275","432010","0.0-5.0-5.0-0.38","69807d4738a6a1d1a2774e67","not_provided","desktop","0","0","0","","","","","","working_memory","","null","<div class=""fixation"">+</div>","null","","","","","","","","","","","","","","","","",""
"html-keyboard-response","276","432217","0.0-5.0-5.0-1.38","69807d4738a6a1d1a2774e67","not_provided","desktop","0","0","0","","","","","","working_memory","","null","<img class='b' src=images/squares/blue.png><img class='e' src=images/squares/yellow.png><img class='h' src=images/squares/brown.png><img class='j' src=images/squares/black.png><div class=""fixation"">+</div>","null","","","memory","exp","38","","","","","","","","","","","",""
"html-keyboard-response","277","433122","0.0-5.0-5.0-2.38","69807d4738a6a1d1a2774e67","not_provided","desktop","0","0","0","","","","","","working_memory","","null","<div class=""fixation"">+</div>","null","","","","","","","","","","","","","","","","",""
"html-keyboard-response","278","433795","0.0-5.0-5.0-3.38","69807d4738a6a1d1a2774e67","not_provided","desktop","0","0","0","","","","","","working_memory","","671","<img class='h' src=images/squares/brown.png><div class=""fixation"">+</div>","k","","","test_squares","exp","38","4","k","true","ks","s","","","","","","",""
"html-keyboard-response","279","434298","0.0-5.0-5.0-4.38","69807d4738a6a1d1a2774e67","not_provided","desktop","0","0","0","","","","","","working_memory","","null","<div class=""fixation"">Correct</div>","null","","","","","","","","","","","","","","","","",""
"html-keyboard-response","280","435305","0.0-5.0-5.0-0.39","69807d4738a6a1d1a2774e67","not_provided","desktop","0","0","0","","","","","","working_memory","","null","<div class=""fixation"">+</div>","null","","","","","","","","","","","","","","","","",""
"html-keyboard-response","281","435514","0.0-5.0-5.0-1.39","69807d4738a6a1d1a2774e67","not_provided","desktop","0","0","0","","","","","","working_memory","","null","<img class='b' src=images/squares/orange.png><img class='e' src=images/squares/brown.png><img class='h' src=images/squares/green.png><img class='l' src=images/squares/yellow.png><div class=""fixation"">+</div>","null","","","memory","exp","39","","","","","","","","","","","",""
"html-keyboard-response","282","436417","0.0-5.0-5.0-2.39","69807d4738a6a1d1a2774e67","not_provided","desktop","0","0","0","","","","","","working_memory","","null","<div class=""fixation"">+</div>","null","","","","","","","","","","","","","","","","",""
"html-keyboard-response","283","437033","0.0-5.0-5.0-3.39","69807d4738a6a1d1a2774e67","not_provided","desktop","0","0","0","","","","","","working_memory","","615","<img class='l' src=images/squares/red.png><div class=""fixation"">+</div>","s","","","test_squares","exp","39","4","s","true","ks","d","","","","","","",""
"html-keyboard-response","284","437537","0.0-5.0-5.0-4.39","69807d4738a6a1d1a2774e67","not_provided","desktop","0","0","0","","","","","","working_memory","","null","<div class=""fixation"">Correct</div>","null","","","","","","","","","","","","","","","","",""
"html-keyboard-response","285","438546","0.0-5.0-5.0-0.40","69807d4738a6a1d1a2774e67","not_provided","desktop","0","0","0","","","","","","working_memory","","null","<div class=""fixation"">+</div>","null","","","","","","","","","","","","","","","","",""
"html-keyboard-response","286","438747","0.0-5.0-5.0-1.40","69807d4738a6a1d1a2774e67","not_provided","desktop","0","0","0","","","","","","working_memory","","null","<img class='b' src=images/squares/blue.png><img class='d' src=images/squares/magenta.png><img class='h' src=images/squares/green.png><img class='l' src=images/squares/red.png><div class=""fixation"">+</div>","null","","","memory","exp","40","","","","","","","","","","","",""
"html-keyboard-response","287","439650","0.0-5.0-5.0-2.40","69807d4738a6a1d1a2774e67","not_provided","desktop","0","0","0","","","","","","working_memory","","null","<div class=""fixation"">+</div>","null","","","","","","","","","","","","","","","","",""
"html-keyboard-response","288","440843","0.0-5.0-5.0-3.40","69807d4738a6a1d1a2774e67","not_provided","desktop","0","0","0","","","","","","working_memory","","1192","<img class='d' src=images/squares/magenta.png><div class=""fixation"">+</div>","s","","","test_squares","exp","40","4","k","false","ks","s","","","","","","",""
"html-keyboard-response","289","441346","0.0-5.0-5.0-4.40","69807d4738a6a1d1a2774e67","not_provided","desktop","0","0","0","","","","","","working_memory","","null","<div class=""fixation"">Incorrect</div>","null","","","","","","","","","","","","","","","","",""
"html-keyboard-response","290","442353","0.0-5.0-5.0-0.41","69807d4738a6a1d1a2774e67","not_provided","desktop","0","0","0","","","","","","working_memory","","null","<div class=""fixation"">+</div>","null","","","","","","","","","","","","","","","","",""
"html-keyboard-response","291","442562","0.0-5.0-5.0-1.41","69807d4738a6a1d1a2774e67","not_provided","desktop","0","0","0","","","","","","working_memory","","null","<img class='c' src=images/squares/orange.png><img class='b' src=images/squares/black.png><img class='e' src=images/squares/red.png><img class='d' src=images/squares/green.png><img class='i' src=images/squares/brown.png><img class='g' src=images/squares/yellow.png><img class='k' src=images/squares/magenta.png><img class='l' src=images/squares/blue.png><div class=""fixation"">+</div>","null","","","memory","exp","41","","","","","","","","","","","",""
"html-keyboard-response","292","443467","0.0-5.0-5.0-2.41","69807d4738a6a1d1a2774e67","not_provided","desktop","0","0","0","","","","","","working_memory","","null","<div class=""fixation"">+</div>","null","","","","","","","","","","","","","","","","",""
"html-keyboard-response","293","443971","0.0-5.0-5.0-3.41","69807d4738a6a1d1a2774e67","not_provided","desktop","0","0","0","","","","","","working_memory","","502","<img class='d' src=images/squares/green.png><div class=""fixation"">+</div>","k","","","test_squares","exp","41","8","k","true","ks","s","","","","","","",""
"html-keyboard-response","294","444474","0.0-5.0-5.0-4.41","69807d4738a6a1d1a2774e67","not_provided","desktop","0","0","0","","","","","","working_memory","","null","<div class=""fixation"">Correct</div>","null","","","","","","","","","","","","","","","","",""
"html-keyboard-response","295","445482","0.0-5.0-5.0-0.42","69807d4738a6a1d1a2774e67","not_provided","desktop","0","0","0","","","","","","working_memory","","null","<div class=""fixation"">+</div>","null","","","","","","","","","","","","","","","","",""
"html-keyboard-response","296","445690","0.0-5.0-5.0-1.42","69807d4738a6a1d1a2774e67","not_provided","desktop","0","0","0","","","","","","working_memory","","null","<img class='b' src=images/squares/brown.png><img class='a' src=images/squares/green.png><img class='d' src=images/squares/red.png><img class='f' src=images/squares/blue.png><img class='g' src=images/squares/black.png><img class='h' src=images/squares/orange.png><img class='k' src=images/squares/yellow.png><img class='l' src=images/squares/magenta.png><div class=""fixation"">+</div>","null","","","memory","exp","42","","","","","","","","","","","",""
"html-keyboard-response","297","446593","0.0-5.0-5.0-2.42","69807d4738a6a1d1a2774e67","not_provided","desktop","0","0","0","","","","","","working_memory","","null","<div class=""fixation"">+</div>","null","","","","","","","","","","","","","","","","",""
"html-keyboard-response","298","447451","0.0-5.0-5.0-3.42","69807d4738a6a1d1a2774e67","not_provided","desktop","0","0","0","","","","","","working_memory","","855","<img class='a' src=images/squares/green.png><div class=""fixation"">+</div>","k","","","test_squares","exp","42","8","k","true","ks","s","","","","","","",""
"html-keyboard-response","299","447954","0.0-5.0-5.0-4.42","69807d4738a6a1d1a2774e67","not_provided","desktop","0","0","0","","","","","","working_memory","","null","<div class=""fixation"">Correct</div>","null","","","","","","","","","","","","","","","","",""
"html-keyboard-response","300","448962","0.0-5.0-5.0-0.43","69807d4738a6a1d1a2774e67","not_provided","desktop","0","0","0","","","","","","working_memory","","null","<div class=""fixation"">+</div>","null","","","","","","","","","","","","","","","","",""
