"trial_type","trial_index","time_elapsed","internal_node_id","subject_id","study_id","device_type","blur_count","fullscreen_exit_count","failed_attention_checks","success","timeout","failed_images","failed_audio","failed_video","phase","value","rt","stimulus","response","view_history","question_order","trial_name","block_type","trial_num","set_size","correct_response","accuracy","mapping","condition","prompt","flipped","attention","expected_answer","category","question_index","task"
"pavlovia","0","1031","0.0-0.0","6984840e0bc6423e5ee5114a","not_provided","desktop","0","0","3","","","","","","","","","","","","","","","","","","","","","","","","","","",""
"preload","1","1452","0.0-2.0","6984840e0bc6423e5ee5114a","not_provided","desktop","0","0","3","true","false","[]","[]","[]","","","","","","","","","","","","","","","","","","","","","",""
"html-keyboard-response","2","22799","0.0-3.0-0.0","6984840e0bc6423e5ee5114a","not_provided","desktop","0","0","3","","","","","","captcha","","","","","","","","","","","","","","","","","","","","",""
"fullscreen","3","48259","0.0-4.0","6984840e0bc6423e5ee5114a","not_provided","desktop","0","0","3","true","","","","","setup","","","","","","","","","","","","","","","","","","","","",""
"call-function","4","48260","0.0-5.0-0.0","6984840e0bc6423e5ee5114a","not_provided","desktop","0","0","3","","","","","","working_memory","","","","","","","","","","","","","","","","","","","","",""
"html-keyboard-response","5","120959","0.0-5.0-1.0","6984840e0bc6423e5ee5114a","not_provided","desktop","0","0","3","","","","","","working_memory","","72695","<div style=""text-align:center;font-family:sans-serif;""><p>Welcome to the luck game experiment!</p><p>This two-day experiment takes part in a study aimed at developing better clinical treatments.</p><p>We appreciate your participation and require your full concentration.</p><br><p>This is a two-day study. Payment (£6/hour) is only given upon completing both parts today and tomorrow.</p><p>You must finish the second part for compensation. After today, you'll receive an invitation for tomorrow's session.</p><p>Please ensure you can attend both sessions before proceeding. Otherwise, you may exit now.</p><p>If you have any questions, please contact us via prolific.</p><br><p>Please stay attentive and in fullscreen mode to ensure payment.</p><p>Thank you for participating!</p><br><p id=""continue-prompt"" style=""visibility:hidden;""><b>Press any key to continue.</b></p></div>"," ","","","","","","","","","","","","","","","","",""
"instructions","6","335614","0.0-5.0-2.0-0.0","6984840e0bc6423e5ee5114a","not_provided","desktop","0","0","3","","","","","","working_memory","","214653","","","[{""page_index"":0,""viewing_time"":2509},{""page_index"":1,""viewing_time"":1720},{""page_index"":2,""viewing_time"":12216},{""page_index"":3,""viewing_time"":10680},{""page_index"":4,""viewing_time"":64240},{""page_index"":5,""viewing_time"":34360},{""page_index"":6,""viewing_time"":34352},{""page_index"":7,""viewing_time"":18328},{""page_index"":8,""viewing_time"":36248}]","","","","","","","","","","","","","","","",""
"survey-multi-choice","7","423486","0.0-5.0-2.0-1.0","6984840e0bc6423e5ee5114a","not_provided","desktop","0","0","3","","","","","","working_memory","","87869","","{""set_size"":""4 or 8"",""steps"":""True"",""choose_square"":""Press the 'k' or 's' key."",""remember"":""The colors and locations of the 'memory' squares"",""task"":""To tell if the 'test' square is in the same color as the square previously appearing in this location""}","","[0,1,2,3,4]","test_squares_quiz","","","","","","","","","","","","","",""
"html-keyboard-response","8","431632","0.0-5.0-3.0-0.0","6984840e0bc6423e5ee5114a","not_provided","desktop","0","0","3","","","","","","working_memory","","8142","<p>We will now start some practice trials.<br><b>The practice trials will also include some trials in which you will need to remember only one square to make sure you understood the instructions.</b><br>You may already want to be ready with your fingers on '<b>s</b>' and '<b>k</b>'.<br><img class=""wm-example-img"" src=""images/examples/keyboard.png""><br><b style=""font-size:1.2em;"">&lsquo;K&rsquo; = SAME &nbsp;&nbsp;&nbsp; &lsquo;S&rsquo; = DIFFERENT</b><br><br><u>Please try to be as accurate as possible.</u><br><br><b>Press any key to begin</b></p>"," ","","","","","","","","","","","","","","","","",""
"html-keyboard-response","9","433634","0.0-5.0-3.0-1.0-0.0","6984840e0bc6423e5ee5114a","not_provided","desktop","0","0","3","","","","","","working_memory","","null","<div class=""fixation"">+</div>","null","","","","","","","","","","","","","","","","",""
"html-keyboard-response","10","433838","0.0-5.0-3.0-1.0-1.0","6984840e0bc6423e5ee5114a","not_provided","desktop","0","0","3","","","","","","working_memory","","null","<img class='upper1' src=images/squares/black.png><div class=""fixation"">+</div>","null","","","memory","practice","0","1","","","","","","","","","","",""
"html-keyboard-response","11","434740","0.0-5.0-3.0-1.0-2.0","6984840e0bc6423e5ee5114a","not_provided","desktop","0","0","3","","","","","","working_memory","","null","<div class=""fixation"">+</div>","null","","","","","","","","","","","","","","","","",""
"html-keyboard-response","12","440743","0.0-5.0-3.0-1.0-3.0","6984840e0bc6423e5ee5114a","not_provided","desktop","0","0","3","","","","","","working_memory","","null","<img class='upper1' src=images/squares/black.png><div class=""fixation"">+</div>","null","","","test","practice","0","1","k","null","","","","","","","","",""
"html-keyboard-response","13","441246","0.0-5.0-3.0-1.0-4.0","6984840e0bc6423e5ee5114a","not_provided","desktop","0","0","3","","","","","","working_memory","","null","<div class=""fixation"">Please respond faster</div>","null","","","","","","","","","","","","","","","","",""
"html-keyboard-response","14","442248","0.0-5.0-3.0-1.0-0.1","6984840e0bc6423e5ee5114a","not_provided","desktop","0","0","3","","","","","","working_memory","","null","<div class=""fixation"">+</div>","null","","","","","","","","","","","","","","","","",""
"html-keyboard-response","15","442450","0.0-5.0-3.0-1.0-1.1","6984840e0bc6423e5ee5114a","not_provided","desktop","0","0","3","","","","","","working_memory","","null","<img class='upper1' src=images/squares/yellow.png><div class=""fixation"">+</div>","null","","","memory","practice","1","1","","","","","","","","","","",""
"html-keyboard-response","16","443352","0.0-5.0-3.0-1.0-2.1","6984840e0bc6423e5ee5114a","not_provided","desktop","0","0","3","","","","","","working_memory","","null","<div class=""fixation"">+</div>","null","","","","","","","","","","","","","","","","",""
"html-keyboard-response","17","449354","0.0-5.0-3.0-1.0-3.1","6984840e0bc6423e5ee5114a","not_provided","desktop","0","0","3","","","","","","working_memory","","null","<img class='upper1' src=images/squares/yellow.png><div class=""fixation"">+</div>","null","","","test","practice","1","1","k","null","","","","","","","","",""
"html-keyboard-response","18","449856","0.0-5.0-3.0-1.0-4.1","6984840e0bc6423e5ee5114a","not_provided","desktop","0","0","3","","","","","","working_memory","","null","<div class=""fixation"">Please respond faster</div>","null","","","","","","","","","","","","","","","","",""
"html-keyboard-response","19","450858","0.0-5.0-3.0-1.0-0.2","6984840e0bc6423e5ee5114a","not_provided","desktop","0","0","3","","","","","","working_memory","","null","<div class=""fixation"">+</div>","null","","","","","","","","","","","","","","","","",""
"html-keyboard-response","20","451059","0.0-5.0-3.0-1.0-1.2","6984840e0bc6423e5ee5114a","not_provided","desktop","0","0","3","","","","","","working_memory","","null","<img class='b' src=images/squares/magenta.png><img class='f' src=images/squares/green.png><img class='g' src=images/squares/cyan.png><img class='k' src=images/squares/orange.png><div class=""fixation"">+</div>","null","","","memory","practice","2","4","","","","","","","","","","",""
"html-keyboard-response","21","451960","0.0-5.0-3.0-1.0-2.2","6984840e0bc6423e5ee5114a","not_provided","desktop","0","0","3","","","","","","working_memory","","null","<div class=""fixation"">+</div>","null","","","","","","","","","","","","","","","","",""
"html-keyboard-response","22","457963","0.0-5.0-3.0-1.0-3.2","6984840e0bc6423e5ee5114a","not_provided","desktop","0","0","3","","","","","","working_memory","","null","<img class='f' src=images/squares/black.png><div class=""fixation"">+</div>","null","","","test","practice","2","4","s","null","","","","","","","","",""
"html-keyboard-response","23","458465","0.0-5.0-3.0-1.0-4.2","6984840e0bc6423e5ee5114a","not_provided","desktop","0","0","3","","","","","","working_memory","","null","<div class=""fixation"">Please respond faster</div>","null","","","","","","","","","","","","","","","","",""
"html-keyboard-response","24","459468","0.0-5.0-3.0-1.0-0.3","6984840e0bc6423e5ee5114a","not_provided","desktop","0","0","3","","","","","","working_memory","","null","<div class=""fixation"">+</div>","null","","","","","","","","","","","","","","","","",""
"html-keyboard-response","25","459671","0.0-5.0-3.0-1.0-1.3","6984840e0bc6423e5ee5114a","not_provided","desktop","0","0","3","","","","","","working_memory","","null","<img class='a' src=images/squares/black.png><img class='d' src=images/squares/yellow.png><img class='i' src=images/squares/brown.png><img class='j' src=images/squares/magenta.png><div class=""fixation"">+</div>","null","","","memory","practice","3","4","","","","","","","","","","",""
"html-keyboard-response","26","460572","0.0-5.0-3.0-1.0-2.3","6984840e0bc6423e5ee5114a","not_provided","desktop","0","0","3","","","","","","working_memory","","null","<div class=""fixation"">+</div>","null","","","","","","","","","","","","","","","","",""
"html-keyboard-response","27","466574","0.0-5.0-3.0-1.0-3.3","6984840e0bc6423e5ee5114a","not_provided","desktop","0","0","3","","","","","","working_memory","","null","<img class='i' src=images/squares/brown.png><div class=""fixation"">+</div>","null","","","test","practice","3","4","k","null","","","","","","","","",""
"html-keyboard-response","28","467076","0.0-5.0-3.0-1.0-4.3","6984840e0bc6423e5ee5114a","not_provided","desktop","0","0","3","","","","","","working_memory","","null","<div class=""fixation"">Please respond faster</div>","null","","","","","","","","","","","","","","","","",""
"html-keyboard-response","29","468079","0.0-5.0-3.0-1.0-0.4","6984840e0bc6423e5ee5114a","not_provided","desktop","0","0","3","","","","","","working_memory","","null","<div class=""fixation"">+</div>","null","","","","","","","","","","","","","","","","",""
"html-keyboard-response","30","468282","0.0-5.0-3.0-1.0-1.4","6984840e0bc6423e5ee5114a","not_provided","desktop","0","0","3","","","","","","working_memory","","null","<img class='c' src=images/squares/yellow.png><img class='b' src=images/squares/black.png><img class='e' src=images/squares/brown.png><img class='f' src=images/squares/blue.png><img class='i' src=images/squares/red.png><img class='h' src=images/squares/cyan.png><img class='l' src=images/squares/orange.png><img class='k' src=images/squares/magenta.png><div class=""fixation"">+</div>","null","","","memory","practice","4","8","","","","","","","","","","",""
"html-keyboard-response","31","469184","0.0-5.0-3.0-1.0-2.4","6984840e0bc6423e5ee5114a","not_provided","desktop","0","0","3","","","","","","working_memory","","null","<div class=""fixation"">+</div>","null","","","","","","","","","","","","","","","","",""
"html-keyboard-response","32","473090","0.0-5.0-3.0-1.0-3.4","6984840e0bc6423e5ee5114a","not_provided","desktop","0","0","3","","","","","","working_memory","","3904","<img class='f' src=images/squares/blue.png><div class=""fixation"">+</div>","s","","","test","practice","4","8","k","false","","","","","","","","",""
"html-keyboard-response","33","473591","0.0-5.0-3.0-1.0-4.4","6984840e0bc6423e5ee5114a","not_provided","desktop","0","0","3","","","","","","working_memory","","null","<div class=""fixation"">Incorrect</div>","null","","","","","","","","","","","","","","","","",""
"html-keyboard-response","34","474594","0.0-5.0-3.0-1.0-0.5","6984840e0bc6423e5ee5114a","not_provided","desktop","0","0","3","","","","","","working_memory","","null","<div class=""fixation"">+</div>","null","","","","","","","","","","","","","","","","",""
"html-keyboard-response","35","474796","0.0-5.0-3.0-1.0-1.5","6984840e0bc6423e5ee5114a","not_provided","desktop","0","0","3","","","","","","working_memory","","null","<img class='upper3' src=images/squares/green.png><div class=""fixation"">+</div>","null","","","memory","practice","5","1","","","","","","","","","","",""
"html-keyboard-response","36","475697","0.0-5.0-3.0-1.0-2.5","6984840e0bc6423e5ee5114a","not_provided","desktop","0","0","3","","","","","","working_memory","","null","<div class=""fixation"">+</div>","null","","","","","","","","","","","","","","","","",""
"html-keyboard-response","37","480216","0.0-5.0-3.0-1.0-3.5","6984840e0bc6423e5ee5114a","not_provided","desktop","0","0","3","","","","","","working_memory","","4518","<img class='upper3' src=images/squares/yellow.png><div class=""fixation"">+</div>","s","","","test","practice","5","1","s","true","","","","","","","","",""
"html-keyboard-response","38","480718","0.0-5.0-3.0-1.0-4.5","6984840e0bc6423e5ee5114a","not_provided","desktop","0","0","3","","","","","","working_memory","","null","<div class=""fixation"">Correct</div>","null","","","","","","","","","","","","","","","","",""
"html-keyboard-response","39","481719","0.0-5.0-3.0-1.0-0.6","6984840e0bc6423e5ee5114a","not_provided","desktop","0","0","3","","","","","","working_memory","","null","<div class=""fixation"">+</div>","null","","","","","","","","","","","","","","","","",""
"html-keyboard-response","40","481923","0.0-5.0-3.0-1.0-1.6","6984840e0bc6423e5ee5114a","not_provided","desktop","0","0","3","","","","","","working_memory","","null","<img class='c' src=images/squares/magenta.png><img class='f' src=images/squares/yellow.png><img class='g' src=images/squares/green.png><img class='l' src=images/squares/black.png><div class=""fixation"">+</div>","null","","","memory","practice","6","4","","","","","","","","","","",""
"html-keyboard-response","41","482824","0.0-5.0-3.0-1.0-2.6","6984840e0bc6423e5ee5114a","not_provided","desktop","0","0","3","","","","","","working_memory","","null","<div class=""fixation"">+</div>","null","","","","","","","","","","","","","","","","",""
"html-keyboard-response","42","485397","0.0-5.0-3.0-1.0-3.6","6984840e0bc6423e5ee5114a","not_provided","desktop","0","0","3","","","","","","working_memory","","2571","<img class='l' src=images/squares/black.png><div class=""fixation"">+</div>","k","","","test","practice","6","4","k","true","","","","","","","","",""
"html-keyboard-response","43","485899","0.0-5.0-3.0-1.0-4.6","6984840e0bc6423e5ee5114a","not_provided","desktop","0","0","3","","","","","","working_memory","","null","<div class=""fixation"">Correct</div>","null","","","","","","","","","","","","","","","","",""
"html-keyboard-response","44","486901","0.0-5.0-3.0-1.0-0.7","6984840e0bc6423e5ee5114a","not_provided","desktop","0","0","3","","","","","","working_memory","","null","<div class=""fixation"">+</div>","null","","","","","","","","","","","","","","","","",""
"html-keyboard-response","45","487103","0.0-5.0-3.0-1.0-1.7","6984840e0bc6423e5ee5114a","not_provided","desktop","0","0","3","","","","","","working_memory","","null","<img class='a' src=images/squares/green.png><img class='e' src=images/squares/yellow.png><img class='i' src=images/squares/brown.png><img class='l' src=images/squares/red.png><div class=""fixation"">+</div>","null","","","memory","practice","7","4","","","","","","","","","","",""
"html-keyboard-response","46","488005","0.0-5.0-3.0-1.0-2.7","6984840e0bc6423e5ee5114a","not_provided","desktop","0","0","3","","","","","","working_memory","","null","<div class=""fixation"">+</div>","null","","","","","","","","","","","","","","","","",""
"html-keyboard-response","47","491720","0.0-5.0-3.0-1.0-3.7","6984840e0bc6423e5ee5114a","not_provided","desktop","0","0","3","","","","","","working_memory","","3714","<img class='a' src=images/squares/green.png><div class=""fixation"">+</div>","s","","","test","practice","7","4","k","false","","","","","","","","",""
"html-keyboard-response","48","492221","0.0-5.0-3.0-1.0-4.7","6984840e0bc6423e5ee5114a","not_provided","desktop","0","0","3","","","","","","working_memory","","null","<div class=""fixation"">Incorrect</div>","null","","","","","","","","","","","","","","","","",""
"html-keyboard-response","49","493223","0.0-5.0-3.0-1.0-0.8","6984840e0bc6423e5ee5114a","not_provided","desktop","0","0","3","","","","","","working_memory","","null","<div class=""fixation"">+</div>","null","","","","","","","","","","","","","","","","",""
"html-keyboard-response","50","493425","0.0-5.0-3.0-1.0-1.8","6984840e0bc6423e5ee5114a","not_provided","desktop","0","0","3","","","","","","working_memory","","null","<img class='c' src=images/squares/cyan.png><img class='a' src=images/squares/black.png><img class='d' src=images/squares/red.png><img class='f' src=images/squares/yellow.png><img class='i' src=images/squares/orange.png><img class='h' src=images/squares/green.png><img class='j' src=images/squares/magenta.png><img class='k' src=images/squares/blue.png><div class=""fixation"">+</div>","null","","","memory","practice","8","8","","","","","","","","","","",""
"html-keyboard-response","51","494327","0.0-5.0-3.0-1.0-2.8","6984840e0bc6423e5ee5114a","not_provided","desktop","0","0","3","","","","","","working_memory","","null","<div class=""fixation"">+</div>","null","","","","","","","","","","","","","","","","",""
"html-keyboard-response","52","495721","0.0-5.0-3.0-1.0-3.8","6984840e0bc6423e5ee5114a","not_provided","desktop","0","0","3","","","","","","working_memory","","1393","<img class='k' src=images/squares/blue.png><div class=""fixation"">+</div>","k","","","test","practice","8","8","k","true","","","","","","","","",""
"html-keyboard-response","53","496223","0.0-5.0-3.0-1.0-4.8","6984840e0bc6423e5ee5114a","not_provided","desktop","0","0","3","","","","","","working_memory","","null","<div class=""fixation"">Correct</div>","null","","","","","","","","","","","","","","","","",""
"html-keyboard-response","54","497224","0.0-5.0-3.0-1.0-0.9","6984840e0bc6423e5ee5114a","not_provided","desktop","0","0","3","","","","","","working_memory","","null","<div class=""fixation"">+</div>","null","","","","","","","","","","","","","","","","",""
"html-keyboard-response","55","497427","0.0-5.0-3.0-1.0-1.9","6984840e0bc6423e5ee5114a","not_provided","desktop","0","0","3","","","","","","working_memory","","null","<img class='a' src=images/squares/yellow.png><img class='b' src=images/squares/cyan.png><img class='e' src=images/squares/black.png><img class='d' src=images/squares/blue.png><img class='i' src=images/squares/magenta.png><img class='g' src=images/squares/brown.png><img class='k' src=images/squares/green.png><img class='l' src=images/squares/orange.png><div class=""fixation"">+</div>","null","","","memory","practice","9","8","","","","","","","","","","",""
"html-keyboard-response","56","498329","0.0-5.0-3.0-1.0-2.9","6984840e0bc6423e5ee5114a","not_provided","desktop","0","0","3","","","","","","working_memory","","null","<div class=""fixation"">+</div>","null","","","","","","","","","","","","","","","","",""
"html-keyboard-response","57","500404","0.0-5.0-3.0-1.0-3.9","6984840e0bc6423e5ee5114a","not_provided","desktop","0","0","3","","","","","","working_memory","","2073","<img class='g' src=images/squares/red.png><div class=""fixation"">+</div>","k","","","test","practice","9","8","s","false","","","","","","","","",""
"html-keyboard-response","58","500906","0.0-5.0-3.0-1.0-4.9","6984840e0bc6423e5ee5114a","not_provided","desktop","0","0","3","","","","","","working_memory","","null","<div class=""fixation"">Incorrect</div>","null","","","","","","","","","","","","","","","","",""
"html-keyboard-response","59","501908","0.0-5.0-3.0-1.0-0.10","6984840e0bc6423e5ee5114a","not_provided","desktop","0","0","3","","","","","","working_memory","","null","<div class=""fixation"">+</div>","null","","","","","","","","","","","","","","","","",""
"html-keyboard-response","60","502111","0.0-5.0-3.0-1.0-1.10","6984840e0bc6423e5ee5114a","not_provided","desktop","0","0","3","","","","","","working_memory","","null","<img class='lower2' src=images/squares/brown.png><div class=""fixation"">+</div>","null","","","memory","practice","10","1","","","","","","","","","","",""
"html-keyboard-response","61","503013","0.0-5.0-3.0-1.0-2.10","6984840e0bc6423e5ee5114a","not_provided","desktop","0","0","3","","","","","","working_memory","","null","<div class=""fixation"">+</div>","null","","","","","","","","","","","","","","","","",""
"html-keyboard-response","62","506395","0.0-5.0-3.0-1.0-3.10","6984840e0bc6423e5ee5114a","not_provided","desktop","0","0","3","","","","","","working_memory","","3380","<img class='lower2' src=images/squares/brown.png><div class=""fixation"">+</div>","k","","","test","practice","10","1","k","true","","","","","","","","",""
"html-keyboard-response","63","506896","0.0-5.0-3.0-1.0-4.10","6984840e0bc6423e5ee5114a","not_provided","desktop","0","0","3","","","","","","working_memory","","null","<div class=""fixation"">Correct</div>","null","","","","","","","","","","","","","","","","",""
"html-keyboard-response","64","507898","0.0-5.0-3.0-1.0-0.11","6984840e0bc6423e5ee5114a","not_provided","desktop","0","0","3","","","","","","working_memory","","null","<div class=""fixation"">+</div>","null","","","","","","","","","","","","","","","","",""
"html-keyboard-response","65","508101","0.0-5.0-3.0-1.0-1.11","6984840e0bc6423e5ee5114a","not_provided","desktop","0","0","3","","","","","","working_memory","","null","<img class='b' src=images/squares/red.png><img class='c' src=images/squares/black.png><img class='f' src=images/squares/blue.png><img class='d' src=images/squares/magenta.png><img class='g' src=images/squares/cyan.png><img class='i' src=images/squares/orange.png><img class='l' src=images/squares/yellow.png><img class='j' src=images/squares/brown.png><div class=""fixation"">+</div>","null","","","memory","practice","11","8","","","","","","","","","","",""
"html-keyboard-response","66","509003","0.0-5.0-3.0-1.0-2.11","6984840e0bc6423e5ee5114a","not_provided","desktop","0","0","3","","","","","","working_memory","","null","<div class=""fixation"">+</div>","null","","","","","","","","","","","","","","","","",""
"html-keyboard-response","67","512065","0.0-5.0-3.0-1.0-3.11","6984840e0bc6423e5ee5114a","not_provided","desktop","0","0","3","","","","","","working_memory","","3061","<img class='g' src=images/squares/green.png><div class=""fixation"">+</div>","k","","","test","practice","11","8","s","false","","","","","","","","",""
"html-keyboard-response","68","512567","0.0-5.0-3.0-1.0-4.11","6984840e0bc6423e5ee5114a","not_provided","desktop","0","0","3","","","","","","working_memory","","null","<div class=""fixation"">Incorrect</div>","null","","","","","","","","","","","","","","","","",""
"html-keyboard-response","69","513569","0.0-5.0-3.0-1.0-0.12","6984840e0bc6423e5ee5114a","not_provided","desktop","0","0","3","","","","","","working_memory","","null","<div class=""fixation"">+</div>","null","","","","","","","","","","","","","","","","",""
"html-keyboard-response","70","513772","0.0-5.0-3.0-1.0-1.12","6984840e0bc6423e5ee5114a","not_provided","desktop","0","0","3","","","","","","working_memory","","null","<img class='c' src=images/squares/red.png><img class='d' src=images/squares/orange.png><img class='h' src=images/squares/green.png><img class='l' src=images/squares/blue.png><div class=""fixation"">+</div>","null","","","memory","practice","12","4","","","","","","","","","","",""
"html-keyboard-response","71","514674","0.0-5.0-3.0-1.0-2.12","6984840e0bc6423e5ee5114a","not_provided","desktop","0","0","3","","","","","","working_memory","","null","<div class=""fixation"">+</div>","null","","","","","","","","","","","","","","","","",""
"html-keyboard-response","72","516253","0.0-5.0-3.0-1.0-3.12","6984840e0bc6423e5ee5114a","not_provided","desktop","0","0","3","","","","","","working_memory","","1577","<img class='l' src=images/squares/blue.png><div class=""fixation"">+</div>","k","","","test","practice","12","4","k","true","","","","","","","","",""
"html-keyboard-response","73","516756","0.0-5.0-3.0-1.0-4.12","6984840e0bc6423e5ee5114a","not_provided","desktop","0","0","3","","","","","","working_memory","","null","<div class=""fixation"">Correct</div>","null","","","","","","","","","","","","","","","","",""
"html-keyboard-response","74","517758","0.0-5.0-3.0-1.0-0.13","6984840e0bc6423e5ee5114a","not_provided","desktop","0","0","3","","","","","","working_memory","","null","<div class=""fixation"">+</div>","null","","","","","","","","","","","","","","","","",""
"html-keyboard-response","75","517961","0.0-5.0-3.0-1.0-1.13","6984840e0bc6423e5ee5114a","not_provided","desktop","0","0","3","","","","","","working_memory","","null","<img class='c' src=images/squares/cyan.png><img class='e' src=images/squares/blue.png><img class='g' src=images/squares/brown.png><img class='k' src=images/squares/black.png><div class=""fixation"">+</div>","null","","","memory","practice","13","4","","","","","","","","","","",""
"html-keyboard-response","76","518863","0.0-5.0-3.0-1.0-2.13","6984840e0bc6423e5ee5114a","not_provided","desktop","0","0","3","","","","","","working_memory","","null","<div class=""fixation"">+</div>","null","","","","","","","","","","","","","","","","",""
"html-keyboard-response","77","520154","0.0-5.0-3.0-1.0-3.13","6984840e0bc6423e5ee5114a","not_provided","desktop","0","0","3","","","","","","working_memory","","1289","<img class='e' src=images/squares/blue.png><div class=""fixation"">+</div>","k","","","test","practice","13","4","k","true","","","","","","","","",""
"html-keyboard-response","78","520656","0.0-5.0-3.0-1.0-4.13","6984840e0bc6423e5ee5114a","not_provided","desktop","0","0","3","","","","","","working_memory","","null","<div class=""fixation"">Correct</div>","null","","","","","","","","","","","","","","","","",""
"html-keyboard-response","79","521658","0.0-5.0-3.0-1.0-0.14","6984840e0bc6423e5ee5114a","not_provided","desktop","0","0","3","","","","","","working_memory","","null","<div class=""fixation"">+</div>","null","","","","","","","","","","","","","","","","",""
"html-keyboard-response","80","521861","0.0-5.0-3.0-1.0-1.14","6984840e0bc6423e5ee5114a","not_provided","desktop","0","0","3","","","","","","working_memory","","null","<img class='a' src=images/squares/yellow.png><img class='c' src=images/squares/cyan.png><img class='d' src=images/squares/orange.png><img class='f' src=images/squares/green.png><img class='i' src=images/squares/brown.png><img class='g' src=images/squares/black.png><img class='l' src=images/squares/magenta.png><img class='j' src=images/squares/red.png><div class=""fixation"">+</div>","null","","","memory","practice","14","8","","","","","","","","","","",""
"html-keyboard-response","81","522763","0.0-5.0-3.0-1.0-2.14","6984840e0bc6423e5ee5114a","not_provided","desktop","0","0","3","","","","","","working_memory","","null","<div class=""fixation"">+</div>","null","","","","","","","","","","","","","","","","",""
"html-keyboard-response","82","524437","0.0-5.0-3.0-1.0-3.14","6984840e0bc6423e5ee5114a","not_provided","desktop","0","0","3","","","","","","working_memory","","1672","<img class='l' src=images/squares/blue.png><div class=""fixation"">+</div>","k","","","test","practice","14","8","s","false","","","","","","","","",""
"html-keyboard-response","83","524938","0.0-5.0-3.0-1.0-4.14","6984840e0bc6423e5ee5114a","not_provided","desktop","0","0","3","","","","","","working_memory","","null","<div class=""fixation"">Incorrect</div>","null","","","","","","","","","","","","","","","","",""
"html-keyboard-response","84","530613","0.0-5.0-3.0-2.0-0.0","6984840e0bc6423e5ee5114a","not_provided","desktop","0","0","3","","","","","","working_memory","","5672","<p>Sorry. You made too many mistakes.<br>Let's do the practice session once again.<br><br><b>Press any key to continue</b></p>"," ","","","","","","","","","","","","","","","","",""
"html-keyboard-response","85","532629","0.0-5.0-3.1-0.1","6984840e0bc6423e5ee5114a","not_provided","desktop","0","0","3","","","","","","working_memory","","2014","<p>We will now start some practice trials.<br><b>The practice trials will also include some trials in which you will need to remember only one square to make sure you understood the instructions.</b><br>You may already want to be ready with your fingers on '<b>s</b>' and '<b>k</b>'.<br><img class=""wm-example-img"" src=""images/examples/keyboard.png""><br><b style=""font-size:1.2em;"">&lsquo;K&rsquo; = SAME &nbsp;&nbsp;&nbsp; &lsquo;S&rsquo; = DIFFERENT</b><br><br><u>Please try to be as accurate as possible.</u><br><br><b>Press any key to begin</b></p>"," ","","","","","","","","","","","","","","","","",""
"html-keyboard-response","86","534632","0.0-5.0-3.1-1.1-0.15","6984840e0bc6423e5ee5114a","not_provided","desktop","0","0","3","","","","","","working_memory","","null","<div class=""fixation"">+</div>","null","","","","","","","","","","","","","","","","",""
"html-keyboard-response","87","534834","0.0-5.0-3.1-1.1-1.15","6984840e0bc6423e5ee5114a","not_provided","desktop","0","0","3","","","","","","working_memory","","null","<img class='upper1' src=images/squares/red.png><div class=""fixation"">+</div>","null","","","memory","practice","15","1","","","","","","","","","","",""
"html-keyboard-response","88","535736","0.0-5.0-3.1-1.1-2.15","6984840e0bc6423e5ee5114a","not_provided","desktop","0","0","3","","","","","","working_memory","","null","<div class=""fixation"">+</div>","null","","","","","","","","","","","","","","","","",""
"html-keyboard-response","89","536986","0.0-5.0-3.1-1.1-3.15","6984840e0bc6423e5ee5114a","not_provided","desktop","0","0","3","","","","","","working_memory","","1248","<img class='upper1' src=images/squares/red.png><div class=""fixation"">+</div>","k","","","test","practice","15","1","k","true","","","","","","","","",""
"html-keyboard-response","90","537487","0.0-5.0-3.1-1.1-4.15","6984840e0bc6423e5ee5114a","not_provided","desktop","0","0","3","","","","","","working_memory","","null","<div class=""fixation"">Correct</div>","null","","","","","","","","","","","","","","","","",""
"html-keyboard-response","91","538488","0.0-5.0-3.1-1.1-0.16","6984840e0bc6423e5ee5114a","not_provided","desktop","0","0","3","","","","","","working_memory","","null","<div class=""fixation"">+</div>","null","","","","","","","","","","","","","","","","",""
"html-keyboard-response","92","538691","0.0-5.0-3.1-1.1-1.16","6984840e0bc6423e5ee5114a","not_provided","desktop","0","0","3","","","","","","working_memory","","null","<img class='lower3' src=images/squares/brown.png><div class=""fixation"">+</div>","null","","","memory","practice","16","1","","","","","","","","","","",""
"html-keyboard-response","93","539593","0.0-5.0-3.1-1.1-2.16","6984840e0bc6423e5ee5114a","not_provided","desktop","0","0","3","","","","","","working_memory","","null","<div class=""fixation"">+</div>","null","","","","","","","","","","","","","","","","",""
"html-keyboard-response","94","540666","0.0-5.0-3.1-1.1-3.16","6984840e0bc6423e5ee5114a","not_provided","desktop","0","0","3","","","","","","working_memory","","1071","<img class='lower3' src=images/squares/brown.png><div class=""fixation"">+</div>","k","","","test","practice","16","1","k","true","","","","","","","","",""
"html-keyboard-response","95","541167","0.0-5.0-3.1-1.1-4.16","6984840e0bc6423e5ee5114a","not_provided","desktop","0","0","3","","","","","","working_memory","","null","<div class=""fixation"">Correct</div>","null","","","","","","","","","","","","","","","","",""
"html-keyboard-response","96","542169","0.0-5.0-3.1-1.1-0.17","6984840e0bc6423e5ee5114a","not_provided","desktop","0","0","3","","","","","","working_memory","","null","<div class=""fixation"">+</div>","null","","","","","","","","","","","","","","","","",""
"html-keyboard-response","97","542370","0.0-5.0-3.1-1.1-1.17","6984840e0bc6423e5ee5114a","not_provided","desktop","0","0","3","","","","","","working_memory","","null","<img class='upper1' src=images/squares/blue.png><div class=""fixation"">+</div>","null","","","memory","practice","17","1","","","","","","","","","","",""
"html-keyboard-response","98","543272","0.0-5.0-3.1-1.1-2.17","6984840e0bc6423e5ee5114a","not_provided","desktop","0","0","3","","","","","","working_memory","","null","<div class=""fixation"">+</div>","null","","","","","","","","","","","","","","","","",""
"html-keyboard-response","99","544568","0.0-5.0-3.1-1.1-3.17","6984840e0bc6423e5ee5114a","not_provided","desktop","0","0","3","","","","","","working_memory","","1295","<img class='upper1' src=images/squares/red.png><div class=""fixation"">+</div>","s","","","test","practice","17","1","s","true","","","","","","","","",""
"html-keyboard-response","100","545069","0.0-5.0-3.1-1.1-4.17","6984840e0bc6423e5ee5114a","not_provided","desktop","0","0","3","","","","","","working_memory","","null","<div class=""fixation"">Correct</div>","null","","","","","","","","","","","","","","","","",""
"html-keyboard-response","101","546070","0.0-5.0-3.1-1.1-0.18","6984840e0bc6423e5ee5114a","not_provided","desktop","0","0","3","","","","","","working_memory","","null","<div class=""fixation"">+</div>","null","","","","","","","","","","","","","","","","",""
"html-keyboard-response","102","546272","0.0-5.0-3.1-1.1-1.18","6984840e0bc6423e5ee5114a","not_provided","desktop","0","0","3","","","","","","working_memory","","null","<img class='c' src=images/squares/black.png><img class='a' src=images/squares/green.png><img class='d' src=images/squares/red.png><img class='e' src=images/squares/blue.png><img class='h' src=images/squares/magenta.png><img class='i' src=images/squares/orange.png><img class='k' src=images/squares/brown.png><img class='j' src=images/squares/cyan.png><div class=""fixation"">+</div>","null","","","memory","practice","18","8","","","","","","","","","","",""
"html-keyboard-response","103","547174","0.0-5.0-3.1-1.1-2.18","6984840e0bc6423e5ee5114a","not_provided","desktop","0","0","3","","","","","","working_memory","","null","<div class=""fixation"">+</div>","null","","","","","","","","","","","","","","","","",""
"html-keyboard-response","104","548774","0.0-5.0-3.1-1.1-3.18","6984840e0bc6423e5ee5114a","not_provided","desktop","0","0","3","","","","","","working_memory","","1598","<img class='k' src=images/squares/brown.png><div class=""fixation"">+</div>","k","","","test","practice","18","8","k","true","","","","","","","","",""
"html-keyboard-response","105","549276","0.0-5.0-3.1-1.1-4.18","6984840e0bc6423e5ee5114a","not_provided","desktop","0","0","3","","","","","","working_memory","","null","<div class=""fixation"">Correct</div>","null","","","","","","","","","","","","","","","","",""
"html-keyboard-response","106","550277","0.0-5.0-3.1-1.1-0.19","6984840e0bc6423e5ee5114a","not_provided","desktop","0","0","3","","","","","","working_memory","","null","<div class=""fixation"">+</div>","null","","","","","","","","","","","","","","","","",""
"html-keyboard-response","107","550478","0.0-5.0-3.1-1.1-1.19","6984840e0bc6423e5ee5114a","not_provided","desktop","0","0","3","","","","","","working_memory","","null","<img class='lower2' src=images/squares/green.png><div class=""fixation"">+</div>","null","","","memory","practice","19","1","","","","","","","","","","",""
"html-keyboard-response","108","551379","0.0-5.0-3.1-1.1-2.19","6984840e0bc6423e5ee5114a","not_provided","desktop","0","0","3","","","","","","working_memory","","null","<div class=""fixation"">+</div>","null","","","","","","","","","","","","","","","","",""
"html-keyboard-response","109","552643","0.0-5.0-3.1-1.1-3.19","6984840e0bc6423e5ee5114a","not_provided","desktop","0","0","3","","","","","","working_memory","","1263","<img class='lower2' src=images/squares/red.png><div class=""fixation"">+</div>","s","","","test","practice","19","1","s","true","","","","","","","","",""
"html-keyboard-response","110","553145","0.0-5.0-3.1-1.1-4.19","6984840e0bc6423e5ee5114a","not_provided","desktop","0","0","3","","","","","","working_memory","","null","<div class=""fixation"">Correct</div>","null","","","","","","","","","","","","","","","","",""
"html-keyboard-response","111","554147","0.0-5.0-3.1-1.1-0.20","6984840e0bc6423e5ee5114a","not_provided","desktop","0","0","3","","","","","","working_memory","","null","<div class=""fixation"">+</div>","null","","","","","","","","","","","","","","","","",""
"html-keyboard-response","112","554350","0.0-5.0-3.1-1.1-1.20","6984840e0bc6423e5ee5114a","not_provided","desktop","0","0","3","","","","","","working_memory","","null","<img class='upper2' src=images/squares/blue.png><div class=""fixation"">+</div>","null","","","memory","practice","20","1","","","","","","","","","","",""
"html-keyboard-response","113","555252","0.0-5.0-3.1-1.1-2.20","6984840e0bc6423e5ee5114a","not_provided","desktop","0","0","3","","","","","","working_memory","","null","<div class=""fixation"">+</div>","null","","","","","","","","","","","","","","","","",""
"html-keyboard-response","114","556300","0.0-5.0-3.1-1.1-3.20","6984840e0bc6423e5ee5114a","not_provided","desktop","0","0","3","","","","","","working_memory","","1047","<img class='upper2' src=images/squares/blue.png><div class=""fixation"">+</div>","k","","","test","practice","20","1","k","true","","","","","","","","",""
"html-keyboard-response","115","556803","0.0-5.0-3.1-1.1-4.20","6984840e0bc6423e5ee5114a","not_provided","desktop","0","0","3","","","","","","working_memory","","null","<div class=""fixation"">Correct</div>","null","","","","","","","","","","","","","","","","",""
"html-keyboard-response","116","557806","0.0-5.0-3.1-1.1-0.21","6984840e0bc6423e5ee5114a","not_provided","desktop","0","0","3","","","","","","working_memory","","null","<div class=""fixation"">+</div>","null","","","","","","","","","","","","","","","","",""
"html-keyboard-response","117","558010","0.0-5.0-3.1-1.1-1.21","6984840e0bc6423e5ee5114a","not_provided","desktop","0","0","3","","","","","","working_memory","","null","<img class='c' src=images/squares/yellow.png><img class='a' src=images/squares/magenta.png><img class='e' src=images/squares/brown.png><img class='f' src=images/squares/green.png><img class='h' src=images/squares/black.png><img class='i' src=images/squares/blue.png><img class='l' src=images/squares/orange.png><img class='k' src=images/squares/red.png><div class=""fixation"">+</div>","null","","","memory","practice","21","8","","","","","","","","","","",""
"html-keyboard-response","118","558912","0.0-5.0-3.1-1.1-2.21","6984840e0bc6423e5ee5114a","not_provided","desktop","0","0","3","","","","","","working_memory","","null","<div class=""fixation"">+</div>","null","","","","","","","","","","","","","","","","",""
"html-keyboard-response","119","561475","0.0-5.0-3.1-1.1-3.21","6984840e0bc6423e5ee5114a","not_provided","desktop","0","0","3","","","","","","working_memory","","2562","<img class='l' src=images/squares/cyan.png><div class=""fixation"">+</div>","s","","","test","practice","21","8","s","true","","","","","","","","",""
"html-keyboard-response","120","561976","0.0-5.0-3.1-1.1-4.21","6984840e0bc6423e5ee5114a","not_provided","desktop","0","0","3","","","","","","working_memory","","null","<div class=""fixation"">Correct</div>","null","","","","","","","","","","","","","","","","",""
"html-keyboard-response","121","562978","0.0-5.0-3.1-1.1-0.22","6984840e0bc6423e5ee5114a","not_provided","desktop","0","0","3","","","","","","working_memory","","null","<div class=""fixation"">+</div>","null","","","","","","","","","","","","","","","","",""
"html-keyboard-response","122","563182","0.0-5.0-3.1-1.1-1.22","6984840e0bc6423e5ee5114a","not_provided","desktop","0","0","3","","","","","","working_memory","","null","<img class='a' src=images/squares/orange.png><img class='c' src=images/squares/brown.png><img class='d' src=images/squares/magenta.png><img class='f' src=images/squares/yellow.png><img class='g' src=images/squares/black.png><img class='h' src=images/squares/red.png><img class='l' src=images/squares/green.png><img class='k' src=images/squares/blue.png><div class=""fixation"">+</div>","null","","","memory","practice","22","8","","","","","","","","","","",""
"html-keyboard-response","123","564085","0.0-5.0-3.1-1.1-2.22","6984840e0bc6423e5ee5114a","not_provided","desktop","0","0","3","","","","","","working_memory","","null","<div class=""fixation"">+</div>","null","","","","","","","","","","","","","","","","",""
"html-keyboard-response","124","566215","0.0-5.0-3.1-1.1-3.22","6984840e0bc6423e5ee5114a","not_provided","desktop","0","0","3","","","","","","working_memory","","2128","<img class='g' src=images/squares/cyan.png><div class=""fixation"">+</div>","s","","","test","practice","22","8","s","true","","","","","","","","",""
"html-keyboard-response","125","566717","0.0-5.0-3.1-1.1-4.22","6984840e0bc6423e5ee5114a","not_provided","desktop","0","0","3","","","","","","working_memory","","null","<div class=""fixation"">Correct</div>","null","","","","","","","","","","","","","","","","",""
"html-keyboard-response","126","567719","0.0-5.0-3.1-1.1-0.23","6984840e0bc6423e5ee5114a","not_provided","desktop","0","0","3","","","","","","working_memory","","null","<div class=""fixation"">+</div>","null","","","","","","","","","","","","","","","","",""
"html-keyboard-response","127","567922","0.0-5.0-3.1-1.1-1.23","6984840e0bc6423e5ee5114a","not_provided","desktop","0","0","3","","","","","","working_memory","","null","<img class='b' src=images/squares/green.png><img class='e' src=images/squares/yellow.png><img class='h' src=images/squares/red.png><img class='l' src=images/squares/black.png><div class=""fixation"">+</div>","null","","","memory","practice","23","4","","","","","","","","","","",""
"html-keyboard-response","128","568825","0.0-5.0-3.1-1.1-2.23","6984840e0bc6423e5ee5114a","not_provided","desktop","0","0","3","","","","","","working_memory","","null","<div class=""fixation"">+</div>","null","","","","","","","","","","","","","","","","",""
"html-keyboard-response","129","572063","0.0-5.0-3.1-1.1-3.23","6984840e0bc6423e5ee5114a","not_provided","desktop","0","0","3","","","","","","working_memory","","3237","<img class='h' src=images/squares/red.png><div class=""fixation"">+</div>","k","","","test","practice","23","4","k","true","","","","","","","","",""
"html-keyboard-response","130","572565","0.0-5.0-3.1-1.1-4.23","6984840e0bc6423e5ee5114a","not_provided","desktop","0","0","3","","","","","","working_memory","","null","<div class=""fixation"">Correct</div>","null","","","","","","","","","","","","","","","","",""
"html-keyboard-response","131","573567","0.0-5.0-3.1-1.1-0.24","6984840e0bc6423e5ee5114a","not_provided","desktop","0","0","3","","","","","","working_memory","","null","<div class=""fixation"">+</div>","null","","","","","","","","","","","","","","","","",""
"html-keyboard-response","132","573770","0.0-5.0-3.1-1.1-1.24","6984840e0bc6423e5ee5114a","not_provided","desktop","0","0","3","","","","","","working_memory","","null","<img class='lower3' src=images/squares/brown.png><div class=""fixation"">+</div>","null","","","memory","practice","24","1","","","","","","","","","","",""
"html-keyboard-response","133","574672","0.0-5.0-3.1-1.1-2.24","6984840e0bc6423e5ee5114a","not_provided","desktop","0","0","3","","","","","","working_memory","","null","<div class=""fixation"">+</div>","null","","","","","","","","","","","","","","","","",""
"html-keyboard-response","134","577595","0.0-5.0-3.1-1.1-3.24","6984840e0bc6423e5ee5114a","not_provided","desktop","0","0","3","","","","","","working_memory","","2921","<img class='lower3' src=images/squares/black.png><div class=""fixation"">+</div>","s","","","test","practice","24","1","s","true","","","","","","","","",""
"html-keyboard-response","135","578096","0.0-5.0-3.1-1.1-4.24","6984840e0bc6423e5ee5114a","not_provided","desktop","0","0","3","","","","","","working_memory","","null","<div class=""fixation"">Correct</div>","null","","","","","","","","","","","","","","","","",""
"html-keyboard-response","136","579098","0.0-5.0-3.1-1.1-0.25","6984840e0bc6423e5ee5114a","not_provided","desktop","0","0","3","","","","","","working_memory","","null","<div class=""fixation"">+</div>","null","","","","","","","","","","","","","","","","",""
"html-keyboard-response","137","579301","0.0-5.0-3.1-1.1-1.25","6984840e0bc6423e5ee5114a","not_provided","desktop","0","0","3","","","","","","working_memory","","null","<img class='c' src=images/squares/brown.png><img class='a' src=images/squares/cyan.png><img class='e' src=images/squares/magenta.png><img class='f' src=images/squares/yellow.png><img class='g' src=images/squares/orange.png><img class='i' src=images/squares/black.png><img class='k' src=images/squares/blue.png><img class='j' src=images/squares/green.png><div class=""fixation"">+</div>","null","","","memory","practice","25","8","","","","","","","","","","",""
"html-keyboard-response","138","580203","0.0-5.0-3.1-1.1-2.25","6984840e0bc6423e5ee5114a","not_provided","desktop","0","0","3","","","","","","working_memory","","null","<div class=""fixation"">+</div>","null","","","","","","","","","","","","","","","","",""
"html-keyboard-response","139","583670","0.0-5.0-3.1-1.1-3.25","6984840e0bc6423e5ee5114a","not_provided","desktop","0","0","3","","","","","","working_memory","","3466","<img class='f' src=images/squares/red.png><div class=""fixation"">+</div>","s","","","test","practice","25","8","s","true","","","","","","","","",""
"html-keyboard-response","140","584172","0.0-5.0-3.1-1.1-4.25","6984840e0bc6423e5ee5114a","not_provided","desktop","0","0","3","","","","","","working_memory","","null","<div class=""fixation"">Correct</div>","null","","","","","","","","","","","","","","","","",""
"html-keyboard-response","141","585173","0.0-5.0-3.1-1.1-0.26","6984840e0bc6423e5ee5114a","not_provided","desktop","0","0","3","","","","","","working_memory","","null","<div class=""fixation"">+</div>","null","","","","","","","","","","","","","","","","",""
"html-keyboard-response","142","585376","0.0-5.0-3.1-1.1-1.26","6984840e0bc6423e5ee5114a","not_provided","desktop","0","0","3","","","","","","working_memory","","null","<img class='c' src=images/squares/magenta.png><img class='f' src=images/squares/orange.png><img class='h' src=images/squares/green.png><img class='j' src=images/squares/cyan.png><div class=""fixation"">+</div>","null","","","memory","practice","26","4","","","","","","","","","","",""
"html-keyboard-response","143","586279","0.0-5.0-3.1-1.1-2.26","6984840e0bc6423e5ee5114a","not_provided","desktop","0","0","3","","","","","","working_memory","","null","<div class=""fixation"">+</div>","null","","","","","","","","","","","","","","","","",""
"html-keyboard-response","144","588207","0.0-5.0-3.1-1.1-3.26","6984840e0bc6423e5ee5114a","not_provided","desktop","0","0","3","","","","","","working_memory","","1926","<img class='c' src=images/squares/black.png><div class=""fixation"">+</div>","s","","","test","practice","26","4","s","true","","","","","","","","",""
"html-keyboard-response","145","588708","0.0-5.0-3.1-1.1-4.26","6984840e0bc6423e5ee5114a","not_provided","desktop","0","0","3","","","","","","working_memory","","null","<div class=""fixation"">Correct</div>","null","","","","","","","","","","","","","","","","",""
"html-keyboard-response","146","589710","0.0-5.0-3.1-1.1-0.27","6984840e0bc6423e5ee5114a","not_provided","desktop","0","0","3","","","","","","working_memory","","null","<div class=""fixation"">+</div>","null","","","","","","","","","","","","","","","","",""
"html-keyboard-response","147","589913","0.0-5.0-3.1-1.1-1.27","6984840e0bc6423e5ee5114a","not_provided","desktop","0","0","3","","","","","","working_memory","","null","<img class='a' src=images/squares/red.png><img class='e' src=images/squares/black.png><img class='i' src=images/squares/magenta.png><img class='j' src=images/squares/yellow.png><div class=""fixation"">+</div>","null","","","memory","practice","27","4","","","","","","","","","","",""
"html-keyboard-response","148","590815","0.0-5.0-3.1-1.1-2.27","6984840e0bc6423e5ee5114a","not_provided","desktop","0","0","3","","","","","","working_memory","","null","<div class=""fixation"">+</div>","null","","","","","","","","","","","","","","","","",""
"html-keyboard-response","149","592133","0.0-5.0-3.1-1.1-3.27","6984840e0bc6423e5ee5114a","not_provided","desktop","0","0","3","","","","","","working_memory","","1316","<img class='e' src=images/squares/black.png><div class=""fixation"">+</div>","k","","","test","practice","27","4","k","true","","","","","","","","",""
"html-keyboard-response","150","592635","0.0-5.0-3.1-1.1-4.27","6984840e0bc6423e5ee5114a","not_provided","desktop","0","0","3","","","","","","working_memory","","null","<div class=""fixation"">Correct</div>","null","","","","","","","","","","","","","","","","",""
"html-keyboard-response","151","593638","0.0-5.0-3.1-1.1-0.28","6984840e0bc6423e5ee5114a","not_provided","desktop","0","0","3","","","","","","working_memory","","null","<div class=""fixation"">+</div>","null","","","","","","","","","","","","","","","","",""
"html-keyboard-response","152","593843","0.0-5.0-3.1-1.1-1.28","6984840e0bc6423e5ee5114a","not_provided","desktop","0","0","3","","","","","","working_memory","","null","<img class='b' src=images/squares/orange.png><img class='c' src=images/squares/blue.png><img class='f' src=images/squares/black.png><img class='e' src=images/squares/green.png><img class='g' src=images/squares/yellow.png><img class='h' src=images/squares/red.png><img class='l' src=images/squares/brown.png><img class='j' src=images/squares/magenta.png><div class=""fixation"">+</div>","null","","","memory","practice","28","8","","","","","","","","","","",""
"html-keyboard-response","153","594744","0.0-5.0-3.1-1.1-2.28","6984840e0bc6423e5ee5114a","not_provided","desktop","0","0","3","","","","","","working_memory","","null","<div class=""fixation"">+</div>","null","","","","","","","","","","","","","","","","",""
"html-keyboard-response","154","596297","0.0-5.0-3.1-1.1-3.28","6984840e0bc6423e5ee5114a","not_provided","desktop","0","0","3","","","","","","working_memory","","1551","<img class='e' src=images/squares/green.png><div class=""fixation"">+</div>","s","","","test","practice","28","8","k","false","","","","","","","","",""
"html-keyboard-response","155","596798","0.0-5.0-3.1-1.1-4.28","6984840e0bc6423e5ee5114a","not_provided","desktop","0","0","3","","","","","","working_memory","","null","<div class=""fixation"">Incorrect</div>","null","","","","","","","","","","","","","","","","",""
"html-keyboard-response","156","597801","0.0-5.0-3.1-1.1-0.29","6984840e0bc6423e5ee5114a","not_provided","desktop","0","0","3","","","","","","working_memory","","null","<div class=""fixation"">+</div>","null","","","","","","","","","","","","","","","","",""
"html-keyboard-response","157","598003","0.0-5.0-3.1-1.1-1.29","6984840e0bc6423e5ee5114a","not_provided","desktop","0","0","3","","","","","","working_memory","","null","<img class='upper3' src=images/squares/cyan.png><div class=""fixation"">+</div>","null","","","memory","practice","29","1","","","","","","","","","","",""
"html-keyboard-response","158","598905","0.0-5.0-3.1-1.1-2.29","6984840e0bc6423e5ee5114a","not_provided","desktop","0","0","3","","","","","","working_memory","","null","<div class=""fixation"">+</div>","null","","","","","","","","","","","","","","","","",""
"html-keyboard-response","159","600469","0.0-5.0-3.1-1.1-3.29","6984840e0bc6423e5ee5114a","not_provided","desktop","0","0","3","","","","","","working_memory","","1562","<img class='upper3' src=images/squares/blue.png><div class=""fixation"">+</div>","s","","","test","practice","29","1","s","true","","","","","","","","",""
"html-keyboard-response","160","600971","0.0-5.0-3.1-1.1-4.29","6984840e0bc6423e5ee5114a","not_provided","desktop","0","0","3","","","","","","working_memory","","null","<div class=""fixation"">Correct</div>","null","","","","","","","","","","","","","","","","",""
"html-keyboard-response","161","607794","0.0-5.0-4.0","6984840e0bc6423e5ee5114a","not_provided","desktop","0","0","3","","","","","","working_memory","","6820","<div style=""text-align:center;font-family:sans-serif;""><p>Good job! You have finished the practice.</p><p>We will now start the real experiment.</p><p>Please try to be as accurate as possible.</p><p><b><u>Note: random guessing may risk your payment.</u></b></p><br><p><b>Press any key to begin.</b></p></div>"," ","","","","","","","","","","","","","","","","",""
"html-keyboard-response","162","608795","0.0-5.0-5.0-0.0","6984840e0bc6423e5ee5114a","not_provided","desktop","0","0","3","","","","","","working_memory","","null","<div class=""fixation"">+</div>","null","","","","","","","","","","","","","","","","",""
"html-keyboard-response","163","609005","0.0-5.0-5.0-1.0","6984840e0bc6423e5ee5114a","not_provided","desktop","0","0","3","","","","","","working_memory","","null","<img class='b' src=images/squares/red.png><img class='c' src=images/squares/blue.png><img class='d' src=images/squares/green.png><img class='e' src=images/squares/orange.png><img class='h' src=images/squares/magenta.png><img class='i' src=images/squares/yellow.png><img class='l' src=images/squares/black.png><img class='j' src=images/squares/brown.png><div class=""fixation"">+</div>","null","","","memory","exp","0","","","","","","","","","","","",""
"html-keyboard-response","164","609914","0.0-5.0-5.0-2.0","6984840e0bc6423e5ee5114a","not_provided","desktop","0","0","3","","","","","","working_memory","","null","<div class=""fixation"">+</div>","null","","","","","","","","","","","","","","","","",""
"html-keyboard-response","165","611534","0.0-5.0-5.0-3.0","6984840e0bc6423e5ee5114a","not_provided","desktop","0","0","3","","","","","","working_memory","","1619","<img class='b' src=images/squares/cyan.png><div class=""fixation"">+</div>","s","","","test_squares","exp","0","8","s","true","ks","d","","","","","","",""
"html-keyboard-response","166","612046","0.0-5.0-5.0-4.0","6984840e0bc6423e5ee5114a","not_provided","desktop","0","0","3","","","","","","working_memory","","null","<div class=""fixation"">Correct</div>","null","","","","","","","","","","","","","","","","",""
"html-keyboard-response","167","613048","0.0-5.0-5.0-0.1","6984840e0bc6423e5ee5114a","not_provided","desktop","0","0","3","","","","","","working_memory","","null","<div class=""fixation"">+</div>","null","","","","","","","","","","","","","","","","",""
"html-keyboard-response","168","613265","0.0-5.0-5.0-1.1","6984840e0bc6423e5ee5114a","not_provided","desktop","0","0","3","","","","","","working_memory","","null","<img class='b' src=images/squares/magenta.png><img class='a' src=images/squares/cyan.png><img class='f' src=images/squares/yellow.png><img class='d' src=images/squares/blue.png><img class='g' src=images/squares/black.png><img class='i' src=images/squares/orange.png><img class='l' src=images/squares/green.png><img class='j' src=images/squares/red.png><div class=""fixation"">+</div>","null","","","memory","exp","1","","","","","","","","","","","",""
"html-keyboard-response","169","614175","0.0-5.0-5.0-2.1","6984840e0bc6423e5ee5114a","not_provided","desktop","0","0","3","","","","","","working_memory","","null","<div class=""fixation"">+</div>","null","","","","","","","","","","","","","","","","",""
"html-keyboard-response","170","616007","0.0-5.0-5.0-3.1","6984840e0bc6423e5ee5114a","not_provided","desktop","0","0","3","","","","","","working_memory","","1830","<img class='l' src=images/squares/brown.png><div class=""fixation"">+</div>","s","","","test_squares","exp","1","8","s","true","ks","d","","","","","","",""
"html-keyboard-response","171","616521","0.0-5.0-5.0-4.1","6984840e0bc6423e5ee5114a","not_provided","desktop","0","0","3","","","","","","working_memory","","null","<div class=""fixation"">Correct</div>","null","","","","","","","","","","","","","","","","",""
"html-keyboard-response","172","617532","0.0-5.0-5.0-0.2","6984840e0bc6423e5ee5114a","not_provided","desktop","0","0","3","","","","","","working_memory","","null","<div class=""fixation"">+</div>","null","","","","","","","","","","","","","","","","",""
"html-keyboard-response","173","617735","0.0-5.0-5.0-1.2","6984840e0bc6423e5ee5114a","not_provided","desktop","0","0","3","","","","","","working_memory","","null","<img class='a' src=images/squares/magenta.png><img class='b' src=images/squares/green.png><img class='d' src=images/squares/cyan.png><img class='f' src=images/squares/yellow.png><img class='i' src=images/squares/orange.png><img class='h' src=images/squares/red.png><img class='l' src=images/squares/brown.png><img class='k' src=images/squares/black.png><div class=""fixation"">+</div>","null","","","memory","exp","2","","","","","","","","","","","",""
"html-keyboard-response","174","618650","0.0-5.0-5.0-2.2","6984840e0bc6423e5ee5114a","not_provided","desktop","0","0","3","","","","","","working_memory","","null","<div class=""fixation"">+</div>","null","","","","","","","","","","","","","","","","",""
"html-keyboard-response","175","620130","0.0-5.0-5.0-3.2","6984840e0bc6423e5ee5114a","not_provided","desktop","0","0","3","","","","","","working_memory","","1479","<img class='l' src=images/squares/blue.png><div class=""fixation"">+</div>","s","","","test_squares","exp","2","8","s","true","ks","d","","","","","","",""
"html-keyboard-response","176","620638","0.0-5.0-5.0-4.2","6984840e0bc6423e5ee5114a","not_provided","desktop","0","0","3","","","","","","working_memory","","null","<div class=""fixation"">Correct</div>","null","","","","","","","","","","","","","","","","",""
"html-keyboard-response","177","621640","0.0-5.0-5.0-0.3","6984840e0bc6423e5ee5114a","not_provided","desktop","0","0","3","","","","","","working_memory","","null","<div class=""fixation"">+</div>","null","","","","","","","","","","","","","","","","",""
"html-keyboard-response","178","621857","0.0-5.0-5.0-1.3","6984840e0bc6423e5ee5114a","not_provided","desktop","0","0","3","","","","","","working_memory","","null","<img class='c' src=images/squares/brown.png><img class='a' src=images/squares/blue.png><img class='f' src=images/squares/yellow.png><img class='e' src=images/squares/black.png><img class='i' src=images/squares/green.png><img class='g' src=images/squares/orange.png><img class='j' src=images/squares/red.png><img class='k' src=images/squares/cyan.png><div class=""fixation"">+</div>","null","","","memory","exp","3","","","","","","","","","","","",""
"html-keyboard-response","179","622767","0.0-5.0-5.0-2.3","6984840e0bc6423e5ee5114a","not_provided","desktop","0","0","3","","","","","","working_memory","","null","<div class=""fixation"">+</div>","null","","","","","","","","","","","","","","","","",""
"html-keyboard-response","180","624351","0.0-5.0-5.0-3.3","6984840e0bc6423e5ee5114a","not_provided","desktop","0","0","3","","","","","","working_memory","","1582","<img class='c' src=images/squares/brown.png><div class=""fixation"">+</div>","s","","","test_squares","exp","3","8","k","false","ks","s","","","","","","",""
"html-keyboard-response","181","624862","0.0-5.0-5.0-4.3","6984840e0bc6423e5ee5114a","not_provided","desktop","0","0","3","","","","","","working_memory","","null","<div class=""fixation"">Incorrect</div>","null","","","","","","","","","","","","","","","","",""
"html-keyboard-response","182","625865","0.0-5.0-5.0-0.4","6984840e0bc6423e5ee5114a","not_provided","desktop","0","0","3","","","","","","working_memory","","null","<div class=""fixation"">+</div>","null","","","","","","","","","","","","","","","","",""
"html-keyboard-response","183","626075","0.0-5.0-5.0-1.4","6984840e0bc6423e5ee5114a","not_provided","desktop","0","0","3","","","","","","working_memory","","null","<img class='c' src=images/squares/cyan.png><img class='b' src=images/squares/red.png><img class='d' src=images/squares/blue.png><img class='f' src=images/squares/brown.png><img class='h' src=images/squares/green.png><img class='i' src=images/squares/orange.png><img class='j' src=images/squares/black.png><img class='k' src=images/squares/yellow.png><div class=""fixation"">+</div>","null","","","memory","exp","4","","","","","","","","","","","",""
"html-keyboard-response","184","626978","0.0-5.0-5.0-2.4","6984840e0bc6423e5ee5114a","not_provided","desktop","0","0","3","","","","","","working_memory","","null","<div class=""fixation"">+</div>","null","","","","","","","","","","","","","","","","",""
"html-keyboard-response","185","628918","0.0-5.0-5.0-3.4","6984840e0bc6423e5ee5114a","not_provided","desktop","0","0","3","","","","","","working_memory","","1938","<img class='k' src=images/squares/yellow.png><div class=""fixation"">+</div>","s","","","test_squares","exp","4","8","k","false","ks","s","","","","","","",""
"html-keyboard-response","186","629431","0.0-5.0-5.0-4.4","6984840e0bc6423e5ee5114a","not_provided","desktop","0","0","3","","","","","","working_memory","","null","<div class=""fixation"">Incorrect</div>","null","","","","","","","","","","","","","","","","",""
"html-keyboard-response","187","630447","0.0-5.0-5.0-0.5","6984840e0bc6423e5ee5114a","not_provided","desktop","0","0","3","","","","","","working_memory","","null","<div class=""fixation"">+</div>","null","","","","","","","","","","","","","","","","",""
"html-keyboard-response","188","630665","0.0-5.0-5.0-1.5","6984840e0bc6423e5ee5114a","not_provided","desktop","0","0","3","","","","","","working_memory","","null","<img class='b' src=images/squares/magenta.png><img class='f' src=images/squares/yellow.png><img class='i' src=images/squares/green.png><img class='k' src=images/squares/cyan.png><div class=""fixation"">+</div>","null","","","memory","exp","5","","","","","","","","","","","",""
"html-keyboard-response","189","631570","0.0-5.0-5.0-2.5","6984840e0bc6423e5ee5114a","not_provided","desktop","0","0","3","","","","","","working_memory","","null","<div class=""fixation"">+</div>","null","","","","","","","","","","","","","","","","",""
"html-keyboard-response","190","632790","0.0-5.0-5.0-3.5","6984840e0bc6423e5ee5114a","not_provided","desktop","0","0","3","","","","","","working_memory","","1219","<img class='f' src=images/squares/yellow.png><div class=""fixation"">+</div>","k","","","test_squares","exp","5","4","k","true","ks","s","","","","","","",""
"html-keyboard-response","191","633306","0.0-5.0-5.0-4.5","6984840e0bc6423e5ee5114a","not_provided","desktop","0","0","3","","","","","","working_memory","","null","<div class=""fixation"">Correct</div>","null","","","","","","","","","","","","","","","","",""
"html-keyboard-response","192","634317","0.0-5.0-5.0-0.6","6984840e0bc6423e5ee5114a","not_provided","desktop","0","0","3","","","","","","working_memory","","null","<div class=""fixation"">+</div>","null","","","","","","","","","","","","","","","","",""
"html-keyboard-response","193","634522","0.0-5.0-5.0-1.6","6984840e0bc6423e5ee5114a","not_provided","desktop","0","0","3","","","","","","working_memory","","null","<img class='a' src=images/squares/orange.png><img class='e' src=images/squares/red.png><img class='g' src=images/squares/magenta.png><img class='k' src=images/squares/green.png><div class=""fixation"">+</div>","null","","","memory","exp","6","","","","","","","","","","","",""
"html-keyboard-response","194","635427","0.0-5.0-5.0-2.6","6984840e0bc6423e5ee5114a","not_provided","desktop","0","0","3","","","","","","working_memory","","null","<div class=""fixation"">+</div>","null","","","","","","","","","","","","","","","","",""
"html-keyboard-response","195","637413","0.0-5.0-5.0-3.6","6984840e0bc6423e5ee5114a","not_provided","desktop","0","0","3","","","","","","working_memory","","1984","<img class='k' src=images/squares/green.png><div class=""fixation"">+</div>","k","","","test_squares","exp","6","4","k","true","ks","s","","","","","","",""
"html-keyboard-response","196","637921","0.0-5.0-5.0-4.6","6984840e0bc6423e5ee5114a","not_provided","desktop","0","0","3","","","","","","working_memory","","null","<div class=""fixation"">Correct</div>","null","","","","","","","","","","","","","","","","",""
"html-keyboard-response","197","638924","0.0-5.0-5.0-0.7","6984840e0bc6423e5ee5114a","not_provided","desktop","0","0","3","","","","","","working_memory","","null","<div class=""fixation"">+</div>","null","","","","","","","","","","","","","","","","",""
"html-keyboard-response","198","639133","0.0-5.0-5.0-1.7","6984840e0bc6423e5ee5114a","not_provided","desktop","0","0","3","","","","","","working_memory","","null","<img class='a' src=images/squares/black.png><img class='d' src=images/squares/magenta.png><img class='g' src=images/squares/green.png><img class='j' src=images/squares/blue.png><div class=""fixation"">+</div>","null","","","memory","exp","7","","","","","","","","","","","",""
"html-keyboard-response","199","640037","0.0-5.0-5.0-2.7","6984840e0bc6423e5ee5114a","not_provided","desktop","0","0","3","","","","","","working_memory","","null","<div class=""fixation"">+</div>","null","","","","","","","","","","","","","","","","",""
"html-keyboard-response","200","641895","0.0-5.0-5.0-3.7","6984840e0bc6423e5ee5114a","not_provided","desktop","0","0","3","","","","","","working_memory","","1856","<img class='g' src=images/squares/cyan.png><div class=""fixation"">+</div>","s","","","test_squares","exp","7","4","s","true","ks","d","","","","","","",""
"html-keyboard-response","201","642406","0.0-5.0-5.0-4.7","6984840e0bc6423e5ee5114a","not_provided","desktop","0","0","3","","","","","","working_memory","","null","<div class=""fixation"">Correct</div>","null","","","","","","","","","","","","","","","","",""
"html-keyboard-response","202","643408","0.0-5.0-5.0-0.8","6984840e0bc6423e5ee5114a","not_provided","desktop","0","0","3","","","","","","working_memory","","null","<div class=""fixation"">+</div>","null","","","","","","","","","","","","","","","","",""
"html-keyboard-response","203","643616","0.0-5.0-5.0-1.8","6984840e0bc6423e5ee5114a","not_provided","desktop","0","0","3","","","","","","working_memory","","null","<img class='a' src=images/squares/red.png><img class='d' src=images/squares/magenta.png><img class='h' src=images/squares/green.png><img class='j' src=images/squares/blue.png><div class=""fixation"">+</div>","null","","","memory","exp","8","","","","","","","","","","","",""
"html-keyboard-response","204","644521","0.0-5.0-5.0-2.8","6984840e0bc6423e5ee5114a","not_provided","desktop","0","0","3","","","","","","working_memory","","null","<div class=""fixation"">+</div>","null","","","","","","","","","","","","","","","","",""
"html-keyboard-response","205","647749","0.0-5.0-5.0-3.8","6984840e0bc6423e5ee5114a","not_provided","desktop","0","0","3","","","","","","working_memory","","3226","<img class='a' src=images/squares/orange.png><div class=""fixation"">+</div>","s","","","test_squares","exp","8","4","s","true","ks","d","","","","","","",""
"html-keyboard-response","206","648254","0.0-5.0-5.0-4.8","6984840e0bc6423e5ee5114a","not_provided","desktop","0","0","3","","","","","","working_memory","","null","<div class=""fixation"">Correct</div>","null","","","","","","","","","","","","","","","","",""
"html-keyboard-response","207","649260","0.0-5.0-5.0-0.9","6984840e0bc6423e5ee5114a","not_provided","desktop","0","0","3","","","","","","working_memory","","null","<div class=""fixation"">+</div>","null","","","","","","","","","","","","","","","","",""
"html-keyboard-response","208","649472","0.0-5.0-5.0-1.9","6984840e0bc6423e5ee5114a","not_provided","desktop","0","0","3","","","","","","working_memory","","null","<img class='a' src=images/squares/yellow.png><img class='c' src=images/squares/cyan.png><img class='e' src=images/squares/black.png><img class='f' src=images/squares/red.png><img class='g' src=images/squares/blue.png><img class='i' src=images/squares/magenta.png><img class='j' src=images/squares/brown.png><img class='k' src=images/squares/green.png><div class=""fixation"">+</div>","null","","","memory","exp","9","","","","","","","","","","","",""
"html-keyboard-response","209","650382","0.0-5.0-5.0-2.9","6984840e0bc6423e5ee5114a","not_provided","desktop","0","0","3","","","","","","working_memory","","null","<div class=""fixation"">+</div>","null","","","","","","","","","","","","","","","","",""
"html-keyboard-response","210","652533","0.0-5.0-5.0-3.9","6984840e0bc6423e5ee5114a","not_provided","desktop","0","0","3","","","","","","working_memory","","2149","<img class='i' src=images/squares/orange.png><div class=""fixation"">+</div>","k","","","test_squares","exp","9","8","s","false","ks","d","","","","","","",""
"html-keyboard-response","211","653042","0.0-5.0-5.0-4.9","6984840e0bc6423e5ee5114a","not_provided","desktop","0","0","3","","","","","","working_memory","","null","<div class=""fixation"">Incorrect</div>","null","","","","","","","","","","","","","","","","",""
"html-keyboard-response","212","654054","0.0-5.0-5.0-0.10","6984840e0bc6423e5ee5114a","not_provided","desktop","0","0","3","","","","","","working_memory","","null","<div class=""fixation"">+</div>","null","","","","","","","","","","","","","","","","",""
"html-keyboard-response","213","654272","0.0-5.0-5.0-1.10","6984840e0bc6423e5ee5114a","not_provided","desktop","0","0","3","","","","","","working_memory","","null","<img class='b' src=images/squares/brown.png><img class='d' src=images/squares/yellow.png><img class='i' src=images/squares/magenta.png><img class='k' src=images/squares/orange.png><div class=""fixation"">+</div>","null","","","memory","exp","10","","","","","","","","","","","",""
"html-keyboard-response","214","655182","0.0-5.0-5.0-2.10","6984840e0bc6423e5ee5114a","not_provided","desktop","0","0","3","","","","","","working_memory","","null","<div class=""fixation"">+</div>","null","","","","","","","","","","","","","","","","",""
"html-keyboard-response","215","658198","0.0-5.0-5.0-3.10","6984840e0bc6423e5ee5114a","not_provided","desktop","0","0","3","","","","","","working_memory","","3014","<img class='b' src=images/squares/blue.png><div class=""fixation"">+</div>","k","","","test_squares","exp","10","4","s","false","ks","d","","","","","","",""
"html-keyboard-response","216","658710","0.0-5.0-5.0-4.10","6984840e0bc6423e5ee5114a","not_provided","desktop","0","0","3","","","","","","working_memory","","null","<div class=""fixation"">Incorrect</div>","null","","","","","","","","","","","","","","","","",""
"html-keyboard-response","217","659712","0.0-5.0-5.0-0.11","6984840e0bc6423e5ee5114a","not_provided","desktop","0","0","3","","","","","","working_memory","","null","<div class=""fixation"">+</div>","null","","","","","","","","","","","","","","","","",""
"html-keyboard-response","218","659924","0.0-5.0-5.0-1.11","6984840e0bc6423e5ee5114a","not_provided","desktop","0","0","3","","","","","","working_memory","","null","<img class='a' src=images/squares/magenta.png><img class='e' src=images/squares/red.png><img class='h' src=images/squares/cyan.png><img class='l' src=images/squares/black.png><div class=""fixation"">+</div>","null","","","memory","exp","11","","","","","","","","","","","",""
"html-keyboard-response","219","660828","0.0-5.0-5.0-2.11","6984840e0bc6423e5ee5114a","not_provided","desktop","0","0","3","","","","","","working_memory","","null","<div class=""fixation"">+</div>","null","","","","","","","","","","","","","","","","",""
"html-keyboard-response","220","663152","0.0-5.0-5.0-3.11","6984840e0bc6423e5ee5114a","not_provided","desktop","0","0","3","","","","","","working_memory","","2322","<img class='e' src=images/squares/red.png><div class=""fixation"">+</div>","k","","","test_squares","exp","11","4","k","true","ks","s","","","","","","",""
"html-keyboard-response","221","663663","0.0-5.0-5.0-4.11","6984840e0bc6423e5ee5114a","not_provided","desktop","0","0","3","","","","","","working_memory","","null","<div class=""fixation"">Correct</div>","null","","","","","","","","","","","","","","","","",""
"html-keyboard-response","222","664664","0.0-5.0-5.0-0.12","6984840e0bc6423e5ee5114a","not_provided","desktop","0","0","3","","","","","","working_memory","","null","<div class=""fixation"">+</div>","null","","","","","","","","","","","","","","","","",""
"html-keyboard-response","223","664867","0.0-5.0-5.0-1.12","6984840e0bc6423e5ee5114a","not_provided","desktop","0","0","3","","","","","","working_memory","","null","<img class='b' src=images/squares/magenta.png><img class='a' src=images/squares/yellow.png><img class='e' src=images/squares/black.png><img class='f' src=images/squares/blue.png><img class='g' src=images/squares/brown.png><img class='h' src=images/squares/green.png><img class='k' src=images/squares/red.png><img class='j' src=images/squares/cyan.png><div class=""fixation"">+</div>","null","","","memory","exp","12","","","","","","","","","","","",""
"html-keyboard-response","224","665769","0.0-5.0-5.0-2.12","6984840e0bc6423e5ee5114a","not_provided","desktop","0","0","3","","","","","","working_memory","","null","<div class=""fixation"">+</div>","null","","","","","","","","","","","","","","","","",""
"html-keyboard-response","225","668094","0.0-5.0-5.0-3.12","6984840e0bc6423e5ee5114a","not_provided","desktop","0","0","3","","","","","","working_memory","","2323","<img class='h' src=images/squares/green.png><div class=""fixation"">+</div>","s","","","test_squares","exp","12","8","k","false","ks","s","","","","","","",""
"html-keyboard-response","226","668595","0.0-5.0-5.0-4.12","6984840e0bc6423e5ee5114a","not_provided","desktop","0","0","3","","","","","","working_memory","","null","<div class=""fixation"">Incorrect</div>","null","","","","","","","","","","","","","","","","",""
"html-keyboard-response","227","669597","0.0-5.0-5.0-0.13","6984840e0bc6423e5ee5114a","not_provided","desktop","0","0","3","","","","","","working_memory","","null","<div class=""fixation"">+</div>","null","","","","","","","","","","","","","","","","",""
"html-keyboard-response","228","669800","0.0-5.0-5.0-1.13","6984840e0bc6423e5ee5114a","not_provided","desktop","0","0","3","","","","","","working_memory","","null","<img class='c' src=images/squares/yellow.png><img class='b' src=images/squares/orange.png><img class='d' src=images/squares/black.png><img class='e' src=images/squares/blue.png><img class='g' src=images/squares/red.png><img class='i' src=images/squares/green.png><img class='j' src=images/squares/brown.png><img class='l' src=images/squares/magenta.png><div class=""fixation"">+</div>","null","","","memory","exp","13","","","","","","","","","","","",""
"html-keyboard-response","229","670702","0.0-5.0-5.0-2.13","6984840e0bc6423e5ee5114a","not_provided","desktop","0","0","3","","","","","","working_memory","","null","<div class=""fixation"">+</div>","null","","","","","","","","","","","","","","","","",""
"html-keyboard-response","230","673028","0.0-5.0-5.0-3.13","6984840e0bc6423e5ee5114a","not_provided","desktop","0","0","3","","","","","","working_memory","","2325","<img class='e' src=images/squares/cyan.png><div class=""fixation"">+</div>","s","","","test_squares","exp","13","8","s","true","ks","d","","","","","","",""
"html-keyboard-response","231","673530","0.0-5.0-5.0-4.13","6984840e0bc6423e5ee5114a","not_provided","desktop","0","0","3","","","","","","working_memory","","null","<div class=""fixation"">Correct</div>","null","","","","","","","","","","","","","","","","",""
"html-keyboard-response","232","674532","0.0-5.0-5.0-0.14","6984840e0bc6423e5ee5114a","not_provided","desktop","0","0","3","","","","","","working_memory","","null","<div class=""fixation"">+</div>","null","","","","","","","","","","","","","","","","",""
"html-keyboard-response","233","674736","0.0-5.0-5.0-1.14","6984840e0bc6423e5ee5114a","not_provided","desktop","0","0","3","","","","","","working_memory","","null","<img class='b' src=images/squares/yellow.png><img class='a' src=images/squares/cyan.png><img class='e' src=images/squares/orange.png><img class='d' src=images/squares/magenta.png><img class='g' src=images/squares/blue.png><img class='h' src=images/squares/green.png><img class='j' src=images/squares/red.png><img class='k' src=images/squares/black.png><div class=""fixation"">+</div>","null","","","memory","exp","14","","","","","","","","","","","",""
"html-keyboard-response","234","675637","0.0-5.0-5.0-2.14","6984840e0bc6423e5ee5114a","not_provided","desktop","0","0","3","","","","","","working_memory","","null","<div class=""fixation"">+</div>","null","","","","","","","","","","","","","","","","",""
"html-keyboard-response","235","677860","0.0-5.0-5.0-3.14","6984840e0bc6423e5ee5114a","not_provided","desktop","0","0","3","","","","","","working_memory","","2221","<img class='d' src=images/squares/magenta.png><div class=""fixation"">+</div>","s","","","test_squares","exp","14","8","k","false","ks","s","","","","","","",""
"html-keyboard-response","236","678362","0.0-5.0-5.0-4.14","6984840e0bc6423e5ee5114a","not_provided","desktop","0","0","3","","","","","","working_memory","","null","<div class=""fixation"">Incorrect</div>","null","","","","","","","","","","","","","","","","",""
"html-keyboard-response","237","679364","0.0-5.0-5.0-0.15","6984840e0bc6423e5ee5114a","not_provided","desktop","0","0","3","","","","","","working_memory","","null","<div class=""fixation"">+</div>","null","","","","","","","","","","","","","","","","",""
"html-keyboard-response","238","679567","0.0-5.0-5.0-1.15","6984840e0bc6423e5ee5114a","not_provided","desktop","0","0","3","","","","","","working_memory","","null","<img class='a' src=images/squares/black.png><img class='d' src=images/squares/magenta.png><img class='i' src=images/squares/brown.png><img class='j' src=images/squares/red.png><div class=""fixation"">+</div>","null","","","memory","exp","15","","","","","","","","","","","",""
"html-keyboard-response","239","680469","0.0-5.0-5.0-2.15","6984840e0bc6423e5ee5114a","not_provided","desktop","0","0","3","","","","","","working_memory","","null","<div class=""fixation"">+</div>","null","","","","","","","","","","","","","","","","",""
"html-keyboard-response","240","682302","0.0-5.0-5.0-3.15","6984840e0bc6423e5ee5114a","not_provided","desktop","0","0","3","","","","","","working_memory","","1831","<img class='j' src=images/squares/cyan.png><div class=""fixation"">+</div>","s","","","test_squares","exp","15","4","s","true","ks","d","","","","","","",""
"html-keyboard-response","241","682803","0.0-5.0-5.0-4.15","6984840e0bc6423e5ee5114a","not_provided","desktop","0","0","3","","","","","","working_memory","","null","<div class=""fixation"">Correct</div>","null","","","","","","","","","","","","","","","","",""
"html-keyboard-response","242","683805","0.0-5.0-5.0-0.16","6984840e0bc6423e5ee5114a","not_provided","desktop","0","0","3","","","","","","working_memory","","null","<div class=""fixation"">+</div>","null","","","","","","","","","","","","","","","","",""
"html-keyboard-response","243","684008","0.0-5.0-5.0-1.16","6984840e0bc6423e5ee5114a","not_provided","desktop","0","0","3","","","","","","working_memory","","null","<img class='a' src=images/squares/blue.png><img class='c' src=images/squares/orange.png><img class='e' src=images/squares/black.png><img class='f' src=images/squares/red.png><img class='h' src=images/squares/brown.png><img class='i' src=images/squares/yellow.png><img class='k' src=images/squares/magenta.png><img class='l' src=images/squares/cyan.png><div class=""fixation"">+</div>","null","","","memory","exp","16","","","","","","","","","","","",""
"html-keyboard-response","244","684910","0.0-5.0-5.0-2.16","6984840e0bc6423e5ee5114a","not_provided","desktop","0","0","3","","","","","","working_memory","","null","<div class=""fixation"">+</div>","null","","","","","","","","","","","","","","","","",""
"html-keyboard-response","245","687909","0.0-5.0-5.0-3.16","6984840e0bc6423e5ee5114a","not_provided","desktop","0","0","3","","","","","","working_memory","","2998","<img class='e' src=images/squares/black.png><div class=""fixation"">+</div>","k","","","test_squares","exp","16","8","k","true","ks","s","","","","","","",""
"html-keyboard-response","246","688411","0.0-5.0-5.0-4.16","6984840e0bc6423e5ee5114a","not_provided","desktop","0","0","3","","","","","","working_memory","","null","<div class=""fixation"">Correct</div>","null","","","","","","","","","","","","","","","","",""
"html-keyboard-response","247","689414","0.0-5.0-5.0-0.17","6984840e0bc6423e5ee5114a","not_provided","desktop","0","0","3","","","","","","working_memory","","null","<div class=""fixation"">+</div>","null","","","","","","","","","","","","","","","","",""
"html-keyboard-response","248","689618","0.0-5.0-5.0-1.17","6984840e0bc6423e5ee5114a","not_provided","desktop","0","0","3","","","","","","working_memory","","null","<img class='b' src=images/squares/cyan.png><img class='c' src=images/squares/orange.png><img class='f' src=images/squares/black.png><img class='d' src=images/squares/green.png><img class='h' src=images/squares/blue.png><img class='i' src=images/squares/yellow.png><img class='k' src=images/squares/brown.png><img class='j' src=images/squares/magenta.png><div class=""fixation"">+</div>","null","","","memory","exp","17","","","","","","","","","","","",""
"html-keyboard-response","249","690519","0.0-5.0-5.0-2.17","6984840e0bc6423e5ee5114a","not_provided","desktop","0","0","3","","","","","","working_memory","","null","<div class=""fixation"">+</div>","null","","","","","","","","","","","","","","","","",""
"html-keyboard-response","250","694612","0.0-5.0-5.0-3.17","6984840e0bc6423e5ee5114a","not_provided","desktop","0","0","3","","","","","","working_memory","","4091","<img class='i' src=images/squares/red.png><div class=""fixation"">+</div>","s","","","test_squares","exp","17","8","s","true","ks","d","","","","","","",""
"html-keyboard-response","251","695114","0.0-5.0-5.0-4.17","6984840e0bc6423e5ee5114a","not_provided","desktop","0","0","3","","","","","","working_memory","","null","<div class=""fixation"">Correct</div>","null","","","","","","","","","","","","","","","","",""
"html-keyboard-response","252","696116","0.0-5.0-5.0-0.18","6984840e0bc6423e5ee5114a","not_provided","desktop","0","0","3","","","","","","working_memory","","null","<div class=""fixation"">+</div>","null","","","","","","","","","","","","","","","","",""
"html-keyboard-response","253","696319","0.0-5.0-5.0-1.18","6984840e0bc6423e5ee5114a","not_provided","desktop","0","0","3","","","","","","working_memory","","null","<img class='b' src=images/squares/black.png><img class='f' src=images/squares/green.png><img class='h' src=images/squares/blue.png><img class='k' src=images/squares/orange.png><div class=""fixation"">+</div>","null","","","memory","exp","18","","","","","","","","","","","",""
"html-keyboard-response","254","697221","0.0-5.0-5.0-2.18","6984840e0bc6423e5ee5114a","not_provided","desktop","0","0","3","","","","","","working_memory","","null","<div class=""fixation"">+</div>","null","","","","","","","","","","","","","","","","",""
"html-keyboard-response","255","698849","0.0-5.0-5.0-3.18","6984840e0bc6423e5ee5114a","not_provided","desktop","0","0","3","","","","","","working_memory","","1626","<img class='k' src=images/squares/orange.png><div class=""fixation"">+</div>","s","","","test_squares","exp","18","4","k","false","ks","s","","","","","","",""
"html-keyboard-response","256","699350","0.0-5.0-5.0-4.18","6984840e0bc6423e5ee5114a","not_provided","desktop","0","0","3","","","","","","working_memory","","null","<div class=""fixation"">Incorrect</div>","null","","","","","","","","","","","","","","","","",""
"html-keyboard-response","257","700352","0.0-5.0-5.0-0.19","6984840e0bc6423e5ee5114a","not_provided","desktop","0","0","3","","","","","","working_memory","","null","<div class=""fixation"">+</div>","null","","","","","","","","","","","","","","","","",""
"html-keyboard-response","258","700555","0.0-5.0-5.0-1.19","6984840e0bc6423e5ee5114a","not_provided","desktop","0","0","3","","","","","","working_memory","","null","<img class='a' src=images/squares/cyan.png><img class='e' src=images/squares/green.png><img class='i' src=images/squares/brown.png><img class='j' src=images/squares/red.png><div class=""fixation"">+</div>","null","","","memory","exp","19","","","","","","","","","","","",""
"html-keyboard-response","259","701458","0.0-5.0-5.0-2.19","6984840e0bc6423e5ee5114a","not_provided","desktop","0","0","3","","","","","","working_memory","","null","<div class=""fixation"">+</div>","null","","","","","","","","","","","","","","","","",""
"html-keyboard-response","260","705030","0.0-5.0-5.0-3.19","6984840e0bc6423e5ee5114a","not_provided","desktop","0","0","3","","","","","","working_memory","","3570","<img class='i' src=images/squares/brown.png><div class=""fixation"">+</div>","s","","","test_squares","exp","19","4","k","false","ks","s","","","","","","",""
"html-keyboard-response","261","705532","0.0-5.0-5.0-4.19","6984840e0bc6423e5ee5114a","not_provided","desktop","0","0","3","","","","","","working_memory","","null","<div class=""fixation"">Incorrect</div>","null","","","","","","","","","","","","","","","","",""
"html-keyboard-response","262","706534","0.0-5.0-5.0-0.20","6984840e0bc6423e5ee5114a","not_provided","desktop","0","0","3","","","","","","working_memory","","null","<div class=""fixation"">+</div>","null","","","","","","","","","","","","","","","","",""
"html-keyboard-response","263","706738","0.0-5.0-5.0-1.20","6984840e0bc6423e5ee5114a","not_provided","desktop","0","0","3","","","","","","working_memory","","null","<img class='b' src=images/squares/red.png><img class='a' src=images/squares/cyan.png><img class='e' src=images/squares/blue.png><img class='d' src=images/squares/orange.png><img class='g' src=images/squares/yellow.png><img class='h' src=images/squares/black.png><img class='j' src=images/squares/green.png><img class='k' src=images/squares/brown.png><div class=""fixation"">+</div>","null","","","memory","exp","20","","","","","","","","","","","",""
"html-keyboard-response","264","707639","0.0-5.0-5.0-2.20","6984840e0bc6423e5ee5114a","not_provided","desktop","0","0","3","","","","","","working_memory","","null","<div class=""fixation"">+</div>","null","","","","","","","","","","","","","","","","",""
"html-keyboard-response","265","709975","0.0-5.0-5.0-3.20","6984840e0bc6423e5ee5114a","not_provided","desktop","0","0","3","","","","","","working_memory","","2334","<img class='a' src=images/squares/cyan.png><div class=""fixation"">+</div>","s","","","test_squares","exp","20","8","k","false","ks","s","","","","","","",""
"html-keyboard-response","266","710478","0.0-5.0-5.0-4.20","6984840e0bc6423e5ee5114a","not_provided","desktop","0","0","3","","","","","","working_memory","","null","<div class=""fixation"">Incorrect</div>","null","","","","","","","","","","","","","","","","",""
"html-keyboard-response","267","711480","0.0-5.0-5.0-0.21","6984840e0bc6423e5ee5114a","not_provided","desktop","0","0","3","","","","","","working_memory","","null","<div class=""fixation"">+</div>","null","","","","","","","","","","","","","","","","",""
"html-keyboard-response","268","711684","0.0-5.0-5.0-1.21","6984840e0bc6423e5ee5114a","not_provided","desktop","0","0","3","","","","","","working_memory","","null","<img class='c' src=images/squares/orange.png><img class='a' src=images/squares/green.png><img class='e' src=images/squares/brown.png><img class='d' src=images/squares/cyan.png><img class='h' src=images/squares/black.png><img class='g' src=images/squares/yellow.png><img class='j' src=images/squares/blue.png><img class='k' src=images/squares/magenta.png><div class=""fixation"">+</div>","null","","","memory","exp","21","","","","","","","","","","","",""
"html-keyboard-response","269","712587","0.0-5.0-5.0-2.21","6984840e0bc6423e5ee5114a","not_provided","desktop","0","0","3","","","","","","working_memory","","null","<div class=""fixation"">+</div>","null","","","","","","","","","","","","","","","","",""
"html-keyboard-response","270","714273","0.0-5.0-5.0-3.21","6984840e0bc6423e5ee5114a","not_provided","desktop","0","0","3","","","","","","working_memory","","1684","<img class='k' src=images/squares/red.png><div class=""fixation"">+</div>","s","","","test_squares","exp","21","8","s","true","ks","d","","","","","","",""
"html-keyboard-response","271","714776","0.0-5.0-5.0-4.21","6984840e0bc6423e5ee5114a","not_provided","desktop","0","0","3","","","","","","working_memory","","null","<div class=""fixation"">Correct</div>","null","","","","","","","","","","","","","","","","",""
"html-keyboard-response","272","715779","0.0-5.0-5.0-0.22","6984840e0bc6423e5ee5114a","not_provided","desktop","0","0","3","","","","","","working_memory","","null","<div class=""fixation"">+</div>","null","","","","","","","","","","","","","","","","",""
"html-keyboard-response","273","715983","0.0-5.0-5.0-1.22","6984840e0bc6423e5ee5114a","not_provided","desktop","0","0","3","","","","","","working_memory","","null","<img class='a' src=images/squares/blue.png><img class='c' src=images/squares/red.png><img class='f' src=images/squares/cyan.png><img class='d' src=images/squares/black.png><img class='h' src=images/squares/green.png><img class='i' src=images/squares/magenta.png><img class='j' src=images/squares/brown.png><img class='k' src=images/squares/yellow.png><div class=""fixation"">+</div>","null","","","memory","exp","22","","","","","","","","","","","",""
"html-keyboard-response","274","716886","0.0-5.0-5.0-2.22","6984840e0bc6423e5ee5114a","not_provided","desktop","0","0","3","","","","","","working_memory","","null","<div class=""fixation"">+</div>","null","","","","","","","","","","","","","","","","",""
"html-keyboard-response","275","721374","0.0-5.0-5.0-3.22","6984840e0bc6423e5ee5114a","not_provided","desktop","0","0","3","","","","","","working_memory","","4487","<img class='j' src=images/squares/brown.png><div class=""fixation"">+</div>","s","","","test_squares","exp","22","8","k","false","ks","s","","","","","","",""
"html-keyboard-response","276","721875","0.0-5.0-5.0-4.22","6984840e0bc6423e5ee5114a","not_provided","desktop","0","0","3","","","","","","working_memory","","null","<div class=""fixation"">Incorrect</div>","null","","","","","","","","","","","","","","","","",""
"html-keyboard-response","277","722878","0.0-5.0-5.0-0.23","6984840e0bc6423e5ee5114a","not_provided","desktop","0","0","3","","","","","","working_memory","","null","<div class=""fixation"">+</div>","null","","","","","","","","","","","","","","","","",""
"html-keyboard-response","278","723082","0.0-5.0-5.0-1.23","6984840e0bc6423e5ee5114a","not_provided","desktop","0","0","3","","","","","","working_memory","","null","<img class='a' src=images/squares/cyan.png><img class='c' src=images/squares/orange.png><img class='d' src=images/squares/brown.png><img class='f' src=images/squares/red.png><img class='h' src=images/squares/magenta.png><img class='g' src=images/squares/green.png><img class='k' src=images/squares/blue.png><img class='j' src=images/squares/black.png><div class=""fixation"">+</div>","null","","","memory","exp","23","","","","","","","","","","","",""
"html-keyboard-response","279","723985","0.0-5.0-5.0-2.23","6984840e0bc6423e5ee5114a","not_provided","desktop","0","0","3","","","","","","working_memory","","null","<div class=""fixation"">+</div>","null","","","","","","","","","","","","","","","","",""
"html-keyboard-response","280","725887","0.0-5.0-5.0-3.23","6984840e0bc6423e5ee5114a","not_provided","desktop","0","0","3","","","","","","working_memory","","1900","<img class='g' src=images/squares/green.png><div class=""fixation"">+</div>","k","","","test_squares","exp","23","8","k","true","ks","s","","","","","","",""
"html-keyboard-response","281","726390","0.0-5.0-5.0-4.23","6984840e0bc6423e5ee5114a","not_provided","desktop","0","0","3","","","","","","working_memory","","null","<div class=""fixation"">Correct</div>","null","","","","","","","","","","","","","","","","",""
"html-keyboard-response","282","727393","0.0-5.0-5.0-0.24","6984840e0bc6423e5ee5114a","not_provided","desktop","0","0","3","","","","","","working_memory","","null","<div class=""fixation"">+</div>","null","","","","","","","","","","","","","","","","",""
"html-keyboard-response","283","727597","0.0-5.0-5.0-1.24","6984840e0bc6423e5ee5114a","not_provided","desktop","0","0","3","","","","","","working_memory","","null","<img class='c' src=images/squares/blue.png><img class='a' src=images/squares/green.png><img class='f' src=images/squares/brown.png><img class='d' src=images/squares/magenta.png><img class='g' src=images/squares/red.png><img class='i' src=images/squares/black.png><img class='l' src=images/squares/cyan.png><img class='k' src=images/squares/yellow.png><div class=""fixation"">+</div>","null","","","memory","exp","24","","","","","","","","","","","",""
"html-keyboard-response","284","728499","0.0-5.0-5.0-2.24","6984840e0bc6423e5ee5114a","not_provided","desktop","0","0","3","","","","","","working_memory","","null","<div class=""fixation"">+</div>","null","","","","","","","","","","","","","","","","",""
"html-keyboard-response","285","731078","0.0-5.0-5.0-3.24","6984840e0bc6423e5ee5114a","not_provided","desktop","0","0","3","","","","","","working_memory","","2577","<img class='c' src=images/squares/blue.png><div class=""fixation"">+</div>","k","","","test_squares","exp","24","8","k","true","ks","s","","","","","","",""
"html-keyboard-response","286","731580","0.0-5.0-5.0-4.24","6984840e0bc6423e5ee5114a","not_provided","desktop","0","0","3","","","","","","working_memory","","null","<div class=""fixation"">Correct</div>","null","","","","","","","","","","","","","","","","",""
"html-keyboard-response","287","732582","0.0-5.0-5.0-0.25","6984840e0bc6423e5ee5114a","not_provided","desktop","0","0","3","","","","","","working_memory","","null","<div class=""fixation"">+</div>","null","","","","","","","","","","","","","","","","",""
"html-keyboard-response","288","732785","0.0-5.0-5.0-1.25","6984840e0bc6423e5ee5114a","not_provided","desktop","0","0","3","","","","","","working_memory","","null","<img class='a' src=images/squares/red.png><img class='e' src=images/squares/blue.png><img class='g' src=images/squares/brown.png><img class='l' src=images/squares/orange.png><div class=""fixation"">+</div>","null","","","memory","exp","25","","","","","","","","","","","",""
"html-keyboard-response","289","733688","0.0-5.0-5.0-2.25","6984840e0bc6423e5ee5114a","not_provided","desktop","0","0","3","","","","","","working_memory","","null","<div class=""fixation"">+</div>","null","","","","","","","","","","","","","","","","",""
"html-keyboard-response","290","735508","0.0-5.0-5.0-3.25","6984840e0bc6423e5ee5114a","not_provided","desktop","0","0","3","","","","","","working_memory","","1818","<img class='g' src=images/squares/brown.png><div class=""fixation"">+</div>","k","","","test_squares","exp","25","4","k","true","ks","s","","","","","","",""
"html-keyboard-response","291","736008","0.0-5.0-5.0-4.25","6984840e0bc6423e5ee5114a","not_provided","desktop","0","0","3","","","","","","working_memory","","null","<div class=""fixation"">Correct</div>","null","","","","","","","","","","","","","","","","",""
"html-keyboard-response","292","737010","0.0-5.0-5.0-0.26","6984840e0bc6423e5ee5114a","not_provided","desktop","0","0","3","","","","","","working_memory","","null","<div class=""fixation"">+</div>","null","","","","","","","","","","","","","","","","",""
"html-keyboard-response","293","737214","0.0-5.0-5.0-1.26","6984840e0bc6423e5ee5114a","not_provided","desktop","0","0","3","","","","","","working_memory","","null","<img class='b' src=images/squares/red.png><img class='c' src=images/squares/brown.png><img class='f' src=images/squares/yellow.png><img class='d' src=images/squares/green.png><img class='g' src=images/squares/orange.png><img class='i' src=images/squares/cyan.png><img class='l' src=images/squares/black.png><img class='j' src=images/squares/blue.png><div class=""fixation"">+</div>","null","","","memory","exp","26","","","","","","","","","","","",""
"html-keyboard-response","294","738115","0.0-5.0-5.0-2.26","6984840e0bc6423e5ee5114a","not_provided","desktop","0","0","3","","","","","","working_memory","","null","<div class=""fixation"">+</div>","null","","","","","","","","","","","","","","","","",""
"html-keyboard-response","295","739498","0.0-5.0-5.0-3.26","6984840e0bc6423e5ee5114a","not_provided","desktop","0","0","3","","","","","","working_memory","","1381","<img class='c' src=images/squares/brown.png><div class=""fixation"">+</div>","k","","","test_squares","exp","26","8","k","true","ks","s","","","","","","",""
"html-keyboard-response","296","739999","0.0-5.0-5.0-4.26","6984840e0bc6423e5ee5114a","not_provided","desktop","0","0","3","","","","","","working_memory","","null","<div class=""fixation"">Correct</div>","null","","","","","","","","","","","","","","","","",""
"html-keyboard-response","297","741001","0.0-5.0-5.0-0.27","6984840e0bc6423e5ee5114a","not_provided","desktop","0","0","3","","","","","","working_memory","","null","<div class=""fixation"">+</div>","null","","","","","","","","","","","","","","","","",""
"html-keyboard-response","298","741204","0.0-5.0-5.0-1.27","6984840e0bc6423e5ee5114a","not_provided","desktop","0","0","3","","","","","","working_memory","","null","<img class='c' src=images/squares/magenta.png><img class='a' src=images/squares/brown.png><img class='e' src=images/squares/red.png><img class='f' src=images/squares/black.png><img class='h' src=images/squares/cyan.png><img class='i' src=images/squares/orange.png><img class='l' src=images/squares/yellow.png><img class='k' src=images/squares/green.png><div class=""fixation"">+</div>","null","","","memory","exp","27","","","","","","","","","","","",""
"html-keyboard-response","299","742106","0.0-5.0-5.0-2.27","6984840e0bc6423e5ee5114a","not_provided","desktop","0","0","3","","","","","","working_memory","","null","<div class=""fixation"">+</div>","null","","","","","","","","","","","","","","","","",""
"html-keyboard-response","300","744190","0.0-5.0-5.0-3.27","6984840e0bc6423e5ee5114a","not_provided","desktop","0","0","3","","","","","","working_memory","","2082","<img class='l' src=images/squares/yellow.png><div class=""fixation"">+</div>","k","","","test_squares","exp","27","8","k","true","ks","s","","","","","","",""
"html-keyboard-response","301","744693","0.0-5.0-5.0-4.27","6984840e0bc6423e5ee5114a","not_provided","desktop","0","0","3","","","","","","working_memory","","null","<div class=""fixation"">Correct</div>","null","","","","","","","","","","","","","","","","",""
