"trial_type","trial_index","time_elapsed","internal_node_id","subject_id","study_id","device_type","blur_count","fullscreen_exit_count","failed_attention_checks","success","timeout","failed_images","failed_audio","failed_video","phase","value","rt","stimulus","response","view_history","question_order","trial_name","block_type","trial_num","set_size","correct_response","accuracy","mapping","condition","prompt","flipped","attention","expected_answer","category","question_index","task"
"pavlovia","0","1467","0.0-0.0","697a645e36e6f14eea2b396b","not_provided","desktop","0","0","0","","","","","","","","","","","","","","","","","","","","","","","","","","",""
"preload","1","2796","0.0-2.0","697a645e36e6f14eea2b396b","not_provided","desktop","0","0","0","true","false","[]","[]","[]","","","","","","","","","","","","","","","","","","","","","",""
"html-keyboard-response","2","7069","0.0-3.0-0.0","697a645e36e6f14eea2b396b","not_provided","desktop","0","0","0","","","","","","captcha","","","","","","","","","","","","","","","","","","","","",""
"fullscreen","3","22193","0.0-4.0","697a645e36e6f14eea2b396b","not_provided","desktop","0","0","0","true","","","","","setup","","","","","","","","","","","","","","","","","","","","",""
"call-function","4","22193","0.0-5.0-0.0","697a645e36e6f14eea2b396b","not_provided","desktop","0","0","0","","","","","","working_memory","","","","","","","","","","","","","","","","","","","","",""
"html-keyboard-response","5","40657","0.0-5.0-1.0","697a645e36e6f14eea2b396b","not_provided","desktop","0","0","0","","","","","","working_memory","","18463","<div style=""text-align:center;font-family:sans-serif;""><p>Welcome to the luck game experiment!</p><p>This two-day experiment takes part in a study aimed at developing better clinical treatments.</p><p>We appreciate your participation and require your full concentration.</p><br><p>This is a two-day study. Payment (£6/hour) is only given upon completing both parts today and tomorrow.</p><p>You must finish the second part for compensation. After today, you'll receive an invitation for tomorrow's session.</p><p>Please ensure you can attend both sessions before proceeding. Otherwise, you may exit now.</p><p>If you have any questions, please contact us via prolific.</p><br><p>Please stay attentive and in fullscreen mode to ensure payment.</p><p>Thank you for participating!</p><br><p id=""continue-prompt"" style=""visibility:hidden;""><b>Press any key to continue.</b></p></div>","p","","","","","","","","","","","","","","","","",""
"instructions","6","85989","0.0-5.0-2.0-0.0","697a645e36e6f14eea2b396b","not_provided","desktop","0","0","0","","","","","","working_memory","","45332","","","[{""page_index"":0,""viewing_time"":2812},{""page_index"":1,""viewing_time"":1400},{""page_index"":2,""viewing_time"":6120},{""page_index"":3,""viewing_time"":2528},{""page_index"":4,""viewing_time"":4968},{""page_index"":5,""viewing_time"":7688},{""page_index"":6,""viewing_time"":9656},{""page_index"":5,""viewing_time"":776},{""page_index"":6,""viewing_time"":1920},{""page_index"":7,""viewing_time"":3415},{""page_index"":8,""viewing_time"":4049}]","","","","","","","","","","","","","","","",""
"survey-multi-choice","7","112733","0.0-5.0-2.0-1.0","697a645e36e6f14eea2b396b","not_provided","desktop","0","0","0","","","","","","working_memory","","26743","","{""set_size"":""4 or 8"",""steps"":""True"",""choose_square"":""Press the 'k' or 's' key."",""remember"":""The colors and locations of the 'memory' squares"",""task"":""To tell if the 'test' square is in the same color as the square previously appearing in this location""}","","[0,1,2,3,4]","test_squares_quiz","","","","","","","","","","","","","",""
"html-keyboard-response","8","124366","0.0-5.0-3.0-0.0","697a645e36e6f14eea2b396b","not_provided","desktop","0","0","0","","","","","","working_memory","","11632","<p>We will now start some practice trials.<br><b>The practice trials will also include some trials in which you will need to remember only one square to make sure you understood the instructions.</b><br>You may already want to be ready with your fingers on '<b>s</b>' and '<b>k</b>'.<br><img class=""wm-example-img"" src=""images/examples/keyboard.png""><br><b style=""font-size:1.2em;"">&lsquo;K&rsquo; = SAME &nbsp;&nbsp;&nbsp; &lsquo;S&rsquo; = DIFFERENT</b><br><br><u>Please try to be as accurate as possible.</u><br><br><b>Press any key to begin</b></p>","k","","","","","","","","","","","","","","","","",""
"html-keyboard-response","9","126383","0.0-5.0-3.0-1.0-0.0","697a645e36e6f14eea2b396b","not_provided","desktop","0","0","0","","","","","","working_memory","","null","<div class=""fixation"">+</div>","null","","","","","","","","","","","","","","","","",""
"html-keyboard-response","10","126592","0.0-5.0-3.0-1.0-1.0","697a645e36e6f14eea2b396b","not_provided","desktop","0","0","0","","","","","","working_memory","","null","<img class='lower3' src=images/squares/yellow.png><div class=""fixation"">+</div>","null","","","memory","practice","0","1","","","","","","","","","","",""
"html-keyboard-response","11","127499","0.0-5.0-3.0-1.0-2.0","697a645e36e6f14eea2b396b","not_provided","desktop","0","0","0","","","","","","working_memory","","null","<div class=""fixation"">+</div>","null","","","","","","","","","","","","","","","","",""
"html-keyboard-response","12","131819","0.0-5.0-3.0-1.0-3.0","697a645e36e6f14eea2b396b","not_provided","desktop","0","0","0","","","","","","working_memory","","4319","<img class='lower3' src=images/squares/magenta.png><div class=""fixation"">+</div>","s","","","test","practice","0","1","s","true","","","","","","","","",""
"html-keyboard-response","13","132321","0.0-5.0-3.0-1.0-4.0","697a645e36e6f14eea2b396b","not_provided","desktop","0","0","0","","","","","","working_memory","","null","<div class=""fixation"">Correct</div>","null","","","","","","","","","","","","","","","","",""
"html-keyboard-response","14","133334","0.0-5.0-3.0-1.0-0.1","697a645e36e6f14eea2b396b","not_provided","desktop","0","0","0","","","","","","working_memory","","null","<div class=""fixation"">+</div>","null","","","","","","","","","","","","","","","","",""
"html-keyboard-response","15","133549","0.0-5.0-3.0-1.0-1.1","697a645e36e6f14eea2b396b","not_provided","desktop","0","0","0","","","","","","working_memory","","null","<img class='a' src=images/squares/blue.png><img class='e' src=images/squares/cyan.png><img class='h' src=images/squares/yellow.png><img class='k' src=images/squares/green.png><div class=""fixation"">+</div>","null","","","memory","practice","1","4","","","","","","","","","","",""
"html-keyboard-response","16","134452","0.0-5.0-3.0-1.0-2.1","697a645e36e6f14eea2b396b","not_provided","desktop","0","0","0","","","","","","working_memory","","null","<div class=""fixation"">+</div>","null","","","","","","","","","","","","","","","","",""
"html-keyboard-response","17","135586","0.0-5.0-3.0-1.0-3.1","697a645e36e6f14eea2b396b","not_provided","desktop","0","0","0","","","","","","working_memory","","1133","<img class='a' src=images/squares/orange.png><div class=""fixation"">+</div>","s","","","test","practice","1","4","s","true","","","","","","","","",""
"html-keyboard-response","18","136098","0.0-5.0-3.0-1.0-4.1","697a645e36e6f14eea2b396b","not_provided","desktop","0","0","0","","","","","","working_memory","","null","<div class=""fixation"">Correct</div>","null","","","","","","","","","","","","","","","","",""
"html-keyboard-response","19","137105","0.0-5.0-3.0-1.0-0.2","697a645e36e6f14eea2b396b","not_provided","desktop","0","0","0","","","","","","working_memory","","null","<div class=""fixation"">+</div>","null","","","","","","","","","","","","","","","","",""
"html-keyboard-response","20","137318","0.0-5.0-3.0-1.0-1.2","697a645e36e6f14eea2b396b","not_provided","desktop","0","0","0","","","","","","working_memory","","null","<img class='c' src=images/squares/yellow.png><img class='b' src=images/squares/red.png><img class='d' src=images/squares/brown.png><img class='e' src=images/squares/orange.png><img class='g' src=images/squares/black.png><img class='h' src=images/squares/cyan.png><img class='l' src=images/squares/blue.png><img class='k' src=images/squares/green.png><div class=""fixation"">+</div>","null","","","memory","practice","2","8","","","","","","","","","","",""
"html-keyboard-response","21","138226","0.0-5.0-3.0-1.0-2.2","697a645e36e6f14eea2b396b","not_provided","desktop","0","0","0","","","","","","working_memory","","null","<div class=""fixation"">+</div>","null","","","","","","","","","","","","","","","","",""
"html-keyboard-response","22","139254","0.0-5.0-3.0-1.0-3.2","697a645e36e6f14eea2b396b","not_provided","desktop","0","0","0","","","","","","working_memory","","1028","<img class='c' src=images/squares/magenta.png><div class=""fixation"">+</div>","s","","","test","practice","2","8","s","true","","","","","","","","",""
"html-keyboard-response","23","139763","0.0-5.0-3.0-1.0-4.2","697a645e36e6f14eea2b396b","not_provided","desktop","0","0","0","","","","","","working_memory","","null","<div class=""fixation"">Correct</div>","null","","","","","","","","","","","","","","","","",""
"html-keyboard-response","24","140771","0.0-5.0-3.0-1.0-0.3","697a645e36e6f14eea2b396b","not_provided","desktop","0","0","0","","","","","","working_memory","","null","<div class=""fixation"">+</div>","null","","","","","","","","","","","","","","","","",""
"html-keyboard-response","25","140973","0.0-5.0-3.0-1.0-1.3","697a645e36e6f14eea2b396b","not_provided","desktop","0","0","0","","","","","","working_memory","","null","<img class='upper1' src=images/squares/red.png><div class=""fixation"">+</div>","null","","","memory","practice","3","1","","","","","","","","","","",""
"html-keyboard-response","26","141880","0.0-5.0-3.0-1.0-2.3","697a645e36e6f14eea2b396b","not_provided","desktop","0","0","0","","","","","","working_memory","","null","<div class=""fixation"">+</div>","null","","","","","","","","","","","","","","","","",""
"html-keyboard-response","27","142815","0.0-5.0-3.0-1.0-3.3","697a645e36e6f14eea2b396b","not_provided","desktop","0","0","0","","","","","","working_memory","","934","<img class='upper1' src=images/squares/black.png><div class=""fixation"">+</div>","s","","","test","practice","3","1","s","true","","","","","","","","",""
"html-keyboard-response","28","143329","0.0-5.0-3.0-1.0-4.3","697a645e36e6f14eea2b396b","not_provided","desktop","0","0","0","","","","","","working_memory","","null","<div class=""fixation"">Correct</div>","null","","","","","","","","","","","","","","","","",""
"html-keyboard-response","29","144332","0.0-5.0-3.0-1.0-0.4","697a645e36e6f14eea2b396b","not_provided","desktop","0","0","0","","","","","","working_memory","","null","<div class=""fixation"">+</div>","null","","","","","","","","","","","","","","","","",""
"html-keyboard-response","30","144544","0.0-5.0-3.0-1.0-1.4","697a645e36e6f14eea2b396b","not_provided","desktop","0","0","0","","","","","","working_memory","","null","<img class='a' src=images/squares/blue.png><img class='b' src=images/squares/yellow.png><img class='f' src=images/squares/brown.png><img class='e' src=images/squares/red.png><img class='g' src=images/squares/magenta.png><img class='i' src=images/squares/green.png><img class='j' src=images/squares/orange.png><img class='l' src=images/squares/cyan.png><div class=""fixation"">+</div>","null","","","memory","practice","4","8","","","","","","","","","","",""
"html-keyboard-response","31","145459","0.0-5.0-3.0-1.0-2.4","697a645e36e6f14eea2b396b","not_provided","desktop","0","0","0","","","","","","working_memory","","null","<div class=""fixation"">+</div>","null","","","","","","","","","","","","","","","","",""
"html-keyboard-response","32","148604","0.0-5.0-3.0-1.0-3.4","697a645e36e6f14eea2b396b","not_provided","desktop","0","0","0","","","","","","working_memory","","3145","<img class='i' src=images/squares/green.png><div class=""fixation"">+</div>","k","","","test","practice","4","8","k","true","","","","","","","","",""
"html-keyboard-response","33","149118","0.0-5.0-3.0-1.0-4.4","697a645e36e6f14eea2b396b","not_provided","desktop","0","0","0","","","","","","working_memory","","null","<div class=""fixation"">Correct</div>","null","","","","","","","","","","","","","","","","",""
"html-keyboard-response","34","150133","0.0-5.0-3.0-1.0-0.5","697a645e36e6f14eea2b396b","not_provided","desktop","0","0","0","","","","","","working_memory","","null","<div class=""fixation"">+</div>","null","","","","","","","","","","","","","","","","",""
"html-keyboard-response","35","150350","0.0-5.0-3.0-1.0-1.5","697a645e36e6f14eea2b396b","not_provided","desktop","0","0","0","","","","","","working_memory","","null","<img class='c' src=images/squares/cyan.png><img class='e' src=images/squares/green.png><img class='g' src=images/squares/magenta.png><img class='k' src=images/squares/red.png><div class=""fixation"">+</div>","null","","","memory","practice","5","4","","","","","","","","","","",""
"html-keyboard-response","36","151256","0.0-5.0-3.0-1.0-2.5","697a645e36e6f14eea2b396b","not_provided","desktop","0","0","0","","","","","","working_memory","","null","<div class=""fixation"">+</div>","null","","","","","","","","","","","","","","","","",""
"html-keyboard-response","37","152316","0.0-5.0-3.0-1.0-3.5","697a645e36e6f14eea2b396b","not_provided","desktop","0","0","0","","","","","","working_memory","","1060","<img class='g' src=images/squares/orange.png><div class=""fixation"">+</div>","s","","","test","practice","5","4","s","true","","","","","","","","",""
"html-keyboard-response","38","152825","0.0-5.0-3.0-1.0-4.5","697a645e36e6f14eea2b396b","not_provided","desktop","0","0","0","","","","","","working_memory","","null","<div class=""fixation"">Correct</div>","null","","","","","","","","","","","","","","","","",""
"html-keyboard-response","39","153831","0.0-5.0-3.0-1.0-0.6","697a645e36e6f14eea2b396b","not_provided","desktop","0","0","0","","","","","","working_memory","","null","<div class=""fixation"">+</div>","null","","","","","","","","","","","","","","","","",""
"html-keyboard-response","40","154037","0.0-5.0-3.0-1.0-1.6","697a645e36e6f14eea2b396b","not_provided","desktop","0","0","0","","","","","","working_memory","","null","<img class='upper3' src=images/squares/cyan.png><div class=""fixation"">+</div>","null","","","memory","practice","6","1","","","","","","","","","","",""
"html-keyboard-response","41","154947","0.0-5.0-3.0-1.0-2.6","697a645e36e6f14eea2b396b","not_provided","desktop","0","0","0","","","","","","working_memory","","null","<div class=""fixation"">+</div>","null","","","","","","","","","","","","","","","","",""
"html-keyboard-response","42","155905","0.0-5.0-3.0-1.0-3.6","697a645e36e6f14eea2b396b","not_provided","desktop","0","0","0","","","","","","working_memory","","958","<img class='upper3' src=images/squares/blue.png><div class=""fixation"">+</div>","s","","","test","practice","6","1","s","true","","","","","","","","",""
"html-keyboard-response","43","156409","0.0-5.0-3.0-1.0-4.6","697a645e36e6f14eea2b396b","not_provided","desktop","0","0","0","","","","","","working_memory","","null","<div class=""fixation"">Correct</div>","null","","","","","","","","","","","","","","","","",""
"html-keyboard-response","44","157410","0.0-5.0-3.0-1.0-0.7","697a645e36e6f14eea2b396b","not_provided","desktop","0","0","0","","","","","","working_memory","","null","<div class=""fixation"">+</div>","null","","","","","","","","","","","","","","","","",""
"html-keyboard-response","45","157624","0.0-5.0-3.0-1.0-1.7","697a645e36e6f14eea2b396b","not_provided","desktop","0","0","0","","","","","","working_memory","","null","<img class='lower2' src=images/squares/green.png><div class=""fixation"">+</div>","null","","","memory","practice","7","1","","","","","","","","","","",""
"html-keyboard-response","46","158526","0.0-5.0-3.0-1.0-2.7","697a645e36e6f14eea2b396b","not_provided","desktop","0","0","0","","","","","","working_memory","","null","<div class=""fixation"">+</div>","null","","","","","","","","","","","","","","","","",""
"html-keyboard-response","47","159144","0.0-5.0-3.0-1.0-3.7","697a645e36e6f14eea2b396b","not_provided","desktop","0","0","0","","","","","","working_memory","","618","<img class='lower2' src=images/squares/magenta.png><div class=""fixation"">+</div>","s","","","test","practice","7","1","s","true","","","","","","","","",""
"html-keyboard-response","48","159648","0.0-5.0-3.0-1.0-4.7","697a645e36e6f14eea2b396b","not_provided","desktop","0","0","0","","","","","","working_memory","","null","<div class=""fixation"">Correct</div>","null","","","","","","","","","","","","","","","","",""
"html-keyboard-response","49","160659","0.0-5.0-3.0-1.0-0.8","697a645e36e6f14eea2b396b","not_provided","desktop","0","0","0","","","","","","working_memory","","null","<div class=""fixation"">+</div>","null","","","","","","","","","","","","","","","","",""
"html-keyboard-response","50","160876","0.0-5.0-3.0-1.0-1.8","697a645e36e6f14eea2b396b","not_provided","desktop","0","0","0","","","","","","working_memory","","null","<img class='a' src=images/squares/magenta.png><img class='e' src=images/squares/green.png><img class='i' src=images/squares/black.png><img class='j' src=images/squares/blue.png><div class=""fixation"">+</div>","null","","","memory","practice","8","4","","","","","","","","","","",""
"html-keyboard-response","51","161779","0.0-5.0-3.0-1.0-2.8","697a645e36e6f14eea2b396b","not_provided","desktop","0","0","0","","","","","","working_memory","","null","<div class=""fixation"">+</div>","null","","","","","","","","","","","","","","","","",""
"html-keyboard-response","52","163170","0.0-5.0-3.0-1.0-3.8","697a645e36e6f14eea2b396b","not_provided","desktop","0","0","0","","","","","","working_memory","","1391","<img class='a' src=images/squares/magenta.png><div class=""fixation"">+</div>","k","","","test","practice","8","4","k","true","","","","","","","","",""
"html-keyboard-response","53","163672","0.0-5.0-3.0-1.0-4.8","697a645e36e6f14eea2b396b","not_provided","desktop","0","0","0","","","","","","working_memory","","null","<div class=""fixation"">Correct</div>","null","","","","","","","","","","","","","","","","",""
"html-keyboard-response","54","164677","0.0-5.0-3.0-1.0-0.9","697a645e36e6f14eea2b396b","not_provided","desktop","0","0","0","","","","","","working_memory","","null","<div class=""fixation"">+</div>","null","","","","","","","","","","","","","","","","",""
"html-keyboard-response","55","164879","0.0-5.0-3.0-1.0-1.9","697a645e36e6f14eea2b396b","not_provided","desktop","0","0","0","","","","","","working_memory","","null","<img class='c' src=images/squares/brown.png><img class='e' src=images/squares/cyan.png><img class='g' src=images/squares/red.png><img class='j' src=images/squares/black.png><div class=""fixation"">+</div>","null","","","memory","practice","9","4","","","","","","","","","","",""
"html-keyboard-response","56","165792","0.0-5.0-3.0-1.0-2.9","697a645e36e6f14eea2b396b","not_provided","desktop","0","0","0","","","","","","working_memory","","null","<div class=""fixation"">+</div>","null","","","","","","","","","","","","","","","","",""
"html-keyboard-response","57","166801","0.0-5.0-3.0-1.0-3.9","697a645e36e6f14eea2b396b","not_provided","desktop","0","0","0","","","","","","working_memory","","1009","<img class='j' src=images/squares/black.png><div class=""fixation"">+</div>","s","","","test","practice","9","4","k","false","","","","","","","","",""
"html-keyboard-response","58","167303","0.0-5.0-3.0-1.0-4.9","697a645e36e6f14eea2b396b","not_provided","desktop","0","0","0","","","","","","working_memory","","null","<div class=""fixation"">Incorrect</div>","null","","","","","","","","","","","","","","","","",""
"html-keyboard-response","59","168316","0.0-5.0-3.0-1.0-0.10","697a645e36e6f14eea2b396b","not_provided","desktop","0","0","0","","","","","","working_memory","","null","<div class=""fixation"">+</div>","null","","","","","","","","","","","","","","","","",""
"html-keyboard-response","60","168517","0.0-5.0-3.0-1.0-1.10","697a645e36e6f14eea2b396b","not_provided","desktop","0","0","0","","","","","","working_memory","","null","<img class='upper1' src=images/squares/red.png><div class=""fixation"">+</div>","null","","","memory","practice","10","1","","","","","","","","","","",""
"html-keyboard-response","61","169425","0.0-5.0-3.0-1.0-2.10","697a645e36e6f14eea2b396b","not_provided","desktop","0","0","0","","","","","","working_memory","","null","<div class=""fixation"">+</div>","null","","","","","","","","","","","","","","","","",""
"html-keyboard-response","62","170058","0.0-5.0-3.0-1.0-3.10","697a645e36e6f14eea2b396b","not_provided","desktop","0","0","0","","","","","","working_memory","","633","<img class='upper1' src=images/squares/red.png><div class=""fixation"">+</div>","k","","","test","practice","10","1","k","true","","","","","","","","",""
"html-keyboard-response","63","170572","0.0-5.0-3.0-1.0-4.10","697a645e36e6f14eea2b396b","not_provided","desktop","0","0","0","","","","","","working_memory","","null","<div class=""fixation"">Correct</div>","null","","","","","","","","","","","","","","","","",""
"html-keyboard-response","64","171585","0.0-5.0-3.0-1.0-0.11","697a645e36e6f14eea2b396b","not_provided","desktop","0","0","0","","","","","","working_memory","","null","<div class=""fixation"">+</div>","null","","","","","","","","","","","","","","","","",""
"html-keyboard-response","65","171787","0.0-5.0-3.0-1.0-1.11","697a645e36e6f14eea2b396b","not_provided","desktop","0","0","0","","","","","","working_memory","","null","<img class='c' src=images/squares/black.png><img class='b' src=images/squares/yellow.png><img class='d' src=images/squares/red.png><img class='f' src=images/squares/orange.png><img class='g' src=images/squares/cyan.png><img class='h' src=images/squares/magenta.png><img class='j' src=images/squares/green.png><img class='l' src=images/squares/blue.png><div class=""fixation"">+</div>","null","","","memory","practice","11","8","","","","","","","","","","",""
"html-keyboard-response","66","172695","0.0-5.0-3.0-1.0-2.11","697a645e36e6f14eea2b396b","not_provided","desktop","0","0","0","","","","","","working_memory","","null","<div class=""fixation"">+</div>","null","","","","","","","","","","","","","","","","",""
"html-keyboard-response","67","173906","0.0-5.0-3.0-1.0-3.11","697a645e36e6f14eea2b396b","not_provided","desktop","0","0","0","","","","","","working_memory","","1211","<img class='d' src=images/squares/brown.png><div class=""fixation"">+</div>","s","","","test","practice","11","8","s","true","","","","","","","","",""
"html-keyboard-response","68","174411","0.0-5.0-3.0-1.0-4.11","697a645e36e6f14eea2b396b","not_provided","desktop","0","0","0","","","","","","working_memory","","null","<div class=""fixation"">Correct</div>","null","","","","","","","","","","","","","","","","",""
"html-keyboard-response","69","175413","0.0-5.0-3.0-1.0-0.12","697a645e36e6f14eea2b396b","not_provided","desktop","0","0","0","","","","","","working_memory","","null","<div class=""fixation"">+</div>","null","","","","","","","","","","","","","","","","",""
"html-keyboard-response","70","175625","0.0-5.0-3.0-1.0-1.12","697a645e36e6f14eea2b396b","not_provided","desktop","0","0","0","","","","","","working_memory","","null","<img class='a' src=images/squares/green.png><img class='f' src=images/squares/yellow.png><img class='h' src=images/squares/black.png><img class='k' src=images/squares/magenta.png><div class=""fixation"">+</div>","null","","","memory","practice","12","4","","","","","","","","","","",""
"html-keyboard-response","71","176536","0.0-5.0-3.0-1.0-2.12","697a645e36e6f14eea2b396b","not_provided","desktop","0","0","0","","","","","","working_memory","","null","<div class=""fixation"">+</div>","null","","","","","","","","","","","","","","","","",""
"html-keyboard-response","72","177423","0.0-5.0-3.0-1.0-3.12","697a645e36e6f14eea2b396b","not_provided","desktop","0","0","0","","","","","","working_memory","","887","<img class='f' src=images/squares/yellow.png><div class=""fixation"">+</div>","k","","","test","practice","12","4","k","true","","","","","","","","",""
"html-keyboard-response","73","177931","0.0-5.0-3.0-1.0-4.12","697a645e36e6f14eea2b396b","not_provided","desktop","0","0","0","","","","","","working_memory","","null","<div class=""fixation"">Correct</div>","null","","","","","","","","","","","","","","","","",""
"html-keyboard-response","74","178934","0.0-5.0-3.0-1.0-0.13","697a645e36e6f14eea2b396b","not_provided","desktop","0","0","0","","","","","","working_memory","","null","<div class=""fixation"">+</div>","null","","","","","","","","","","","","","","","","",""
"html-keyboard-response","75","179145","0.0-5.0-3.0-1.0-1.13","697a645e36e6f14eea2b396b","not_provided","desktop","0","0","0","","","","","","working_memory","","null","<img class='c' src=images/squares/red.png><img class='f' src=images/squares/yellow.png><img class='h' src=images/squares/magenta.png><img class='l' src=images/squares/cyan.png><div class=""fixation"">+</div>","null","","","memory","practice","13","4","","","","","","","","","","",""
"html-keyboard-response","76","180049","0.0-5.0-3.0-1.0-2.13","697a645e36e6f14eea2b396b","not_provided","desktop","0","0","0","","","","","","working_memory","","null","<div class=""fixation"">+</div>","null","","","","","","","","","","","","","","","","",""
"html-keyboard-response","77","181431","0.0-5.0-3.0-1.0-3.13","697a645e36e6f14eea2b396b","not_provided","desktop","0","0","0","","","","","","working_memory","","1381","<img class='l' src=images/squares/cyan.png><div class=""fixation"">+</div>","s","","","test","practice","13","4","k","false","","","","","","","","",""
"html-keyboard-response","78","181935","0.0-5.0-3.0-1.0-4.13","697a645e36e6f14eea2b396b","not_provided","desktop","0","0","0","","","","","","working_memory","","null","<div class=""fixation"">Incorrect</div>","null","","","","","","","","","","","","","","","","",""
"html-keyboard-response","79","182947","0.0-5.0-3.0-1.0-0.14","697a645e36e6f14eea2b396b","not_provided","desktop","0","0","0","","","","","","working_memory","","null","<div class=""fixation"">+</div>","null","","","","","","","","","","","","","","","","",""
"html-keyboard-response","80","183163","0.0-5.0-3.0-1.0-1.14","697a645e36e6f14eea2b396b","not_provided","desktop","0","0","0","","","","","","working_memory","","null","<img class='c' src=images/squares/blue.png><img class='b' src=images/squares/red.png><img class='d' src=images/squares/black.png><img class='f' src=images/squares/yellow.png><img class='h' src=images/squares/brown.png><img class='g' src=images/squares/cyan.png><img class='j' src=images/squares/green.png><img class='l' src=images/squares/orange.png><div class=""fixation"">+</div>","null","","","memory","practice","14","8","","","","","","","","","","",""
"html-keyboard-response","81","184076","0.0-5.0-3.0-1.0-2.14","697a645e36e6f14eea2b396b","not_provided","desktop","0","0","0","","","","","","working_memory","","null","<div class=""fixation"">+</div>","null","","","","","","","","","","","","","","","","",""
"html-keyboard-response","82","184723","0.0-5.0-3.0-1.0-3.14","697a645e36e6f14eea2b396b","not_provided","desktop","0","0","0","","","","","","working_memory","","648","<img class='f' src=images/squares/yellow.png><div class=""fixation"">+</div>","k","","","test","practice","14","8","k","true","","","","","","","","",""
"html-keyboard-response","83","185224","0.0-5.0-3.0-1.0-4.14","697a645e36e6f14eea2b396b","not_provided","desktop","0","0","0","","","","","","working_memory","","null","<div class=""fixation"">Correct</div>","null","","","","","","","","","","","","","","","","",""
"html-keyboard-response","84","192526","0.0-5.0-4.0","697a645e36e6f14eea2b396b","not_provided","desktop","0","0","0","","","","","","working_memory","","7301","<div style=""text-align:center;font-family:sans-serif;""><p>Good job! You have finished the practice.</p><p>We will now start the real experiment.</p><p>Please try to be as accurate as possible.</p><p><b><u>Note: random guessing may risk your payment.</u></b></p><br><p><b>Press any key to begin.</b></p></div>","k","","","","","","","","","","","","","","","","",""
"html-keyboard-response","85","193541","0.0-5.0-5.0-0.0","697a645e36e6f14eea2b396b","not_provided","desktop","0","0","0","","","","","","working_memory","","null","<div class=""fixation"">+</div>","null","","","","","","","","","","","","","","","","",""
"html-keyboard-response","86","193745","0.0-5.0-5.0-1.0","697a645e36e6f14eea2b396b","not_provided","desktop","0","0","0","","","","","","working_memory","","null","<img class='c' src=images/squares/magenta.png><img class='e' src=images/squares/orange.png><img class='i' src=images/squares/blue.png><img class='l' src=images/squares/black.png><div class=""fixation"">+</div>","null","","","memory","exp","0","","","","","","","","","","","",""
"html-keyboard-response","87","194649","0.0-5.0-5.0-2.0","697a645e36e6f14eea2b396b","not_provided","desktop","0","0","0","","","","","","working_memory","","null","<div class=""fixation"">+</div>","null","","","","","","","","","","","","","","","","",""
"html-keyboard-response","88","195586","0.0-5.0-5.0-3.0","697a645e36e6f14eea2b396b","not_provided","desktop","0","0","0","","","","","","working_memory","","937","<img class='e' src=images/squares/orange.png><div class=""fixation"">+</div>","k","","","test_squares","exp","0","4","k","true","ks","s","","","","","","",""
"html-keyboard-response","89","196089","0.0-5.0-5.0-4.0","697a645e36e6f14eea2b396b","not_provided","desktop","0","0","0","","","","","","working_memory","","null","<div class=""fixation"">Correct</div>","null","","","","","","","","","","","","","","","","",""
"html-keyboard-response","90","197098","0.0-5.0-5.0-0.1","697a645e36e6f14eea2b396b","not_provided","desktop","0","0","0","","","","","","working_memory","","null","<div class=""fixation"">+</div>","null","","","","","","","","","","","","","","","","",""
"html-keyboard-response","91","197312","0.0-5.0-5.0-1.1","697a645e36e6f14eea2b396b","not_provided","desktop","0","0","0","","","","","","working_memory","","null","<img class='b' src=images/squares/red.png><img class='d' src=images/squares/blue.png><img class='i' src=images/squares/green.png><img class='l' src=images/squares/cyan.png><div class=""fixation"">+</div>","null","","","memory","exp","1","","","","","","","","","","","",""
"html-keyboard-response","92","198216","0.0-5.0-5.0-2.1","697a645e36e6f14eea2b396b","not_provided","desktop","0","0","0","","","","","","working_memory","","null","<div class=""fixation"">+</div>","null","","","","","","","","","","","","","","","","",""
"html-keyboard-response","93","200149","0.0-5.0-5.0-3.1","697a645e36e6f14eea2b396b","not_provided","desktop","0","0","0","","","","","","working_memory","","1932","<img class='l' src=images/squares/cyan.png><div class=""fixation"">+</div>","k","","","test_squares","exp","1","4","k","true","ks","s","","","","","","",""
"html-keyboard-response","94","200653","0.0-5.0-5.0-4.1","697a645e36e6f14eea2b396b","not_provided","desktop","0","0","0","","","","","","working_memory","","null","<div class=""fixation"">Correct</div>","null","","","","","","","","","","","","","","","","",""
"html-keyboard-response","95","201666","0.0-5.0-5.0-0.2","697a645e36e6f14eea2b396b","not_provided","desktop","0","0","0","","","","","","working_memory","","null","<div class=""fixation"">+</div>","null","","","","","","","","","","","","","","","","",""
"html-keyboard-response","96","201867","0.0-5.0-5.0-1.2","697a645e36e6f14eea2b396b","not_provided","desktop","0","0","0","","","","","","working_memory","","null","<img class='c' src=images/squares/blue.png><img class='e' src=images/squares/cyan.png><img class='i' src=images/squares/red.png><img class='l' src=images/squares/orange.png><div class=""fixation"">+</div>","null","","","memory","exp","2","","","","","","","","","","","",""
"html-keyboard-response","97","202775","0.0-5.0-5.0-2.2","697a645e36e6f14eea2b396b","not_provided","desktop","0","0","0","","","","","","working_memory","","null","<div class=""fixation"">+</div>","null","","","","","","","","","","","","","","","","",""
"html-keyboard-response","98","204264","0.0-5.0-5.0-3.2","697a645e36e6f14eea2b396b","not_provided","desktop","0","0","0","","","","","","working_memory","","1488","<img class='c' src=images/squares/blue.png><div class=""fixation"">+</div>","k","","","test_squares","exp","2","4","k","true","ks","s","","","","","","",""
"html-keyboard-response","99","204774","0.0-5.0-5.0-4.2","697a645e36e6f14eea2b396b","not_provided","desktop","0","0","0","","","","","","working_memory","","null","<div class=""fixation"">Correct</div>","null","","","","","","","","","","","","","","","","",""
"html-keyboard-response","100","205784","0.0-5.0-5.0-0.3","697a645e36e6f14eea2b396b","not_provided","desktop","0","0","0","","","","","","working_memory","","null","<div class=""fixation"">+</div>","null","","","","","","","","","","","","","","","","",""
"html-keyboard-response","101","205988","0.0-5.0-5.0-1.3","697a645e36e6f14eea2b396b","not_provided","desktop","0","0","0","","","","","","working_memory","","null","<img class='b' src=images/squares/blue.png><img class='f' src=images/squares/black.png><img class='g' src=images/squares/cyan.png><img class='k' src=images/squares/orange.png><div class=""fixation"">+</div>","null","","","memory","exp","3","","","","","","","","","","","",""
"html-keyboard-response","102","206896","0.0-5.0-5.0-2.3","697a645e36e6f14eea2b396b","not_provided","desktop","0","0","0","","","","","","working_memory","","null","<div class=""fixation"">+</div>","null","","","","","","","","","","","","","","","","",""
"html-keyboard-response","103","207924","0.0-5.0-5.0-3.3","697a645e36e6f14eea2b396b","not_provided","desktop","0","0","0","","","","","","working_memory","","1027","<img class='k' src=images/squares/orange.png><div class=""fixation"">+</div>","k","","","test_squares","exp","3","4","k","true","ks","s","","","","","","",""
"html-keyboard-response","104","208425","0.0-5.0-5.0-4.3","697a645e36e6f14eea2b396b","not_provided","desktop","0","0","0","","","","","","working_memory","","null","<div class=""fixation"">Correct</div>","null","","","","","","","","","","","","","","","","",""
"html-keyboard-response","105","209429","0.0-5.0-5.0-0.4","697a645e36e6f14eea2b396b","not_provided","desktop","0","0","0","","","","","","working_memory","","null","<div class=""fixation"">+</div>","null","","","","","","","","","","","","","","","","",""
"html-keyboard-response","106","209642","0.0-5.0-5.0-1.4","697a645e36e6f14eea2b396b","not_provided","desktop","0","0","0","","","","","","working_memory","","null","<img class='a' src=images/squares/orange.png><img class='e' src=images/squares/yellow.png><img class='i' src=images/squares/green.png><img class='k' src=images/squares/blue.png><div class=""fixation"">+</div>","null","","","memory","exp","4","","","","","","","","","","","",""
"html-keyboard-response","107","210544","0.0-5.0-5.0-2.4","697a645e36e6f14eea2b396b","not_provided","desktop","0","0","0","","","","","","working_memory","","null","<div class=""fixation"">+</div>","null","","","","","","","","","","","","","","","","",""
"html-keyboard-response","108","212406","0.0-5.0-5.0-3.4","697a645e36e6f14eea2b396b","not_provided","desktop","0","0","0","","","","","","working_memory","","1861","<img class='a' src=images/squares/cyan.png><div class=""fixation"">+</div>","s","","","test_squares","exp","4","4","s","true","ks","d","","","","","","",""
"html-keyboard-response","109","212915","0.0-5.0-5.0-4.4","697a645e36e6f14eea2b396b","not_provided","desktop","0","0","0","","","","","","working_memory","","null","<div class=""fixation"">Correct</div>","null","","","","","","","","","","","","","","","","",""
"html-keyboard-response","110","213916","0.0-5.0-5.0-0.5","697a645e36e6f14eea2b396b","not_provided","desktop","0","0","0","","","","","","working_memory","","null","<div class=""fixation"">+</div>","null","","","","","","","","","","","","","","","","",""
"html-keyboard-response","111","214130","0.0-5.0-5.0-1.5","697a645e36e6f14eea2b396b","not_provided","desktop","0","0","0","","","","","","working_memory","","null","<img class='b' src=images/squares/orange.png><img class='f' src=images/squares/yellow.png><img class='h' src=images/squares/black.png><img class='k' src=images/squares/blue.png><div class=""fixation"">+</div>","null","","","memory","exp","5","","","","","","","","","","","",""
"html-keyboard-response","112","215037","0.0-5.0-5.0-2.5","697a645e36e6f14eea2b396b","not_provided","desktop","0","0","0","","","","","","working_memory","","null","<div class=""fixation"">+</div>","null","","","","","","","","","","","","","","","","",""
"html-keyboard-response","113","216361","0.0-5.0-5.0-3.5","697a645e36e6f14eea2b396b","not_provided","desktop","0","0","0","","","","","","working_memory","","1323","<img class='h' src=images/squares/black.png><div class=""fixation"">+</div>","k","","","test_squares","exp","5","4","k","true","ks","s","","","","","","",""
"html-keyboard-response","114","216869","0.0-5.0-5.0-4.5","697a645e36e6f14eea2b396b","not_provided","desktop","0","0","0","","","","","","working_memory","","null","<div class=""fixation"">Correct</div>","null","","","","","","","","","","","","","","","","",""
"html-keyboard-response","115","217886","0.0-5.0-5.0-0.6","697a645e36e6f14eea2b396b","not_provided","desktop","0","0","0","","","","","","working_memory","","null","<div class=""fixation"">+</div>","null","","","","","","","","","","","","","","","","",""
"html-keyboard-response","116","218101","0.0-5.0-5.0-1.6","697a645e36e6f14eea2b396b","not_provided","desktop","0","0","0","","","","","","working_memory","","null","<img class='c' src=images/squares/black.png><img class='d' src=images/squares/green.png><img class='g' src=images/squares/magenta.png><img class='l' src=images/squares/cyan.png><div class=""fixation"">+</div>","null","","","memory","exp","6","","","","","","","","","","","",""
"html-keyboard-response","117","219011","0.0-5.0-5.0-2.6","697a645e36e6f14eea2b396b","not_provided","desktop","0","0","0","","","","","","working_memory","","null","<div class=""fixation"">+</div>","null","","","","","","","","","","","","","","","","",""
"html-keyboard-response","118","219858","0.0-5.0-5.0-3.6","697a645e36e6f14eea2b396b","not_provided","desktop","0","0","0","","","","","","working_memory","","847","<img class='g' src=images/squares/magenta.png><div class=""fixation"">+</div>","k","","","test_squares","exp","6","4","k","true","ks","s","","","","","","",""
"html-keyboard-response","119","220374","0.0-5.0-5.0-4.6","697a645e36e6f14eea2b396b","not_provided","desktop","0","0","0","","","","","","working_memory","","null","<div class=""fixation"">Correct</div>","null","","","","","","","","","","","","","","","","",""
"html-keyboard-response","120","221377","0.0-5.0-5.0-0.7","697a645e36e6f14eea2b396b","not_provided","desktop","0","0","0","","","","","","working_memory","","null","<div class=""fixation"">+</div>","null","","","","","","","","","","","","","","","","",""
"html-keyboard-response","121","221588","0.0-5.0-5.0-1.7","697a645e36e6f14eea2b396b","not_provided","desktop","0","0","0","","","","","","working_memory","","null","<img class='b' src=images/squares/brown.png><img class='c' src=images/squares/red.png><img class='e' src=images/squares/orange.png><img class='d' src=images/squares/magenta.png><img class='i' src=images/squares/black.png><img class='h' src=images/squares/green.png><img class='k' src=images/squares/cyan.png><img class='j' src=images/squares/blue.png><div class=""fixation"">+</div>","null","","","memory","exp","7","","","","","","","","","","","",""
"html-keyboard-response","122","222492","0.0-5.0-5.0-2.7","697a645e36e6f14eea2b396b","not_provided","desktop","0","0","0","","","","","","working_memory","","null","<div class=""fixation"">+</div>","null","","","","","","","","","","","","","","","","",""
"html-keyboard-response","123","223080","0.0-5.0-5.0-3.7","697a645e36e6f14eea2b396b","not_provided","desktop","0","0","0","","","","","","working_memory","","588","<img class='i' src=images/squares/black.png><div class=""fixation"">+</div>","k","","","test_squares","exp","7","8","k","true","ks","s","","","","","","",""
"html-keyboard-response","124","223592","0.0-5.0-5.0-4.7","697a645e36e6f14eea2b396b","not_provided","desktop","0","0","0","","","","","","working_memory","","null","<div class=""fixation"">Correct</div>","null","","","","","","","","","","","","","","","","",""
"html-keyboard-response","125","224598","0.0-5.0-5.0-0.8","697a645e36e6f14eea2b396b","not_provided","desktop","0","0","0","","","","","","working_memory","","null","<div class=""fixation"">+</div>","null","","","","","","","","","","","","","","","","",""
"html-keyboard-response","126","224811","0.0-5.0-5.0-1.8","697a645e36e6f14eea2b396b","not_provided","desktop","0","0","0","","","","","","working_memory","","null","<img class='a' src=images/squares/green.png><img class='b' src=images/squares/black.png><img class='d' src=images/squares/red.png><img class='e' src=images/squares/magenta.png><img class='i' src=images/squares/cyan.png><img class='h' src=images/squares/brown.png><img class='l' src=images/squares/orange.png><img class='j' src=images/squares/yellow.png><div class=""fixation"">+</div>","null","","","memory","exp","8","","","","","","","","","","","",""
"html-keyboard-response","127","225725","0.0-5.0-5.0-2.8","697a645e36e6f14eea2b396b","not_provided","desktop","0","0","0","","","","","","working_memory","","null","<div class=""fixation"">+</div>","null","","","","","","","","","","","","","","","","",""
"html-keyboard-response","128","226426","0.0-5.0-5.0-3.8","697a645e36e6f14eea2b396b","not_provided","desktop","0","0","0","","","","","","working_memory","","700","<img class='b' src=images/squares/blue.png><div class=""fixation"">+</div>","s","","","test_squares","exp","8","8","s","true","ks","d","","","","","","",""
"html-keyboard-response","129","226934","0.0-5.0-5.0-4.8","697a645e36e6f14eea2b396b","not_provided","desktop","0","0","0","","","","","","working_memory","","null","<div class=""fixation"">Correct</div>","null","","","","","","","","","","","","","","","","",""
"html-keyboard-response","130","227938","0.0-5.0-5.0-0.9","697a645e36e6f14eea2b396b","not_provided","desktop","0","0","0","","","","","","working_memory","","null","<div class=""fixation"">+</div>","null","","","","","","","","","","","","","","","","",""
"html-keyboard-response","131","228143","0.0-5.0-5.0-1.9","697a645e36e6f14eea2b396b","not_provided","desktop","0","0","0","","","","","","working_memory","","null","<img class='c' src=images/squares/cyan.png><img class='b' src=images/squares/red.png><img class='f' src=images/squares/green.png><img class='d' src=images/squares/orange.png><img class='g' src=images/squares/magenta.png><img class='h' src=images/squares/brown.png><img class='j' src=images/squares/yellow.png><img class='k' src=images/squares/black.png><div class=""fixation"">+</div>","null","","","memory","exp","9","","","","","","","","","","","",""
"html-keyboard-response","132","229047","0.0-5.0-5.0-2.9","697a645e36e6f14eea2b396b","not_provided","desktop","0","0","0","","","","","","working_memory","","null","<div class=""fixation"">+</div>","null","","","","","","","","","","","","","","","","",""
"html-keyboard-response","133","229817","0.0-5.0-5.0-3.9","697a645e36e6f14eea2b396b","not_provided","desktop","0","0","0","","","","","","working_memory","","769","<img class='d' src=images/squares/orange.png><div class=""fixation"">+</div>","s","","","test_squares","exp","9","8","k","false","ks","s","","","","","","",""
"html-keyboard-response","134","230320","0.0-5.0-5.0-4.9","697a645e36e6f14eea2b396b","not_provided","desktop","0","0","0","","","","","","working_memory","","null","<div class=""fixation"">Incorrect</div>","null","","","","","","","","","","","","","","","","",""
"html-keyboard-response","135","231329","0.0-5.0-5.0-0.10","697a645e36e6f14eea2b396b","not_provided","desktop","0","0","0","","","","","","working_memory","","null","<div class=""fixation"">+</div>","null","","","","","","","","","","","","","","","","",""
"html-keyboard-response","136","231545","0.0-5.0-5.0-1.10","697a645e36e6f14eea2b396b","not_provided","desktop","0","0","0","","","","","","working_memory","","null","<img class='a' src=images/squares/yellow.png><img class='d' src=images/squares/green.png><img class='i' src=images/squares/cyan.png><img class='l' src=images/squares/blue.png><div class=""fixation"">+</div>","null","","","memory","exp","10","","","","","","","","","","","",""
"html-keyboard-response","137","232450","0.0-5.0-5.0-2.10","697a645e36e6f14eea2b396b","not_provided","desktop","0","0","0","","","","","","working_memory","","null","<div class=""fixation"">+</div>","null","","","","","","","","","","","","","","","","",""
"html-keyboard-response","138","233261","0.0-5.0-5.0-3.10","697a645e36e6f14eea2b396b","not_provided","desktop","0","0","0","","","","","","working_memory","","811","<img class='l' src=images/squares/blue.png><div class=""fixation"">+</div>","k","","","test_squares","exp","10","4","k","true","ks","s","","","","","","",""
"html-keyboard-response","139","233770","0.0-5.0-5.0-4.10","697a645e36e6f14eea2b396b","not_provided","desktop","0","0","0","","","","","","working_memory","","null","<div class=""fixation"">Correct</div>","null","","","","","","","","","","","","","","","","",""
"html-keyboard-response","140","234782","0.0-5.0-5.0-0.11","697a645e36e6f14eea2b396b","not_provided","desktop","0","0","0","","","","","","working_memory","","null","<div class=""fixation"">+</div>","null","","","","","","","","","","","","","","","","",""
"html-keyboard-response","141","234999","0.0-5.0-5.0-1.11","697a645e36e6f14eea2b396b","not_provided","desktop","0","0","0","","","","","","working_memory","","null","<img class='a' src=images/squares/black.png><img class='f' src=images/squares/yellow.png><img class='h' src=images/squares/magenta.png><img class='l' src=images/squares/brown.png><div class=""fixation"">+</div>","null","","","memory","exp","11","","","","","","","","","","","",""
"html-keyboard-response","142","235913","0.0-5.0-5.0-2.11","697a645e36e6f14eea2b396b","not_provided","desktop","0","0","0","","","","","","working_memory","","null","<div class=""fixation"">+</div>","null","","","","","","","","","","","","","","","","",""
"html-keyboard-response","143","236419","0.0-5.0-5.0-3.11","697a645e36e6f14eea2b396b","not_provided","desktop","0","0","0","","","","","","working_memory","","506","<img class='a' src=images/squares/black.png><div class=""fixation"">+</div>","k","","","test_squares","exp","11","4","k","true","ks","s","","","","","","",""
"html-keyboard-response","144","236924","0.0-5.0-5.0-4.11","697a645e36e6f14eea2b396b","not_provided","desktop","0","0","0","","","","","","working_memory","","null","<div class=""fixation"">Correct</div>","null","","","","","","","","","","","","","","","","",""
"html-keyboard-response","145","237931","0.0-5.0-5.0-0.12","697a645e36e6f14eea2b396b","not_provided","desktop","0","0","0","","","","","","working_memory","","null","<div class=""fixation"">+</div>","null","","","","","","","","","","","","","","","","",""
"html-keyboard-response","146","238137","0.0-5.0-5.0-1.12","697a645e36e6f14eea2b396b","not_provided","desktop","0","0","0","","","","","","working_memory","","null","<img class='c' src=images/squares/blue.png><img class='a' src=images/squares/red.png><img class='f' src=images/squares/green.png><img class='e' src=images/squares/orange.png><img class='h' src=images/squares/brown.png><img class='i' src=images/squares/cyan.png><img class='l' src=images/squares/magenta.png><img class='j' src=images/squares/yellow.png><div class=""fixation"">+</div>","null","","","memory","exp","12","","","","","","","","","","","",""
"html-keyboard-response","147","239047","0.0-5.0-5.0-2.12","697a645e36e6f14eea2b396b","not_provided","desktop","0","0","0","","","","","","working_memory","","null","<div class=""fixation"">+</div>","null","","","","","","","","","","","","","","","","",""
"html-keyboard-response","148","239811","0.0-5.0-5.0-3.12","697a645e36e6f14eea2b396b","not_provided","desktop","0","0","0","","","","","","working_memory","","763","<img class='h' src=images/squares/black.png><div class=""fixation"">+</div>","s","","","test_squares","exp","12","8","s","true","ks","d","","","","","","",""
"html-keyboard-response","149","240323","0.0-5.0-5.0-4.12","697a645e36e6f14eea2b396b","not_provided","desktop","0","0","0","","","","","","working_memory","","null","<div class=""fixation"">Correct</div>","null","","","","","","","","","","","","","","","","",""
"html-keyboard-response","150","241335","0.0-5.0-5.0-0.13","697a645e36e6f14eea2b396b","not_provided","desktop","0","0","0","","","","","","working_memory","","null","<div class=""fixation"">+</div>","null","","","","","","","","","","","","","","","","",""
"html-keyboard-response","151","241538","0.0-5.0-5.0-1.13","697a645e36e6f14eea2b396b","not_provided","desktop","0","0","0","","","","","","working_memory","","null","<img class='c' src=images/squares/red.png><img class='e' src=images/squares/green.png><img class='i' src=images/squares/magenta.png><img class='l' src=images/squares/brown.png><div class=""fixation"">+</div>","null","","","memory","exp","13","","","","","","","","","","","",""
"html-keyboard-response","152","242447","0.0-5.0-5.0-2.13","697a645e36e6f14eea2b396b","not_provided","desktop","0","0","0","","","","","","working_memory","","null","<div class=""fixation"">+</div>","null","","","","","","","","","","","","","","","","",""
"html-keyboard-response","153","243192","0.0-5.0-5.0-3.13","697a645e36e6f14eea2b396b","not_provided","desktop","0","0","0","","","","","","working_memory","","745","<img class='l' src=images/squares/black.png><div class=""fixation"">+</div>","s","","","test_squares","exp","13","4","s","true","ks","d","","","","","","",""
"html-keyboard-response","154","243708","0.0-5.0-5.0-4.13","697a645e36e6f14eea2b396b","not_provided","desktop","0","0","0","","","","","","working_memory","","null","<div class=""fixation"">Correct</div>","null","","","","","","","","","","","","","","","","",""
"html-keyboard-response","155","244723","0.0-5.0-5.0-0.14","697a645e36e6f14eea2b396b","not_provided","desktop","0","0","0","","","","","","working_memory","","null","<div class=""fixation"">+</div>","null","","","","","","","","","","","","","","","","",""
"html-keyboard-response","156","244927","0.0-5.0-5.0-1.14","697a645e36e6f14eea2b396b","not_provided","desktop","0","0","0","","","","","","working_memory","","null","<img class='c' src=images/squares/black.png><img class='a' src=images/squares/red.png><img class='e' src=images/squares/blue.png><img class='f' src=images/squares/yellow.png><img class='h' src=images/squares/orange.png><img class='i' src=images/squares/magenta.png><img class='j' src=images/squares/green.png><img class='l' src=images/squares/cyan.png><div class=""fixation"">+</div>","null","","","memory","exp","14","","","","","","","","","","","",""
"html-keyboard-response","157","245835","0.0-5.0-5.0-2.14","697a645e36e6f14eea2b396b","not_provided","desktop","0","0","0","","","","","","working_memory","","null","<div class=""fixation"">+</div>","null","","","","","","","","","","","","","","","","",""
"html-keyboard-response","158","246601","0.0-5.0-5.0-3.14","697a645e36e6f14eea2b396b","not_provided","desktop","0","0","0","","","","","","working_memory","","766","<img class='f' src=images/squares/brown.png><div class=""fixation"">+</div>","s","","","test_squares","exp","14","8","s","true","ks","d","","","","","","",""
"html-keyboard-response","159","247116","0.0-5.0-5.0-4.14","697a645e36e6f14eea2b396b","not_provided","desktop","0","0","0","","","","","","working_memory","","null","<div class=""fixation"">Correct</div>","null","","","","","","","","","","","","","","","","",""
"html-keyboard-response","160","248131","0.0-5.0-5.0-0.15","697a645e36e6f14eea2b396b","not_provided","desktop","0","0","0","","","","","","working_memory","","null","<div class=""fixation"">+</div>","null","","","","","","","","","","","","","","","","",""
"html-keyboard-response","161","248335","0.0-5.0-5.0-1.15","697a645e36e6f14eea2b396b","not_provided","desktop","0","0","0","","","","","","working_memory","","null","<img class='c' src=images/squares/black.png><img class='a' src=images/squares/blue.png><img class='f' src=images/squares/orange.png><img class='e' src=images/squares/green.png><img class='h' src=images/squares/magenta.png><img class='i' src=images/squares/cyan.png><img class='k' src=images/squares/red.png><img class='l' src=images/squares/brown.png><div class=""fixation"">+</div>","null","","","memory","exp","15","","","","","","","","","","","",""
"html-keyboard-response","162","249249","0.0-5.0-5.0-2.15","697a645e36e6f14eea2b396b","not_provided","desktop","0","0","0","","","","","","working_memory","","null","<div class=""fixation"">+</div>","null","","","","","","","","","","","","","","","","",""
"html-keyboard-response","163","250064","0.0-5.0-5.0-3.15","697a645e36e6f14eea2b396b","not_provided","desktop","0","0","0","","","","","","working_memory","","815","<img class='l' src=images/squares/yellow.png><div class=""fixation"">+</div>","s","","","test_squares","exp","15","8","s","true","ks","d","","","","","","",""
"html-keyboard-response","164","250573","0.0-5.0-5.0-4.15","697a645e36e6f14eea2b396b","not_provided","desktop","0","0","0","","","","","","working_memory","","null","<div class=""fixation"">Correct</div>","null","","","","","","","","","","","","","","","","",""
"html-keyboard-response","165","251586","0.0-5.0-5.0-0.16","697a645e36e6f14eea2b396b","not_provided","desktop","0","0","0","","","","","","working_memory","","null","<div class=""fixation"">+</div>","null","","","","","","","","","","","","","","","","",""
"html-keyboard-response","166","251800","0.0-5.0-5.0-1.16","697a645e36e6f14eea2b396b","not_provided","desktop","0","0","0","","","","","","working_memory","","null","<img class='c' src=images/squares/brown.png><img class='f' src=images/squares/green.png><img class='h' src=images/squares/cyan.png><img class='j' src=images/squares/magenta.png><div class=""fixation"">+</div>","null","","","memory","exp","16","","","","","","","","","","","",""
"html-keyboard-response","167","252707","0.0-5.0-5.0-2.16","697a645e36e6f14eea2b396b","not_provided","desktop","0","0","0","","","","","","working_memory","","null","<div class=""fixation"">+</div>","null","","","","","","","","","","","","","","","","",""
"html-keyboard-response","168","253392","0.0-5.0-5.0-3.16","697a645e36e6f14eea2b396b","not_provided","desktop","0","0","0","","","","","","working_memory","","685","<img class='f' src=images/squares/yellow.png><div class=""fixation"">+</div>","s","","","test_squares","exp","16","4","s","true","ks","d","","","","","","",""
"html-keyboard-response","169","253895","0.0-5.0-5.0-4.16","697a645e36e6f14eea2b396b","not_provided","desktop","0","0","0","","","","","","working_memory","","null","<div class=""fixation"">Correct</div>","null","","","","","","","","","","","","","","","","",""
"html-keyboard-response","170","254899","0.0-5.0-5.0-0.17","697a645e36e6f14eea2b396b","not_provided","desktop","0","0","0","","","","","","working_memory","","null","<div class=""fixation"">+</div>","null","","","","","","","","","","","","","","","","",""
"html-keyboard-response","171","255104","0.0-5.0-5.0-1.17","697a645e36e6f14eea2b396b","not_provided","desktop","0","0","0","","","","","","working_memory","","null","<img class='c' src=images/squares/magenta.png><img class='d' src=images/squares/cyan.png><img class='h' src=images/squares/brown.png><img class='k' src=images/squares/red.png><div class=""fixation"">+</div>","null","","","memory","exp","17","","","","","","","","","","","",""
"html-keyboard-response","172","256006","0.0-5.0-5.0-2.17","697a645e36e6f14eea2b396b","not_provided","desktop","0","0","0","","","","","","working_memory","","null","<div class=""fixation"">+</div>","null","","","","","","","","","","","","","","","","",""
"html-keyboard-response","173","258233","0.0-5.0-5.0-3.17","697a645e36e6f14eea2b396b","not_provided","desktop","0","0","0","","","","","","working_memory","","2226","<img class='c' src=images/squares/magenta.png><div class=""fixation"">+</div>","k","","","test_squares","exp","17","4","k","true","ks","s","","","","","","",""
"html-keyboard-response","174","258743","0.0-5.0-5.0-4.17","697a645e36e6f14eea2b396b","not_provided","desktop","0","0","0","","","","","","working_memory","","null","<div class=""fixation"">Correct</div>","null","","","","","","","","","","","","","","","","",""
"html-keyboard-response","175","259755","0.0-5.0-5.0-0.18","697a645e36e6f14eea2b396b","not_provided","desktop","0","0","0","","","","","","working_memory","","null","<div class=""fixation"">+</div>","null","","","","","","","","","","","","","","","","",""
"html-keyboard-response","176","259959","0.0-5.0-5.0-1.18","697a645e36e6f14eea2b396b","not_provided","desktop","0","0","0","","","","","","working_memory","","null","<img class='a' src=images/squares/yellow.png><img class='e' src=images/squares/red.png><img class='h' src=images/squares/black.png><img class='l' src=images/squares/orange.png><div class=""fixation"">+</div>","null","","","memory","exp","18","","","","","","","","","","","",""
"html-keyboard-response","177","260870","0.0-5.0-5.0-2.18","697a645e36e6f14eea2b396b","not_provided","desktop","0","0","0","","","","","","working_memory","","null","<div class=""fixation"">+</div>","null","","","","","","","","","","","","","","","","",""
"html-keyboard-response","178","261767","0.0-5.0-5.0-3.18","697a645e36e6f14eea2b396b","not_provided","desktop","0","0","0","","","","","","working_memory","","897","<img class='l' src=images/squares/orange.png><div class=""fixation"">+</div>","k","","","test_squares","exp","18","4","k","true","ks","s","","","","","","",""
"html-keyboard-response","179","262281","0.0-5.0-5.0-4.18","697a645e36e6f14eea2b396b","not_provided","desktop","0","0","0","","","","","","working_memory","","null","<div class=""fixation"">Correct</div>","null","","","","","","","","","","","","","","","","",""
"html-keyboard-response","180","263291","0.0-5.0-5.0-0.19","697a645e36e6f14eea2b396b","not_provided","desktop","0","0","0","","","","","","working_memory","","null","<div class=""fixation"">+</div>","null","","","","","","","","","","","","","","","","",""
"html-keyboard-response","181","263495","0.0-5.0-5.0-1.19","697a645e36e6f14eea2b396b","not_provided","desktop","0","0","0","","","","","","working_memory","","null","<img class='a' src=images/squares/blue.png><img class='f' src=images/squares/cyan.png><img class='h' src=images/squares/yellow.png><img class='l' src=images/squares/magenta.png><div class=""fixation"">+</div>","null","","","memory","exp","19","","","","","","","","","","","",""
"html-keyboard-response","182","264410","0.0-5.0-5.0-2.19","697a645e36e6f14eea2b396b","not_provided","desktop","0","0","0","","","","","","working_memory","","null","<div class=""fixation"">+</div>","null","","","","","","","","","","","","","","","","",""
"html-keyboard-response","183","265077","0.0-5.0-5.0-3.19","697a645e36e6f14eea2b396b","not_provided","desktop","0","0","0","","","","","","working_memory","","667","<img class='l' src=images/squares/green.png><div class=""fixation"">+</div>","s","","","test_squares","exp","19","4","s","true","ks","d","","","","","","",""
"html-keyboard-response","184","265589","0.0-5.0-5.0-4.19","697a645e36e6f14eea2b396b","not_provided","desktop","0","0","0","","","","","","working_memory","","null","<div class=""fixation"">Correct</div>","null","","","","","","","","","","","","","","","","",""
"html-keyboard-response","185","266602","0.0-5.0-5.0-0.20","697a645e36e6f14eea2b396b","not_provided","desktop","0","0","0","","","","","","working_memory","","null","<div class=""fixation"">+</div>","null","","","","","","","","","","","","","","","","",""
"html-keyboard-response","186","266815","0.0-5.0-5.0-1.20","697a645e36e6f14eea2b396b","not_provided","desktop","0","0","0","","","","","","working_memory","","null","<img class='c' src=images/squares/magenta.png><img class='b' src=images/squares/black.png><img class='e' src=images/squares/brown.png><img class='f' src=images/squares/blue.png><img class='i' src=images/squares/cyan.png><img class='g' src=images/squares/green.png><img class='j' src=images/squares/red.png><img class='k' src=images/squares/yellow.png><div class=""fixation"">+</div>","null","","","memory","exp","20","","","","","","","","","","","",""
"html-keyboard-response","187","267722","0.0-5.0-5.0-2.20","697a645e36e6f14eea2b396b","not_provided","desktop","0","0","0","","","","","","working_memory","","null","<div class=""fixation"">+</div>","null","","","","","","","","","","","","","","","","",""
"html-keyboard-response","188","268378","0.0-5.0-5.0-3.20","697a645e36e6f14eea2b396b","not_provided","desktop","0","0","0","","","","","","working_memory","","656","<img class='j' src=images/squares/red.png><div class=""fixation"">+</div>","s","","","test_squares","exp","20","8","k","false","ks","s","","","","","","",""
"html-keyboard-response","189","268891","0.0-5.0-5.0-4.20","697a645e36e6f14eea2b396b","not_provided","desktop","0","0","0","","","","","","working_memory","","null","<div class=""fixation"">Incorrect</div>","null","","","","","","","","","","","","","","","","",""
"html-keyboard-response","190","269893","0.0-5.0-5.0-0.21","697a645e36e6f14eea2b396b","not_provided","desktop","0","0","0","","","","","","working_memory","","null","<div class=""fixation"">+</div>","null","","","","","","","","","","","","","","","","",""
"html-keyboard-response","191","270102","0.0-5.0-5.0-1.21","697a645e36e6f14eea2b396b","not_provided","desktop","0","0","0","","","","","","working_memory","","null","<img class='b' src=images/squares/green.png><img class='f' src=images/squares/black.png><img class='g' src=images/squares/orange.png><img class='j' src=images/squares/yellow.png><div class=""fixation"">+</div>","null","","","memory","exp","21","","","","","","","","","","","",""
"html-keyboard-response","192","271010","0.0-5.0-5.0-2.21","697a645e36e6f14eea2b396b","not_provided","desktop","0","0","0","","","","","","working_memory","","null","<div class=""fixation"">+</div>","null","","","","","","","","","","","","","","","","",""
"html-keyboard-response","193","271591","0.0-5.0-5.0-3.21","697a645e36e6f14eea2b396b","not_provided","desktop","0","0","0","","","","","","working_memory","","581","<img class='f' src=images/squares/magenta.png><div class=""fixation"">+</div>","s","","","test_squares","exp","21","4","s","true","ks","d","","","","","","",""
"html-keyboard-response","194","272096","0.0-5.0-5.0-4.21","697a645e36e6f14eea2b396b","not_provided","desktop","0","0","0","","","","","","working_memory","","null","<div class=""fixation"">Correct</div>","null","","","","","","","","","","","","","","","","",""
"html-keyboard-response","195","273108","0.0-5.0-5.0-0.22","697a645e36e6f14eea2b396b","not_provided","desktop","0","0","0","","","","","","working_memory","","null","<div class=""fixation"">+</div>","null","","","","","","","","","","","","","","","","",""
"html-keyboard-response","196","273322","0.0-5.0-5.0-1.22","697a645e36e6f14eea2b396b","not_provided","desktop","0","0","0","","","","","","working_memory","","null","<img class='c' src=images/squares/cyan.png><img class='e' src=images/squares/black.png><img class='i' src=images/squares/green.png><img class='k' src=images/squares/red.png><div class=""fixation"">+</div>","null","","","memory","exp","22","","","","","","","","","","","",""
"html-keyboard-response","197","274228","0.0-5.0-5.0-2.22","697a645e36e6f14eea2b396b","not_provided","desktop","0","0","0","","","","","","working_memory","","null","<div class=""fixation"">+</div>","null","","","","","","","","","","","","","","","","",""
"html-keyboard-response","198","275054","0.0-5.0-5.0-3.22","697a645e36e6f14eea2b396b","not_provided","desktop","0","0","0","","","","","","working_memory","","826","<img class='i' src=images/squares/yellow.png><div class=""fixation"">+</div>","s","","","test_squares","exp","22","4","s","true","ks","d","","","","","","",""
"html-keyboard-response","199","275568","0.0-5.0-5.0-4.22","697a645e36e6f14eea2b396b","not_provided","desktop","0","0","0","","","","","","working_memory","","null","<div class=""fixation"">Correct</div>","null","","","","","","","","","","","","","","","","",""
"html-keyboard-response","200","276570","0.0-5.0-5.0-0.23","697a645e36e6f14eea2b396b","not_provided","desktop","0","0","0","","","","","","working_memory","","null","<div class=""fixation"">+</div>","null","","","","","","","","","","","","","","","","",""
"html-keyboard-response","201","276775","0.0-5.0-5.0-1.23","697a645e36e6f14eea2b396b","not_provided","desktop","0","0","0","","","","","","working_memory","","null","<img class='b' src=images/squares/orange.png><img class='d' src=images/squares/black.png><img class='i' src=images/squares/magenta.png><img class='l' src=images/squares/brown.png><div class=""fixation"">+</div>","null","","","memory","exp","23","","","","","","","","","","","",""
"html-keyboard-response","202","277679","0.0-5.0-5.0-2.23","697a645e36e6f14eea2b396b","not_provided","desktop","0","0","0","","","","","","working_memory","","null","<div class=""fixation"">+</div>","null","","","","","","","","","","","","","","","","",""
"html-keyboard-response","203","278677","0.0-5.0-5.0-3.23","697a645e36e6f14eea2b396b","not_provided","desktop","0","0","0","","","","","","working_memory","","997","<img class='b' src=images/squares/orange.png><div class=""fixation"">+</div>","k","","","test_squares","exp","23","4","k","true","ks","s","","","","","","",""
"html-keyboard-response","204","279183","0.0-5.0-5.0-4.23","697a645e36e6f14eea2b396b","not_provided","desktop","0","0","0","","","","","","working_memory","","null","<div class=""fixation"">Correct</div>","null","","","","","","","","","","","","","","","","",""
"html-keyboard-response","205","280194","0.0-5.0-5.0-0.24","697a645e36e6f14eea2b396b","not_provided","desktop","0","0","0","","","","","","working_memory","","null","<div class=""fixation"">+</div>","null","","","","","","","","","","","","","","","","",""
"html-keyboard-response","206","280412","0.0-5.0-5.0-1.24","697a645e36e6f14eea2b396b","not_provided","desktop","0","0","0","","","","","","working_memory","","null","<img class='b' src=images/squares/green.png><img class='d' src=images/squares/black.png><img class='h' src=images/squares/brown.png><img class='l' src=images/squares/cyan.png><div class=""fixation"">+</div>","null","","","memory","exp","24","","","","","","","","","","","",""
"html-keyboard-response","207","281322","0.0-5.0-5.0-2.24","697a645e36e6f14eea2b396b","not_provided","desktop","0","0","0","","","","","","working_memory","","null","<div class=""fixation"">+</div>","null","","","","","","","","","","","","","","","","",""
"html-keyboard-response","208","282578","0.0-5.0-5.0-3.24","697a645e36e6f14eea2b396b","not_provided","desktop","0","0","0","","","","","","working_memory","","1256","<img class='d' src=images/squares/black.png><div class=""fixation"">+</div>","k","","","test_squares","exp","24","4","k","true","ks","s","","","","","","",""
"html-keyboard-response","209","283086","0.0-5.0-5.0-4.24","697a645e36e6f14eea2b396b","not_provided","desktop","0","0","0","","","","","","working_memory","","null","<div class=""fixation"">Correct</div>","null","","","","","","","","","","","","","","","","",""
"html-keyboard-response","210","284099","0.0-5.0-5.0-0.25","697a645e36e6f14eea2b396b","not_provided","desktop","0","0","0","","","","","","working_memory","","null","<div class=""fixation"">+</div>","null","","","","","","","","","","","","","","","","",""
"html-keyboard-response","211","284300","0.0-5.0-5.0-1.25","697a645e36e6f14eea2b396b","not_provided","desktop","0","0","0","","","","","","working_memory","","null","<img class='c' src=images/squares/blue.png><img class='f' src=images/squares/yellow.png><img class='i' src=images/squares/magenta.png><img class='l' src=images/squares/red.png><div class=""fixation"">+</div>","null","","","memory","exp","25","","","","","","","","","","","",""
"html-keyboard-response","212","285213","0.0-5.0-5.0-2.25","697a645e36e6f14eea2b396b","not_provided","desktop","0","0","0","","","","","","working_memory","","null","<div class=""fixation"">+</div>","null","","","","","","","","","","","","","","","","",""
"html-keyboard-response","213","286496","0.0-5.0-5.0-3.25","697a645e36e6f14eea2b396b","not_provided","desktop","0","0","0","","","","","","working_memory","","1283","<img class='c' src=images/squares/black.png><div class=""fixation"">+</div>","s","","","test_squares","exp","25","4","s","true","ks","d","","","","","","",""
"html-keyboard-response","214","287005","0.0-5.0-5.0-4.25","697a645e36e6f14eea2b396b","not_provided","desktop","0","0","0","","","","","","working_memory","","null","<div class=""fixation"">Correct</div>","null","","","","","","","","","","","","","","","","",""
"html-keyboard-response","215","288009","0.0-5.0-5.0-0.26","697a645e36e6f14eea2b396b","not_provided","desktop","0","0","0","","","","","","working_memory","","null","<div class=""fixation"">+</div>","null","","","","","","","","","","","","","","","","",""
"html-keyboard-response","216","288221","0.0-5.0-5.0-1.26","697a645e36e6f14eea2b396b","not_provided","desktop","0","0","0","","","","","","working_memory","","null","<img class='a' src=images/squares/magenta.png><img class='c' src=images/squares/orange.png><img class='e' src=images/squares/brown.png><img class='d' src=images/squares/blue.png><img class='i' src=images/squares/black.png><img class='g' src=images/squares/green.png><img class='l' src=images/squares/red.png><img class='k' src=images/squares/cyan.png><div class=""fixation"">+</div>","null","","","memory","exp","26","","","","","","","","","","","",""
"html-keyboard-response","217","289122","0.0-5.0-5.0-2.26","697a645e36e6f14eea2b396b","not_provided","desktop","0","0","0","","","","","","working_memory","","null","<div class=""fixation"">+</div>","null","","","","","","","","","","","","","","","","",""
"html-keyboard-response","218","290103","0.0-5.0-5.0-3.26","697a645e36e6f14eea2b396b","not_provided","desktop","0","0","0","","","","","","working_memory","","980","<img class='e' src=images/squares/yellow.png><div class=""fixation"">+</div>","s","","","test_squares","exp","26","8","s","true","ks","d","","","","","","",""
"html-keyboard-response","219","290611","0.0-5.0-5.0-4.26","697a645e36e6f14eea2b396b","not_provided","desktop","0","0","0","","","","","","working_memory","","null","<div class=""fixation"">Correct</div>","null","","","","","","","","","","","","","","","","",""
"html-keyboard-response","220","291611","0.0-5.0-5.0-0.27","697a645e36e6f14eea2b396b","not_provided","desktop","0","0","0","","","","","","working_memory","","null","<div class=""fixation"">+</div>","null","","","","","","","","","","","","","","","","",""
"html-keyboard-response","221","291825","0.0-5.0-5.0-1.27","697a645e36e6f14eea2b396b","not_provided","desktop","0","0","0","","","","","","working_memory","","null","<img class='b' src=images/squares/red.png><img class='c' src=images/squares/magenta.png><img class='f' src=images/squares/blue.png><img class='d' src=images/squares/cyan.png><img class='g' src=images/squares/orange.png><img class='h' src=images/squares/yellow.png><img class='l' src=images/squares/black.png><img class='k' src=images/squares/brown.png><div class=""fixation"">+</div>","null","","","memory","exp","27","","","","","","","","","","","",""
"html-keyboard-response","222","292727","0.0-5.0-5.0-2.27","697a645e36e6f14eea2b396b","not_provided","desktop","0","0","0","","","","","","working_memory","","null","<div class=""fixation"">+</div>","null","","","","","","","","","","","","","","","","",""
"html-keyboard-response","223","293467","0.0-5.0-5.0-3.27","697a645e36e6f14eea2b396b","not_provided","desktop","0","0","0","","","","","","working_memory","","739","<img class='g' src=images/squares/orange.png><div class=""fixation"">+</div>","s","","","test_squares","exp","27","8","k","false","ks","s","","","","","","",""
"html-keyboard-response","224","293973","0.0-5.0-5.0-4.27","697a645e36e6f14eea2b396b","not_provided","desktop","0","0","0","","","","","","working_memory","","null","<div class=""fixation"">Incorrect</div>","null","","","","","","","","","","","","","","","","",""
"html-keyboard-response","225","294989","0.0-5.0-5.0-0.28","697a645e36e6f14eea2b396b","not_provided","desktop","0","0","0","","","","","","working_memory","","null","<div class=""fixation"">+</div>","null","","","","","","","","","","","","","","","","",""
"html-keyboard-response","226","295193","0.0-5.0-5.0-1.28","697a645e36e6f14eea2b396b","not_provided","desktop","0","0","0","","","","","","working_memory","","null","<img class='a' src=images/squares/black.png><img class='d' src=images/squares/green.png><img class='g' src=images/squares/magenta.png><img class='k' src=images/squares/brown.png><div class=""fixation"">+</div>","null","","","memory","exp","28","","","","","","","","","","","",""
"html-keyboard-response","227","296097","0.0-5.0-5.0-2.28","697a645e36e6f14eea2b396b","not_provided","desktop","0","0","0","","","","","","working_memory","","null","<div class=""fixation"">+</div>","null","","","","","","","","","","","","","","","","",""
"html-keyboard-response","228","296527","0.0-5.0-5.0-3.28","697a645e36e6f14eea2b396b","not_provided","desktop","0","0","0","","","","","","working_memory","","430","<img class='a' src=images/squares/black.png><div class=""fixation"">+</div>","k","","","test_squares","exp","28","4","k","true","ks","s","","","","","","",""
"html-keyboard-response","229","297036","0.0-5.0-5.0-4.28","697a645e36e6f14eea2b396b","not_provided","desktop","0","0","0","","","","","","working_memory","","null","<div class=""fixation"">Correct</div>","null","","","","","","","","","","","","","","","","",""
"html-keyboard-response","230","298050","0.0-5.0-5.0-0.29","697a645e36e6f14eea2b396b","not_provided","desktop","0","0","0","","","","","","working_memory","","null","<div class=""fixation"">+</div>","null","","","","","","","","","","","","","","","","",""
"html-keyboard-response","231","298263","0.0-5.0-5.0-1.29","697a645e36e6f14eea2b396b","not_provided","desktop","0","0","0","","","","","","working_memory","","null","<img class='c' src=images/squares/yellow.png><img class='a' src=images/squares/black.png><img class='f' src=images/squares/orange.png><img class='e' src=images/squares/red.png><img class='g' src=images/squares/green.png><img class='i' src=images/squares/cyan.png><img class='j' src=images/squares/magenta.png><img class='l' src=images/squares/blue.png><div class=""fixation"">+</div>","null","","","memory","exp","29","","","","","","","","","","","",""
"html-keyboard-response","232","299167","0.0-5.0-5.0-2.29","697a645e36e6f14eea2b396b","not_provided","desktop","0","0","0","","","","","","working_memory","","null","<div class=""fixation"">+</div>","null","","","","","","","","","","","","","","","","",""
"html-keyboard-response","233","300114","0.0-5.0-5.0-3.29","697a645e36e6f14eea2b396b","not_provided","desktop","0","0","0","","","","","","working_memory","","947","<img class='l' src=images/squares/brown.png><div class=""fixation"">+</div>","s","","","test_squares","exp","29","8","s","true","ks","d","","","","","","",""
"html-keyboard-response","234","300622","0.0-5.0-5.0-4.29","697a645e36e6f14eea2b396b","not_provided","desktop","0","0","0","","","","","","working_memory","","null","<div class=""fixation"">Correct</div>","null","","","","","","","","","","","","","","","","",""
"html-keyboard-response","235","301626","0.0-5.0-5.0-0.30","697a645e36e6f14eea2b396b","not_provided","desktop","0","0","0","","","","","","working_memory","","null","<div class=""fixation"">+</div>","null","","","","","","","","","","","","","","","","",""
"html-keyboard-response","236","301834","0.0-5.0-5.0-1.30","697a645e36e6f14eea2b396b","not_provided","desktop","0","0","0","","","","","","working_memory","","null","<img class='c' src=images/squares/black.png><img class='a' src=images/squares/blue.png><img class='e' src=images/squares/cyan.png><img class='d' src=images/squares/brown.png><img class='g' src=images/squares/magenta.png><img class='i' src=images/squares/red.png><img class='l' src=images/squares/green.png><img class='k' src=images/squares/yellow.png><div class=""fixation"">+</div>","null","","","memory","exp","30","","","","","","","","","","","",""
"html-keyboard-response","237","302746","0.0-5.0-5.0-2.30","697a645e36e6f14eea2b396b","not_provided","desktop","0","0","0","","","","","","working_memory","","null","<div class=""fixation"">+</div>","null","","","","","","","","","","","","","","","","",""
"html-keyboard-response","238","303470","0.0-5.0-5.0-3.30","697a645e36e6f14eea2b396b","not_provided","desktop","0","0","0","","","","","","working_memory","","723","<img class='l' src=images/squares/orange.png><div class=""fixation"">+</div>","s","","","test_squares","exp","30","8","s","true","ks","d","","","","","","",""
"html-keyboard-response","239","303976","0.0-5.0-5.0-4.30","697a645e36e6f14eea2b396b","not_provided","desktop","0","0","0","","","","","","working_memory","","null","<div class=""fixation"">Correct</div>","null","","","","","","","","","","","","","","","","",""
"html-keyboard-response","240","304986","0.0-5.0-5.0-0.31","697a645e36e6f14eea2b396b","not_provided","desktop","0","0","0","","","","","","working_memory","","null","<div class=""fixation"">+</div>","null","","","","","","","","","","","","","","","","",""
"html-keyboard-response","241","305187","0.0-5.0-5.0-1.31","697a645e36e6f14eea2b396b","not_provided","desktop","0","0","0","","","","","","working_memory","","null","<img class='b' src=images/squares/blue.png><img class='d' src=images/squares/green.png><img class='h' src=images/squares/brown.png><img class='j' src=images/squares/yellow.png><div class=""fixation"">+</div>","null","","","memory","exp","31","","","","","","","","","","","",""
"html-keyboard-response","242","306095","0.0-5.0-5.0-2.31","697a645e36e6f14eea2b396b","not_provided","desktop","0","0","0","","","","","","working_memory","","null","<div class=""fixation"">+</div>","null","","","","","","","","","","","","","","","","",""
"html-keyboard-response","243","307415","0.0-5.0-5.0-3.31","697a645e36e6f14eea2b396b","not_provided","desktop","0","0","0","","","","","","working_memory","","1320","<img class='h' src=images/squares/red.png><div class=""fixation"">+</div>","s","","","test_squares","exp","31","4","s","true","ks","d","","","","","","",""
"html-keyboard-response","244","307927","0.0-5.0-5.0-4.31","697a645e36e6f14eea2b396b","not_provided","desktop","0","0","0","","","","","","working_memory","","null","<div class=""fixation"">Correct</div>","null","","","","","","","","","","","","","","","","",""
"html-keyboard-response","245","308937","0.0-5.0-5.0-0.32","697a645e36e6f14eea2b396b","not_provided","desktop","0","0","0","","","","","","working_memory","","null","<div class=""fixation"">+</div>","null","","","","","","","","","","","","","","","","",""
"html-keyboard-response","246","309142","0.0-5.0-5.0-1.32","697a645e36e6f14eea2b396b","not_provided","desktop","0","0","0","","","","","","working_memory","","null","<img class='c' src=images/squares/black.png><img class='a' src=images/squares/blue.png><img class='e' src=images/squares/magenta.png><img class='f' src=images/squares/cyan.png><img class='g' src=images/squares/brown.png><img class='h' src=images/squares/red.png><img class='j' src=images/squares/yellow.png><img class='l' src=images/squares/orange.png><div class=""fixation"">+</div>","null","","","memory","exp","32","","","","","","","","","","","",""
"html-keyboard-response","247","310053","0.0-5.0-5.0-2.32","697a645e36e6f14eea2b396b","not_provided","desktop","0","0","0","","","","","","working_memory","","null","<div class=""fixation"">+</div>","null","","","","","","","","","","","","","","","","",""
"html-keyboard-response","248","311109","0.0-5.0-5.0-3.32","697a645e36e6f14eea2b396b","not_provided","desktop","0","0","0","","","","","","working_memory","","1056","<img class='a' src=images/squares/green.png><div class=""fixation"">+</div>","s","","","test_squares","exp","32","8","s","true","ks","d","","","","","","",""
"html-keyboard-response","249","311618","0.0-5.0-5.0-4.32","697a645e36e6f14eea2b396b","not_provided","desktop","0","0","0","","","","","","working_memory","","null","<div class=""fixation"">Correct</div>","null","","","","","","","","","","","","","","","","",""
"html-keyboard-response","250","312627","0.0-5.0-5.0-0.33","697a645e36e6f14eea2b396b","not_provided","desktop","0","0","0","","","","","","working_memory","","null","<div class=""fixation"">+</div>","null","","","","","","","","","","","","","","","","",""
"html-keyboard-response","251","312844","0.0-5.0-5.0-1.33","697a645e36e6f14eea2b396b","not_provided","desktop","0","0","0","","","","","","working_memory","","null","<img class='c' src=images/squares/black.png><img class='a' src=images/squares/orange.png><img class='f' src=images/squares/red.png><img class='e' src=images/squares/green.png><img class='g' src=images/squares/brown.png><img class='h' src=images/squares/yellow.png><img class='j' src=images/squares/magenta.png><img class='l' src=images/squares/blue.png><div class=""fixation"">+</div>","null","","","memory","exp","33","","","","","","","","","","","",""
"html-keyboard-response","252","313750","0.0-5.0-5.0-2.33","697a645e36e6f14eea2b396b","not_provided","desktop","0","0","0","","","","","","working_memory","","null","<div class=""fixation"">+</div>","null","","","","","","","","","","","","","","","","",""
"html-keyboard-response","253","314573","0.0-5.0-5.0-3.33","697a645e36e6f14eea2b396b","not_provided","desktop","0","0","0","","","","","","working_memory","","822","<img class='h' src=images/squares/yellow.png><div class=""fixation"">+</div>","k","","","test_squares","exp","33","8","k","true","ks","s","","","","","","",""
"html-keyboard-response","254","315074","0.0-5.0-5.0-4.33","697a645e36e6f14eea2b396b","not_provided","desktop","0","0","0","","","","","","working_memory","","null","<div class=""fixation"">Correct</div>","null","","","","","","","","","","","","","","","","",""
"html-keyboard-response","255","316089","0.0-5.0-5.0-0.34","697a645e36e6f14eea2b396b","not_provided","desktop","0","0","0","","","","","","working_memory","","null","<div class=""fixation"">+</div>","null","","","","","","","","","","","","","","","","",""
"html-keyboard-response","256","316299","0.0-5.0-5.0-1.34","697a645e36e6f14eea2b396b","not_provided","desktop","0","0","0","","","","","","working_memory","","null","<img class='a' src=images/squares/black.png><img class='b' src=images/squares/magenta.png><img class='d' src=images/squares/orange.png><img class='e' src=images/squares/green.png><img class='i' src=images/squares/red.png><img class='g' src=images/squares/blue.png><img class='l' src=images/squares/cyan.png><img class='k' src=images/squares/yellow.png><div class=""fixation"">+</div>","null","","","memory","exp","34","","","","","","","","","","","",""
"html-keyboard-response","257","317216","0.0-5.0-5.0-2.34","697a645e36e6f14eea2b396b","not_provided","desktop","0","0","0","","","","","","working_memory","","null","<div class=""fixation"">+</div>","null","","","","","","","","","","","","","","","","",""
"html-keyboard-response","258","317776","0.0-5.0-5.0-3.34","697a645e36e6f14eea2b396b","not_provided","desktop","0","0","0","","","","","","working_memory","","560","<img class='k' src=images/squares/yellow.png><div class=""fixation"">+</div>","k","","","test_squares","exp","34","8","k","true","ks","s","","","","","","",""
"html-keyboard-response","259","318279","0.0-5.0-5.0-4.34","697a645e36e6f14eea2b396b","not_provided","desktop","0","0","0","","","","","","working_memory","","null","<div class=""fixation"">Correct</div>","null","","","","","","","","","","","","","","","","",""
"html-keyboard-response","260","319292","0.0-5.0-5.0-0.35","697a645e36e6f14eea2b396b","not_provided","desktop","0","0","0","","","","","","working_memory","","null","<div class=""fixation"">+</div>","null","","","","","","","","","","","","","","","","",""
"html-keyboard-response","261","319501","0.0-5.0-5.0-1.35","697a645e36e6f14eea2b396b","not_provided","desktop","0","0","0","","","","","","working_memory","","null","<img class='b' src=images/squares/black.png><img class='c' src=images/squares/cyan.png><img class='e' src=images/squares/green.png><img class='d' src=images/squares/yellow.png><img class='h' src=images/squares/blue.png><img class='g' src=images/squares/magenta.png><img class='k' src=images/squares/red.png><img class='j' src=images/squares/brown.png><div class=""fixation"">+</div>","null","","","memory","exp","35","","","","","","","","","","","",""
"html-keyboard-response","262","320404","0.0-5.0-5.0-2.35","697a645e36e6f14eea2b396b","not_provided","desktop","0","0","0","","","","","","working_memory","","null","<div class=""fixation"">+</div>","null","","","","","","","","","","","","","","","","",""
"html-keyboard-response","263","321024","0.0-5.0-5.0-3.35","697a645e36e6f14eea2b396b","not_provided","desktop","0","0","0","","","","","","working_memory","","620","<img class='d' src=images/squares/yellow.png><div class=""fixation"">+</div>","k","","","test_squares","exp","35","8","k","true","ks","s","","","","","","",""
"html-keyboard-response","264","321524","0.0-5.0-5.0-4.35","697a645e36e6f14eea2b396b","not_provided","desktop","0","0","0","","","","","","working_memory","","null","<div class=""fixation"">Correct</div>","null","","","","","","","","","","","","","","","","",""
"html-keyboard-response","265","322527","0.0-5.0-5.0-0.36","697a645e36e6f14eea2b396b","not_provided","desktop","0","0","0","","","","","","working_memory","","null","<div class=""fixation"">+</div>","null","","","","","","","","","","","","","","","","",""
"html-keyboard-response","266","322738","0.0-5.0-5.0-1.36","697a645e36e6f14eea2b396b","not_provided","desktop","0","0","0","","","","","","working_memory","","null","<img class='b' src=images/squares/orange.png><img class='c' src=images/squares/yellow.png><img class='e' src=images/squares/magenta.png><img class='d' src=images/squares/green.png><img class='h' src=images/squares/blue.png><img class='g' src=images/squares/cyan.png><img class='l' src=images/squares/black.png><img class='j' src=images/squares/brown.png><div class=""fixation"">+</div>","null","","","memory","exp","36","","","","","","","","","","","",""
"html-keyboard-response","267","323641","0.0-5.0-5.0-2.36","697a645e36e6f14eea2b396b","not_provided","desktop","0","0","0","","","","","","working_memory","","null","<div class=""fixation"">+</div>","null","","","","","","","","","","","","","","","","",""
"html-keyboard-response","268","324585","0.0-5.0-5.0-3.36","697a645e36e6f14eea2b396b","not_provided","desktop","0","0","0","","","","","","working_memory","","943","<img class='g' src=images/squares/cyan.png><div class=""fixation"">+</div>","s","","","test_squares","exp","36","8","k","false","ks","s","","","","","","",""
"html-keyboard-response","269","325097","0.0-5.0-5.0-4.36","697a645e36e6f14eea2b396b","not_provided","desktop","0","0","0","","","","","","working_memory","","null","<div class=""fixation"">Incorrect</div>","null","","","","","","","","","","","","","","","","",""
"html-keyboard-response","270","326108","0.0-5.0-5.0-0.37","697a645e36e6f14eea2b396b","not_provided","desktop","0","0","0","","","","","","working_memory","","null","<div class=""fixation"">+</div>","null","","","","","","","","","","","","","","","","",""
"html-keyboard-response","271","326323","0.0-5.0-5.0-1.37","697a645e36e6f14eea2b396b","not_provided","desktop","0","0","0","","","","","","working_memory","","null","<img class='c' src=images/squares/red.png><img class='a' src=images/squares/green.png><img class='d' src=images/squares/brown.png><img class='f' src=images/squares/blue.png><img class='i' src=images/squares/cyan.png><img class='g' src=images/squares/orange.png><img class='k' src=images/squares/yellow.png><img class='j' src=images/squares/magenta.png><div class=""fixation"">+</div>","null","","","memory","exp","37","","","","","","","","","","","",""
"html-keyboard-response","272","327231","0.0-5.0-5.0-2.37","697a645e36e6f14eea2b396b","not_provided","desktop","0","0","0","","","","","","working_memory","","null","<div class=""fixation"">+</div>","null","","","","","","","","","","","","","","","","",""
"html-keyboard-response","273","328163","0.0-5.0-5.0-3.37","697a645e36e6f14eea2b396b","not_provided","desktop","0","0","0","","","","","","working_memory","","931","<img class='c' src=images/squares/red.png><div class=""fixation"">+</div>","s","","","test_squares","exp","37","8","k","false","ks","s","","","","","","",""
"html-keyboard-response","274","328665","0.0-5.0-5.0-4.37","697a645e36e6f14eea2b396b","not_provided","desktop","0","0","0","","","","","","working_memory","","null","<div class=""fixation"">Incorrect</div>","null","","","","","","","","","","","","","","","","",""
"html-keyboard-response","275","329678","0.0-5.0-5.0-0.38","697a645e36e6f14eea2b396b","not_provided","desktop","0","0","0","","","","","","working_memory","","null","<div class=""fixation"">+</div>","null","","","","","","","","","","","","","","","","",""
"html-keyboard-response","276","329879","0.0-5.0-5.0-1.38","697a645e36e6f14eea2b396b","not_provided","desktop","0","0","0","","","","","","working_memory","","null","<img class='a' src=images/squares/brown.png><img class='d' src=images/squares/red.png><img class='i' src=images/squares/black.png><img class='k' src=images/squares/yellow.png><div class=""fixation"">+</div>","null","","","memory","exp","38","","","","","","","","","","","",""
"html-keyboard-response","277","330792","0.0-5.0-5.0-2.38","697a645e36e6f14eea2b396b","not_provided","desktop","0","0","0","","","","","","working_memory","","null","<div class=""fixation"">+</div>","null","","","","","","","","","","","","","","","","",""
"html-keyboard-response","278","331501","0.0-5.0-5.0-3.38","697a645e36e6f14eea2b396b","not_provided","desktop","0","0","0","","","","","","working_memory","","708","<img class='k' src=images/squares/yellow.png><div class=""fixation"">+</div>","k","","","test_squares","exp","38","4","k","true","ks","s","","","","","","",""
"html-keyboard-response","279","332002","0.0-5.0-5.0-4.38","697a645e36e6f14eea2b396b","not_provided","desktop","0","0","0","","","","","","working_memory","","null","<div class=""fixation"">Correct</div>","null","","","","","","","","","","","","","","","","",""
"html-keyboard-response","280","333002","0.0-5.0-5.0-0.39","697a645e36e6f14eea2b396b","not_provided","desktop","0","0","0","","","","","","working_memory","","null","<div class=""fixation"">+</div>","null","","","","","","","","","","","","","","","","",""
"html-keyboard-response","281","333215","0.0-5.0-5.0-1.39","697a645e36e6f14eea2b396b","not_provided","desktop","0","0","0","","","","","","working_memory","","null","<img class='b' src=images/squares/green.png><img class='d' src=images/squares/orange.png><img class='i' src=images/squares/blue.png><img class='k' src=images/squares/yellow.png><div class=""fixation"">+</div>","null","","","memory","exp","39","","","","","","","","","","","",""
"html-keyboard-response","282","334118","0.0-5.0-5.0-2.39","697a645e36e6f14eea2b396b","not_provided","desktop","0","0","0","","","","","","working_memory","","null","<div class=""fixation"">+</div>","null","","","","","","","","","","","","","","","","",""
"html-keyboard-response","283","335043","0.0-5.0-5.0-3.39","697a645e36e6f14eea2b396b","not_provided","desktop","0","0","0","","","","","","working_memory","","925","<img class='i' src=images/squares/blue.png><div class=""fixation"">+</div>","s","","","test_squares","exp","39","4","k","false","ks","s","","","","","","",""
"html-keyboard-response","284","335553","0.0-5.0-5.0-4.39","697a645e36e6f14eea2b396b","not_provided","desktop","0","0","0","","","","","","working_memory","","null","<div class=""fixation"">Incorrect</div>","null","","","","","","","","","","","","","","","","",""
"html-keyboard-response","285","336561","0.0-5.0-5.0-0.40","697a645e36e6f14eea2b396b","not_provided","desktop","0","0","0","","","","","","working_memory","","null","<div class=""fixation"">+</div>","null","","","","","","","","","","","","","","","","",""
"html-keyboard-response","286","336770","0.0-5.0-5.0-1.40","697a645e36e6f14eea2b396b","not_provided","desktop","0","0","0","","","","","","working_memory","","null","<img class='c' src=images/squares/green.png><img class='b' src=images/squares/brown.png><img class='d' src=images/squares/blue.png><img class='e' src=images/squares/orange.png><img class='g' src=images/squares/magenta.png><img class='i' src=images/squares/yellow.png><img class='k' src=images/squares/black.png><img class='l' src=images/squares/cyan.png><div class=""fixation"">+</div>","null","","","memory","exp","40","","","","","","","","","","","",""
"html-keyboard-response","287","337677","0.0-5.0-5.0-2.40","697a645e36e6f14eea2b396b","not_provided","desktop","0","0","0","","","","","","working_memory","","null","<div class=""fixation"">+</div>","null","","","","","","","","","","","","","","","","",""
"html-keyboard-response","288","338363","0.0-5.0-5.0-3.40","697a645e36e6f14eea2b396b","not_provided","desktop","0","0","0","","","","","","working_memory","","685","<img class='l' src=images/squares/red.png><div class=""fixation"">+</div>","s","","","test_squares","exp","40","8","s","true","ks","d","","","","","","",""
"html-keyboard-response","289","338876","0.0-5.0-5.0-4.40","697a645e36e6f14eea2b396b","not_provided","desktop","0","0","0","","","","","","working_memory","","null","<div class=""fixation"">Correct</div>","null","","","","","","","","","","","","","","","","",""
"html-keyboard-response","290","339881","0.0-5.0-5.0-0.41","697a645e36e6f14eea2b396b","not_provided","desktop","0","0","0","","","","","","working_memory","","null","<div class=""fixation"">+</div>","null","","","","","","","","","","","","","","","","",""
"html-keyboard-response","291","340089","0.0-5.0-5.0-1.41","697a645e36e6f14eea2b396b","not_provided","desktop","0","0","0","","","","","","working_memory","","null","<img class='c' src=images/squares/brown.png><img class='a' src=images/squares/yellow.png><img class='e' src=images/squares/magenta.png><img class='f' src=images/squares/green.png><img class='i' src=images/squares/black.png><img class='h' src=images/squares/red.png><img class='k' src=images/squares/cyan.png><img class='l' src=images/squares/blue.png><div class=""fixation"">+</div>","null","","","memory","exp","41","","","","","","","","","","","",""
"html-keyboard-response","292","340995","0.0-5.0-5.0-2.41","697a645e36e6f14eea2b396b","not_provided","desktop","0","0","0","","","","","","working_memory","","null","<div class=""fixation"">+</div>","null","","","","","","","","","","","","","","","","",""
"html-keyboard-response","293","341735","0.0-5.0-5.0-3.41","697a645e36e6f14eea2b396b","not_provided","desktop","0","0","0","","","","","","working_memory","","740","<img class='k' src=images/squares/orange.png><div class=""fixation"">+</div>","s","","","test_squares","exp","41","8","s","true","ks","d","","","","","","",""
"html-keyboard-response","294","342251","0.0-5.0-5.0-4.41","697a645e36e6f14eea2b396b","not_provided","desktop","0","0","0","","","","","","working_memory","","null","<div class=""fixation"">Correct</div>","null","","","","","","","","","","","","","","","","",""
"html-keyboard-response","295","343252","0.0-5.0-5.0-0.42","697a645e36e6f14eea2b396b","not_provided","desktop","0","0","0","","","","","","working_memory","","null","<div class=""fixation"">+</div>","null","","","","","","","","","","","","","","","","",""
"html-keyboard-response","296","343462","0.0-5.0-5.0-1.42","697a645e36e6f14eea2b396b","not_provided","desktop","0","0","0","","","","","","working_memory","","null","<img class='b' src=images/squares/orange.png><img class='f' src=images/squares/brown.png><img class='i' src=images/squares/green.png><img class='l' src=images/squares/magenta.png><div class=""fixation"">+</div>","null","","","memory","exp","42","","","","","","","","","","","",""
"html-keyboard-response","297","344379","0.0-5.0-5.0-2.42","697a645e36e6f14eea2b396b","not_provided","desktop","0","0","0","","","","","","working_memory","","null","<div class=""fixation"">+</div>","null","","","","","","","","","","","","","","","","",""
"html-keyboard-response","298","345199","0.0-5.0-5.0-3.42","697a645e36e6f14eea2b396b","not_provided","desktop","0","0","0","","","","","","working_memory","","819","<img class='i' src=images/squares/red.png><div class=""fixation"">+</div>","s","","","test_squares","exp","42","4","s","true","ks","d","","","","","","",""
"html-keyboard-response","299","345700","0.0-5.0-5.0-4.42","697a645e36e6f14eea2b396b","not_provided","desktop","0","0","0","","","","","","working_memory","","null","<div class=""fixation"">Correct</div>","null","","","","","","","","","","","","","","","","",""
"html-keyboard-response","300","346715","0.0-5.0-5.0-0.43","697a645e36e6f14eea2b396b","not_provided","desktop","0","0","0","","","","","","working_memory","","null","<div class=""fixation"">+</div>","null","","","","","","","","","","","","","","","","",""
"html-keyboard-response","301","346930","0.0-5.0-5.0-1.43","697a645e36e6f14eea2b396b","not_provided","desktop","0","0","0","","","","","","working_memory","","null","<img class='c' src=images/squares/cyan.png><img class='a' src=images/squares/red.png><img class='e' src=images/squares/brown.png><img class='d' src=images/squares/green.png><img class='h' src=images/squares/blue.png><img class='i' src=images/squares/orange.png><img class='k' src=images/squares/yellow.png><img class='j' src=images/squares/black.png><div class=""fixation"">+</div>","null","","","memory","exp","43","","","","","","","","","","","",""
"html-keyboard-response","302","347832","0.0-5.0-5.0-2.43","697a645e36e6f14eea2b396b","not_provided","desktop","0","0","0","","","","","","working_memory","","null","<div class=""fixation"">+</div>","null","","","","","","","","","","","","","","","","",""
"html-keyboard-response","303","350254","0.0-5.0-5.0-3.43","697a645e36e6f14eea2b396b","not_provided","desktop","0","0","0","","","","","","working_memory","","2421","<img class='e' src=images/squares/magenta.png><div class=""fixation"">+</div>","s","","","test_squares","exp","43","8","s","true","ks","d","","","","","","",""
"html-keyboard-response","304","350770","0.0-5.0-5.0-4.43","697a645e36e6f14eea2b396b","not_provided","desktop","0","0","0","","","","","","working_memory","","null","<div class=""fixation"">Correct</div>","null","","","","","","","","","","","","","","","","",""
