"trial_type","trial_index","time_elapsed","internal_node_id","subject_id","study_id","device_type","blur_count","fullscreen_exit_count","failed_attention_checks","success","timeout","failed_images","failed_audio","failed_video","phase","value","rt","stimulus","response","view_history","question_order","trial_name","block_type","trial_num","set_size","correct_response","accuracy","mapping","condition","prompt","flipped","attention","expected_answer","category","question_index","task"
"pavlovia","0","2144","0.0-0.0","6981e6c2e26c88d954f297eb","not_provided","desktop","0","0","1","","","","","","","","","","","","","","","","","","","","","","","","","","",""
"preload","1","3289","0.0-2.0","6981e6c2e26c88d954f297eb","not_provided","desktop","0","0","1","true","false","[]","[]","[]","","","","","","","","","","","","","","","","","","","","","",""
"html-keyboard-response","2","13650","0.0-3.0-0.0","6981e6c2e26c88d954f297eb","not_provided","desktop","0","0","1","","","","","","captcha","","","","","","","","","","","","","","","","","","","","",""
"fullscreen","3","21617","0.0-4.0","6981e6c2e26c88d954f297eb","not_provided","desktop","0","0","1","true","","","","","setup","","","","","","","","","","","","","","","","","","","","",""
"call-function","4","21619","0.0-5.0-0.0","6981e6c2e26c88d954f297eb","not_provided","desktop","0","0","1","","","","","","working_memory","","","","","","","","","","","","","","","","","","","","",""
"html-keyboard-response","5","46465","0.0-5.0-1.0","6981e6c2e26c88d954f297eb","not_provided","desktop","0","0","1","","","","","","working_memory","","24844","<div style=""text-align:center;font-family:sans-serif;""><p>Welcome to the luck game experiment!</p><p>This two-day experiment takes part in a study aimed at developing better clinical treatments.</p><p>We appreciate your participation and require your full concentration.</p><br><p>This is a two-day study. Payment (£6/hour) is only given upon completing both parts today and tomorrow.</p><p>You must finish the second part for compensation. After today, you'll receive an invitation for tomorrow's session.</p><p>Please ensure you can attend both sessions before proceeding. Otherwise, you may exit now.</p><p>If you have any questions, please contact us via prolific.</p><br><p>Please stay attentive and in fullscreen mode to ensure payment.</p><p>Thank you for participating!</p><br><p id=""continue-prompt"" style=""visibility:hidden;""><b>Press any key to continue.</b></p></div>"," ","","","","","","","","","","","","","","","","",""
"instructions","6","100135","0.0-5.0-2.0-0.0","6981e6c2e26c88d954f297eb","not_provided","desktop","0","0","1","","","","","","working_memory","","53669","","","[{""page_index"":0,""viewing_time"":2367},{""page_index"":1,""viewing_time"":1476},{""page_index"":2,""viewing_time"":8875},{""page_index"":3,""viewing_time"":2150},{""page_index"":4,""viewing_time"":9443},{""page_index"":5,""viewing_time"":9572},{""page_index"":6,""viewing_time"":13680},{""page_index"":7,""viewing_time"":2790},{""page_index"":8,""viewing_time"":3315}]","","","","","","","","","","","","","","","",""
"survey-multi-choice","7","184614","0.0-5.0-2.0-1.0","6981e6c2e26c88d954f297eb","not_provided","desktop","0","0","1","","","","","","working_memory","","84477","","{""set_size"":""2 or 4"",""steps"":""True"",""choose_square"":""Press the 's' or 'k' key."",""remember"":""The colors and locations of the 'memory' squares"",""task"":""To tell if the 'test' square is in the same color as the square previously appearing in this location""}","","[0,1,2,3,4]","test_squares_quiz","","","","","","","","","","","","","",""
"html-button-response","8","189153","0.0-5.0-2.0-2.0-0.0","6981e6c2e26c88d954f297eb","not_provided","desktop","0","0","1","","","","","","working_memory","","4538","<p>Sorry, you made a mistake on the quiz.<br>Let's go back to the instructions &mdash; please read carefully before submitting again.<br>Thank you!</p>","0","","","","","","","","","","","","","","","","",""
"instructions","9","250488","0.0-5.0-2.1-0.1","6981e6c2e26c88d954f297eb","not_provided","desktop","0","0","1","","","","","","working_memory","","61334","","","[{""page_index"":0,""viewing_time"":1004},{""page_index"":1,""viewing_time"":1073},{""page_index"":2,""viewing_time"":15383},{""page_index"":3,""viewing_time"":2797},{""page_index"":4,""viewing_time"":8445},{""page_index"":5,""viewing_time"":11355},{""page_index"":6,""viewing_time"":15481},{""page_index"":7,""viewing_time"":1933},{""page_index"":6,""viewing_time"":1262},{""page_index"":7,""viewing_time"":1258},{""page_index"":8,""viewing_time"":1343}]","","","","","","","","","","","","","","","",""
"survey-multi-choice","10","310784","0.0-5.0-2.1-1.1","6981e6c2e26c88d954f297eb","not_provided","desktop","0","0","1","","","","","","working_memory","","60294","","{""set_size"":""4 or 8"",""steps"":""True"",""choose_square"":""Press the 's' or 'k' key."",""remember"":""The color and location of the single 'test' square"",""task"":""To tell if the 'test' square is in the same color as the square previously appearing in this location""}","","[0,1,2,3,4]","test_squares_quiz","","","","","","","","","","","","","",""
"html-button-response","11","314053","0.0-5.0-2.1-2.1-0.1","6981e6c2e26c88d954f297eb","not_provided","desktop","0","0","1","","","","","","working_memory","","3267","<p>Sorry, you made a mistake on the quiz.<br>Let's go back to the instructions &mdash; please read carefully before submitting again.<br>Thank you!</p>","0","","","","","","","","","","","","","","","","",""
"instructions","12","350690","0.0-5.0-2.2-0.2","6981e6c2e26c88d954f297eb","not_provided","desktop","0","0","1","","","","","","working_memory","","36637","","","[{""page_index"":0,""viewing_time"":951},{""page_index"":1,""viewing_time"":977},{""page_index"":2,""viewing_time"":3411},{""page_index"":3,""viewing_time"":1987},{""page_index"":4,""viewing_time"":8320},{""page_index"":5,""viewing_time"":6007},{""page_index"":6,""viewing_time"":10907},{""page_index"":7,""viewing_time"":2863},{""page_index"":8,""viewing_time"":1215}]","","","","","","","","","","","","","","","",""
"survey-multi-choice","13","366665","0.0-5.0-2.2-1.2","6981e6c2e26c88d954f297eb","not_provided","desktop","0","0","1","","","","","","working_memory","","15974","","{""set_size"":""4 or 8"",""steps"":""True"",""choose_square"":""Press the 's' or 'k' key."",""remember"":""The color and location of the single 'test' square"",""task"":""To tell if the 'test' square is in the same color as the square previously appearing in this location""}","","[0,1,2,3,4]","test_squares_quiz","","","","","","","","","","","","","",""
"html-button-response","14","367895","0.0-5.0-2.2-2.2-0.2","6981e6c2e26c88d954f297eb","not_provided","desktop","0","0","1","","","","","","working_memory","","1228","<p>Sorry, you made a mistake on the quiz.<br>Let's go back to the instructions &mdash; please read carefully before submitting again.<br>Thank you!</p>","0","","","","","","","","","","","","","","","","",""
"instructions","15","391372","0.0-5.0-2.3-0.3","6981e6c2e26c88d954f297eb","not_provided","desktop","0","0","1","","","","","","working_memory","","23477","","","[{""page_index"":0,""viewing_time"":615},{""page_index"":1,""viewing_time"":450},{""page_index"":2,""viewing_time"":585},{""page_index"":3,""viewing_time"":1651},{""page_index"":4,""viewing_time"":4869},{""page_index"":5,""viewing_time"":1575},{""page_index"":6,""viewing_time"":11453},{""page_index"":7,""viewing_time"":1274},{""page_index"":8,""viewing_time"":1006}]","","","","","","","","","","","","","","","",""
"survey-multi-choice","16","429007","0.0-5.0-2.3-1.3","6981e6c2e26c88d954f297eb","not_provided","desktop","0","0","1","","","","","","working_memory","","37633","","{""set_size"":""4 or 8"",""steps"":""True"",""choose_square"":""Press the 's' or 'k' key."",""remember"":""The plus appearing in the middle of the screen"",""task"":""To tell if the 'test' square is in the same color as the square previously appearing in this location""}","","[0,1,2,3,4]","test_squares_quiz","","","","","","","","","","","","","",""
"html-button-response","17","430711","0.0-5.0-2.3-2.3-0.3","6981e6c2e26c88d954f297eb","not_provided","desktop","0","0","1","","","","","","working_memory","","1702","<p>Sorry, you made a mistake on the quiz.<br>Let's go back to the instructions &mdash; please read carefully before submitting again.<br>Thank you!</p>","0","","","","","","","","","","","","","","","","",""
"instructions","18","461197","0.0-5.0-2.4-0.4","6981e6c2e26c88d954f297eb","not_provided","desktop","0","0","1","","","","","","working_memory","","30485","","","[{""page_index"":0,""viewing_time"":754},{""page_index"":1,""viewing_time"":647},{""page_index"":2,""viewing_time"":1005},{""page_index"":3,""viewing_time"":1328},{""page_index"":4,""viewing_time"":14279},{""page_index"":5,""viewing_time"":2220},{""page_index"":6,""viewing_time"":4149},{""page_index"":7,""viewing_time"":2609},{""page_index"":8,""viewing_time"":3495}]","","","","","","","","","","","","","","","",""
"survey-multi-choice","19","530628","0.0-5.0-2.4-1.4","6981e6c2e26c88d954f297eb","not_provided","desktop","0","0","1","","","","","","working_memory","","69429","","{""set_size"":""4 or 8"",""steps"":""True"",""choose_square"":""Press the 's' or 'k' key."",""remember"":""The colors and locations of the 'memory' squares"",""task"":""To tell if the 'test' square is in the same color as the square previously appearing in this location""}","","[0,1,2,3,4]","test_squares_quiz","","","","","","","","","","","","","",""
"html-keyboard-response","20","544293","0.0-5.0-3.0-0.0","6981e6c2e26c88d954f297eb","not_provided","desktop","0","0","1","","","","","","working_memory","","13663","<p>We will now start some practice trials.<br><b>The practice trials will also include some trials in which you will need to remember only one square to make sure you understood the instructions.</b><br>You may already want to be ready with your fingers on '<b>s</b>' and '<b>k</b>'.<br><img class=""wm-example-img"" src=""images/examples/keyboard.png""><br><b style=""font-size:1.2em;"">&lsquo;S&rsquo; = SAME &nbsp;&nbsp;&nbsp; &lsquo;K&rsquo; = DIFFERENT</b><br><br><u>Please try to be as accurate as possible.</u><br><br><b>Press any key to begin</b></p>","k","","","","","","","","","","","","","","","","",""
"html-keyboard-response","21","546310","0.0-5.0-3.0-1.0-0.0","6981e6c2e26c88d954f297eb","not_provided","desktop","0","0","1","","","","","","working_memory","","null","<div class=""fixation"">+</div>","null","","","","","","","","","","","","","","","","",""
"html-keyboard-response","22","546523","0.0-5.0-3.0-1.0-1.0","6981e6c2e26c88d954f297eb","not_provided","desktop","0","0","1","","","","","","working_memory","","null","<img class='upper3' src=images/squares/black.png><div class=""fixation"">+</div>","null","","","memory","practice","0","1","","","","","","","","","","",""
"html-keyboard-response","23","547431","0.0-5.0-3.0-1.0-2.0","6981e6c2e26c88d954f297eb","not_provided","desktop","0","0","1","","","","","","working_memory","","null","<div class=""fixation"">+</div>","null","","","","","","","","","","","","","","","","",""
"html-keyboard-response","24","548816","0.0-5.0-3.0-1.0-3.0","6981e6c2e26c88d954f297eb","not_provided","desktop","0","0","1","","","","","","working_memory","","1384","<img class='upper3' src=images/squares/red.png><div class=""fixation"">+</div>","k","","","test","practice","0","1","k","true","","","","","","","","",""
"html-keyboard-response","25","549317","0.0-5.0-3.0-1.0-4.0","6981e6c2e26c88d954f297eb","not_provided","desktop","0","0","1","","","","","","working_memory","","null","<div class=""fixation"">Correct</div>","null","","","","","","","","","","","","","","","","",""
"html-keyboard-response","26","550326","0.0-5.0-3.0-1.0-0.1","6981e6c2e26c88d954f297eb","not_provided","desktop","0","0","1","","","","","","working_memory","","null","<div class=""fixation"">+</div>","null","","","","","","","","","","","","","","","","",""
"html-keyboard-response","27","550528","0.0-5.0-3.0-1.0-1.1","6981e6c2e26c88d954f297eb","not_provided","desktop","0","0","1","","","","","","working_memory","","null","<img class='upper2' src=images/squares/red.png><div class=""fixation"">+</div>","null","","","memory","practice","1","1","","","","","","","","","","",""
"html-keyboard-response","28","551433","0.0-5.0-3.0-1.0-2.1","6981e6c2e26c88d954f297eb","not_provided","desktop","0","0","1","","","","","","working_memory","","null","<div class=""fixation"">+</div>","null","","","","","","","","","","","","","","","","",""
"html-keyboard-response","29","552017","0.0-5.0-3.0-1.0-3.1","6981e6c2e26c88d954f297eb","not_provided","desktop","0","0","1","","","","","","working_memory","","583","<img class='upper2' src=images/squares/blue.png><div class=""fixation"">+</div>","k","","","test","practice","1","1","k","true","","","","","","","","",""
"html-keyboard-response","30","552529","0.0-5.0-3.0-1.0-4.1","6981e6c2e26c88d954f297eb","not_provided","desktop","0","0","1","","","","","","working_memory","","null","<div class=""fixation"">Correct</div>","null","","","","","","","","","","","","","","","","",""
"html-keyboard-response","31","553542","0.0-5.0-3.0-1.0-0.2","6981e6c2e26c88d954f297eb","not_provided","desktop","0","0","1","","","","","","working_memory","","null","<div class=""fixation"">+</div>","null","","","","","","","","","","","","","","","","",""
"html-keyboard-response","32","553744","0.0-5.0-3.0-1.0-1.2","6981e6c2e26c88d954f297eb","not_provided","desktop","0","0","1","","","","","","working_memory","","null","<img class='b' src=images/squares/green.png><img class='d' src=images/squares/red.png><img class='h' src=images/squares/orange.png><img class='l' src=images/squares/black.png><div class=""fixation"">+</div>","null","","","memory","practice","2","4","","","","","","","","","","",""
"html-keyboard-response","33","554651","0.0-5.0-3.0-1.0-2.2","6981e6c2e26c88d954f297eb","not_provided","desktop","0","0","1","","","","","","working_memory","","null","<div class=""fixation"">+</div>","null","","","","","","","","","","","","","","","","",""
"html-keyboard-response","34","555292","0.0-5.0-3.0-1.0-3.2","6981e6c2e26c88d954f297eb","not_provided","desktop","0","0","1","","","","","","working_memory","","640","<img class='d' src=images/squares/yellow.png><div class=""fixation"">+</div>","k","","","test","practice","2","4","k","true","","","","","","","","",""
"html-keyboard-response","35","555795","0.0-5.0-3.0-1.0-4.2","6981e6c2e26c88d954f297eb","not_provided","desktop","0","0","1","","","","","","working_memory","","null","<div class=""fixation"">Correct</div>","null","","","","","","","","","","","","","","","","",""
"html-keyboard-response","36","556811","0.0-5.0-3.0-1.0-0.3","6981e6c2e26c88d954f297eb","not_provided","desktop","0","0","1","","","","","","working_memory","","null","<div class=""fixation"">+</div>","null","","","","","","","","","","","","","","","","",""
"html-keyboard-response","37","557014","0.0-5.0-3.0-1.0-1.3","6981e6c2e26c88d954f297eb","not_provided","desktop","0","0","1","","","","","","working_memory","","null","<img class='upper3' src=images/squares/blue.png><div class=""fixation"">+</div>","null","","","memory","practice","3","1","","","","","","","","","","",""
"html-keyboard-response","38","557923","0.0-5.0-3.0-1.0-2.3","6981e6c2e26c88d954f297eb","not_provided","desktop","0","0","1","","","","","","working_memory","","null","<div class=""fixation"">+</div>","null","","","","","","","","","","","","","","","","",""
"html-keyboard-response","39","558529","0.0-5.0-3.0-1.0-3.3","6981e6c2e26c88d954f297eb","not_provided","desktop","0","0","1","","","","","","working_memory","","605","<img class='upper3' src=images/squares/blue.png><div class=""fixation"">+</div>","s","","","test","practice","3","1","s","true","","","","","","","","",""
"html-keyboard-response","40","559041","0.0-5.0-3.0-1.0-4.3","6981e6c2e26c88d954f297eb","not_provided","desktop","0","0","1","","","","","","working_memory","","null","<div class=""fixation"">Correct</div>","null","","","","","","","","","","","","","","","","",""
"html-keyboard-response","41","560057","0.0-5.0-3.0-1.0-0.4","6981e6c2e26c88d954f297eb","not_provided","desktop","0","0","1","","","","","","working_memory","","null","<div class=""fixation"">+</div>","null","","","","","","","","","","","","","","","","",""
"html-keyboard-response","42","560260","0.0-5.0-3.0-1.0-1.4","6981e6c2e26c88d954f297eb","not_provided","desktop","0","0","1","","","","","","working_memory","","null","<img class='upper2' src=images/squares/blue.png><div class=""fixation"">+</div>","null","","","memory","practice","4","1","","","","","","","","","","",""
"html-keyboard-response","43","561165","0.0-5.0-3.0-1.0-2.4","6981e6c2e26c88d954f297eb","not_provided","desktop","0","0","1","","","","","","working_memory","","null","<div class=""fixation"">+</div>","null","","","","","","","","","","","","","","","","",""
"html-keyboard-response","44","561733","0.0-5.0-3.0-1.0-3.4","6981e6c2e26c88d954f297eb","not_provided","desktop","0","0","1","","","","","","working_memory","","566","<img class='upper2' src=images/squares/blue.png><div class=""fixation"">+</div>","s","","","test","practice","4","1","s","true","","","","","","","","",""
"html-keyboard-response","45","562240","0.0-5.0-3.0-1.0-4.4","6981e6c2e26c88d954f297eb","not_provided","desktop","0","0","1","","","","","","working_memory","","null","<div class=""fixation"">Correct</div>","null","","","","","","","","","","","","","","","","",""
"html-keyboard-response","46","563244","0.0-5.0-3.0-1.0-0.5","6981e6c2e26c88d954f297eb","not_provided","desktop","0","0","1","","","","","","working_memory","","null","<div class=""fixation"">+</div>","null","","","","","","","","","","","","","","","","",""
"html-keyboard-response","47","563446","0.0-5.0-3.0-1.0-1.5","6981e6c2e26c88d954f297eb","not_provided","desktop","0","0","1","","","","","","working_memory","","null","<img class='a' src=images/squares/green.png><img class='d' src=images/squares/yellow.png><img class='h' src=images/squares/orange.png><img class='j' src=images/squares/brown.png><div class=""fixation"">+</div>","null","","","memory","practice","5","4","","","","","","","","","","",""
"html-keyboard-response","48","564358","0.0-5.0-3.0-1.0-2.5","6981e6c2e26c88d954f297eb","not_provided","desktop","0","0","1","","","","","","working_memory","","null","<div class=""fixation"">+</div>","null","","","","","","","","","","","","","","","","",""
"html-keyboard-response","49","564842","0.0-5.0-3.0-1.0-3.5","6981e6c2e26c88d954f297eb","not_provided","desktop","0","0","1","","","","","","working_memory","","483","<img class='a' src=images/squares/green.png><div class=""fixation"">+</div>","s","","","test","practice","5","4","s","true","","","","","","","","",""
"html-keyboard-response","50","565355","0.0-5.0-3.0-1.0-4.5","6981e6c2e26c88d954f297eb","not_provided","desktop","0","0","1","","","","","","working_memory","","null","<div class=""fixation"">Correct</div>","null","","","","","","","","","","","","","","","","",""
"html-keyboard-response","51","566361","0.0-5.0-3.0-1.0-0.6","6981e6c2e26c88d954f297eb","not_provided","desktop","0","0","1","","","","","","working_memory","","null","<div class=""fixation"">+</div>","null","","","","","","","","","","","","","","","","",""
"html-keyboard-response","52","566563","0.0-5.0-3.0-1.0-1.6","6981e6c2e26c88d954f297eb","not_provided","desktop","0","0","1","","","","","","working_memory","","null","<img class='lower1' src=images/squares/red.png><div class=""fixation"">+</div>","null","","","memory","practice","6","1","","","","","","","","","","",""
"html-keyboard-response","53","567466","0.0-5.0-3.0-1.0-2.6","6981e6c2e26c88d954f297eb","not_provided","desktop","0","0","1","","","","","","working_memory","","null","<div class=""fixation"">+</div>","null","","","","","","","","","","","","","","","","",""
"html-keyboard-response","54","568027","0.0-5.0-3.0-1.0-3.6","6981e6c2e26c88d954f297eb","not_provided","desktop","0","0","1","","","","","","working_memory","","560","<img class='lower1' src=images/squares/green.png><div class=""fixation"">+</div>","k","","","test","practice","6","1","k","true","","","","","","","","",""
"html-keyboard-response","55","568529","0.0-5.0-3.0-1.0-4.6","6981e6c2e26c88d954f297eb","not_provided","desktop","0","0","1","","","","","","working_memory","","null","<div class=""fixation"">Correct</div>","null","","","","","","","","","","","","","","","","",""
"html-keyboard-response","56","569544","0.0-5.0-3.0-1.0-0.7","6981e6c2e26c88d954f297eb","not_provided","desktop","0","0","1","","","","","","working_memory","","null","<div class=""fixation"">+</div>","null","","","","","","","","","","","","","","","","",""
"html-keyboard-response","57","569747","0.0-5.0-3.0-1.0-1.7","6981e6c2e26c88d954f297eb","not_provided","desktop","0","0","1","","","","","","working_memory","","null","<img class='a' src=images/squares/cyan.png><img class='b' src=images/squares/magenta.png><img class='e' src=images/squares/blue.png><img class='d' src=images/squares/brown.png><img class='h' src=images/squares/red.png><img class='g' src=images/squares/yellow.png><img class='k' src=images/squares/black.png><img class='l' src=images/squares/orange.png><div class=""fixation"">+</div>","null","","","memory","practice","7","8","","","","","","","","","","",""
"html-keyboard-response","58","570655","0.0-5.0-3.0-1.0-2.7","6981e6c2e26c88d954f297eb","not_provided","desktop","0","0","1","","","","","","working_memory","","null","<div class=""fixation"">+</div>","null","","","","","","","","","","","","","","","","",""
"html-keyboard-response","59","571421","0.0-5.0-3.0-1.0-3.7","6981e6c2e26c88d954f297eb","not_provided","desktop","0","0","1","","","","","","working_memory","","764","<img class='l' src=images/squares/green.png><div class=""fixation"">+</div>","k","","","test","practice","7","8","k","true","","","","","","","","",""
"html-keyboard-response","60","571932","0.0-5.0-3.0-1.0-4.7","6981e6c2e26c88d954f297eb","not_provided","desktop","0","0","1","","","","","","working_memory","","null","<div class=""fixation"">Correct</div>","null","","","","","","","","","","","","","","","","",""
"html-keyboard-response","61","572938","0.0-5.0-3.0-1.0-0.8","6981e6c2e26c88d954f297eb","not_provided","desktop","0","0","1","","","","","","working_memory","","null","<div class=""fixation"">+</div>","null","","","","","","","","","","","","","","","","",""
"html-keyboard-response","62","573142","0.0-5.0-3.0-1.0-1.8","6981e6c2e26c88d954f297eb","not_provided","desktop","0","0","1","","","","","","working_memory","","null","<img class='c' src=images/squares/yellow.png><img class='b' src=images/squares/orange.png><img class='f' src=images/squares/green.png><img class='d' src=images/squares/red.png><img class='i' src=images/squares/blue.png><img class='h' src=images/squares/brown.png><img class='k' src=images/squares/magenta.png><img class='l' src=images/squares/cyan.png><div class=""fixation"">+</div>","null","","","memory","practice","8","8","","","","","","","","","","",""
"html-keyboard-response","63","574049","0.0-5.0-3.0-1.0-2.8","6981e6c2e26c88d954f297eb","not_provided","desktop","0","0","1","","","","","","working_memory","","null","<div class=""fixation"">+</div>","null","","","","","","","","","","","","","","","","",""
"html-keyboard-response","64","574788","0.0-5.0-3.0-1.0-3.8","6981e6c2e26c88d954f297eb","not_provided","desktop","0","0","1","","","","","","working_memory","","738","<img class='h' src=images/squares/brown.png><div class=""fixation"">+</div>","k","","","test","practice","8","8","s","false","","","","","","","","",""
"html-keyboard-response","65","575299","0.0-5.0-3.0-1.0-4.8","6981e6c2e26c88d954f297eb","not_provided","desktop","0","0","1","","","","","","working_memory","","null","<div class=""fixation"">Incorrect</div>","null","","","","","","","","","","","","","","","","",""
"html-keyboard-response","66","576305","0.0-5.0-3.0-1.0-0.9","6981e6c2e26c88d954f297eb","not_provided","desktop","0","0","1","","","","","","working_memory","","null","<div class=""fixation"">+</div>","null","","","","","","","","","","","","","","","","",""
"html-keyboard-response","67","576507","0.0-5.0-3.0-1.0-1.9","6981e6c2e26c88d954f297eb","not_provided","desktop","0","0","1","","","","","","working_memory","","null","<img class='upper2' src=images/squares/yellow.png><div class=""fixation"">+</div>","null","","","memory","practice","9","1","","","","","","","","","","",""
"html-keyboard-response","68","577414","0.0-5.0-3.0-1.0-2.9","6981e6c2e26c88d954f297eb","not_provided","desktop","0","0","1","","","","","","working_memory","","null","<div class=""fixation"">+</div>","null","","","","","","","","","","","","","","","","",""
"html-keyboard-response","69","577930","0.0-5.0-3.0-1.0-3.9","6981e6c2e26c88d954f297eb","not_provided","desktop","0","0","1","","","","","","working_memory","","515","<img class='upper2' src=images/squares/yellow.png><div class=""fixation"">+</div>","s","","","test","practice","9","1","s","true","","","","","","","","",""
"html-keyboard-response","70","578443","0.0-5.0-3.0-1.0-4.9","6981e6c2e26c88d954f297eb","not_provided","desktop","0","0","1","","","","","","working_memory","","null","<div class=""fixation"">Correct</div>","null","","","","","","","","","","","","","","","","",""
"html-keyboard-response","71","579446","0.0-5.0-3.0-1.0-0.10","6981e6c2e26c88d954f297eb","not_provided","desktop","0","0","1","","","","","","working_memory","","null","<div class=""fixation"">+</div>","null","","","","","","","","","","","","","","","","",""
"html-keyboard-response","72","579647","0.0-5.0-3.0-1.0-1.10","6981e6c2e26c88d954f297eb","not_provided","desktop","0","0","1","","","","","","working_memory","","null","<img class='a' src=images/squares/red.png><img class='c' src=images/squares/yellow.png><img class='d' src=images/squares/magenta.png><img class='e' src=images/squares/black.png><img class='i' src=images/squares/cyan.png><img class='h' src=images/squares/blue.png><img class='l' src=images/squares/brown.png><img class='j' src=images/squares/green.png><div class=""fixation"">+</div>","null","","","memory","practice","10","8","","","","","","","","","","",""
"html-keyboard-response","73","580551","0.0-5.0-3.0-1.0-2.10","6981e6c2e26c88d954f297eb","not_provided","desktop","0","0","1","","","","","","working_memory","","null","<div class=""fixation"">+</div>","null","","","","","","","","","","","","","","","","",""
"html-keyboard-response","74","581174","0.0-5.0-3.0-1.0-3.10","6981e6c2e26c88d954f297eb","not_provided","desktop","0","0","1","","","","","","working_memory","","622","<img class='a' src=images/squares/red.png><div class=""fixation"">+</div>","s","","","test","practice","10","8","s","true","","","","","","","","",""
"html-keyboard-response","75","581676","0.0-5.0-3.0-1.0-4.10","6981e6c2e26c88d954f297eb","not_provided","desktop","0","0","1","","","","","","working_memory","","null","<div class=""fixation"">Correct</div>","null","","","","","","","","","","","","","","","","",""
"html-keyboard-response","76","582693","0.0-5.0-3.0-1.0-0.11","6981e6c2e26c88d954f297eb","not_provided","desktop","0","0","1","","","","","","working_memory","","null","<div class=""fixation"">+</div>","null","","","","","","","","","","","","","","","","",""
"html-keyboard-response","77","582894","0.0-5.0-3.0-1.0-1.11","6981e6c2e26c88d954f297eb","not_provided","desktop","0","0","1","","","","","","working_memory","","null","<img class='upper2' src=images/squares/red.png><div class=""fixation"">+</div>","null","","","memory","practice","11","1","","","","","","","","","","",""
"html-keyboard-response","78","583799","0.0-5.0-3.0-1.0-2.11","6981e6c2e26c88d954f297eb","not_provided","desktop","0","0","1","","","","","","working_memory","","null","<div class=""fixation"">+</div>","null","","","","","","","","","","","","","","","","",""
"html-keyboard-response","79","584293","0.0-5.0-3.0-1.0-3.11","6981e6c2e26c88d954f297eb","not_provided","desktop","0","0","1","","","","","","working_memory","","493","<img class='upper2' src=images/squares/cyan.png><div class=""fixation"">+</div>","k","","","test","practice","11","1","k","true","","","","","","","","",""
"html-keyboard-response","80","584798","0.0-5.0-3.0-1.0-4.11","6981e6c2e26c88d954f297eb","not_provided","desktop","0","0","1","","","","","","working_memory","","null","<div class=""fixation"">Correct</div>","null","","","","","","","","","","","","","","","","",""
"html-keyboard-response","81","585801","0.0-5.0-3.0-1.0-0.12","6981e6c2e26c88d954f297eb","not_provided","desktop","0","0","1","","","","","","working_memory","","null","<div class=""fixation"">+</div>","null","","","","","","","","","","","","","","","","",""
"html-keyboard-response","82","586019","0.0-5.0-3.0-1.0-1.12","6981e6c2e26c88d954f297eb","not_provided","desktop","0","0","1","","","","","","working_memory","","null","<img class='a' src=images/squares/blue.png><img class='c' src=images/squares/orange.png><img class='e' src=images/squares/brown.png><img class='f' src=images/squares/red.png><img class='h' src=images/squares/cyan.png><img class='i' src=images/squares/yellow.png><img class='l' src=images/squares/green.png><img class='j' src=images/squares/magenta.png><div class=""fixation"">+</div>","null","","","memory","practice","12","8","","","","","","","","","","",""
"html-keyboard-response","83","586929","0.0-5.0-3.0-1.0-2.12","6981e6c2e26c88d954f297eb","not_provided","desktop","0","0","1","","","","","","working_memory","","null","<div class=""fixation"">+</div>","null","","","","","","","","","","","","","","","","",""
"html-keyboard-response","84","587725","0.0-5.0-3.0-1.0-3.12","6981e6c2e26c88d954f297eb","not_provided","desktop","0","0","1","","","","","","working_memory","","794","<img class='l' src=images/squares/black.png><div class=""fixation"">+</div>","k","","","test","practice","12","8","k","true","","","","","","","","",""
"html-keyboard-response","85","588233","0.0-5.0-3.0-1.0-4.12","6981e6c2e26c88d954f297eb","not_provided","desktop","0","0","1","","","","","","working_memory","","null","<div class=""fixation"">Correct</div>","null","","","","","","","","","","","","","","","","",""
"html-keyboard-response","86","589235","0.0-5.0-3.0-1.0-0.13","6981e6c2e26c88d954f297eb","not_provided","desktop","0","0","1","","","","","","working_memory","","null","<div class=""fixation"">+</div>","null","","","","","","","","","","","","","","","","",""
"html-keyboard-response","87","589440","0.0-5.0-3.0-1.0-1.13","6981e6c2e26c88d954f297eb","not_provided","desktop","0","0","1","","","","","","working_memory","","null","<img class='a' src=images/squares/brown.png><img class='b' src=images/squares/yellow.png><img class='d' src=images/squares/orange.png><img class='e' src=images/squares/magenta.png><img class='i' src=images/squares/green.png><img class='h' src=images/squares/red.png><img class='l' src=images/squares/cyan.png><img class='k' src=images/squares/blue.png><div class=""fixation"">+</div>","null","","","memory","practice","13","8","","","","","","","","","","",""
"html-keyboard-response","88","590346","0.0-5.0-3.0-1.0-2.13","6981e6c2e26c88d954f297eb","not_provided","desktop","0","0","1","","","","","","working_memory","","null","<div class=""fixation"">+</div>","null","","","","","","","","","","","","","","","","",""
"html-keyboard-response","89","591027","0.0-5.0-3.0-1.0-3.13","6981e6c2e26c88d954f297eb","not_provided","desktop","0","0","1","","","","","","working_memory","","679","<img class='k' src=images/squares/black.png><div class=""fixation"">+</div>","k","","","test","practice","13","8","k","true","","","","","","","","",""
"html-keyboard-response","90","591530","0.0-5.0-3.0-1.0-4.13","6981e6c2e26c88d954f297eb","not_provided","desktop","0","0","1","","","","","","working_memory","","null","<div class=""fixation"">Correct</div>","null","","","","","","","","","","","","","","","","",""
"html-keyboard-response","91","592545","0.0-5.0-3.0-1.0-0.14","6981e6c2e26c88d954f297eb","not_provided","desktop","0","0","1","","","","","","working_memory","","null","<div class=""fixation"">+</div>","null","","","","","","","","","","","","","","","","",""
"html-keyboard-response","92","592748","0.0-5.0-3.0-1.0-1.14","6981e6c2e26c88d954f297eb","not_provided","desktop","0","0","1","","","","","","working_memory","","null","<img class='c' src=images/squares/magenta.png><img class='a' src=images/squares/green.png><img class='f' src=images/squares/yellow.png><img class='e' src=images/squares/black.png><img class='h' src=images/squares/blue.png><img class='g' src=images/squares/orange.png><img class='j' src=images/squares/cyan.png><img class='l' src=images/squares/red.png><div class=""fixation"">+</div>","null","","","memory","practice","14","8","","","","","","","","","","",""
"html-keyboard-response","93","593660","0.0-5.0-3.0-1.0-2.14","6981e6c2e26c88d954f297eb","not_provided","desktop","0","0","1","","","","","","working_memory","","null","<div class=""fixation"">+</div>","null","","","","","","","","","","","","","","","","",""
"html-keyboard-response","94","594186","0.0-5.0-3.0-1.0-3.14","6981e6c2e26c88d954f297eb","not_provided","desktop","0","0","1","","","","","","working_memory","","524","<img class='c' src=images/squares/brown.png><div class=""fixation"">+</div>","k","","","test","practice","14","8","k","true","","","","","","","","",""
"html-keyboard-response","95","594689","0.0-5.0-3.0-1.0-4.14","6981e6c2e26c88d954f297eb","not_provided","desktop","0","0","1","","","","","","working_memory","","null","<div class=""fixation"">Correct</div>","null","","","","","","","","","","","","","","","","",""
"html-keyboard-response","96","604799","0.0-5.0-4.0","6981e6c2e26c88d954f297eb","not_provided","desktop","0","0","1","","","","","","working_memory","","10108","<div style=""text-align:center;font-family:sans-serif;""><p>Good job! You have finished the practice.</p><p>We will now start the real experiment.</p><p>Please try to be as accurate as possible.</p><p><b><u>Note: random guessing may risk your payment.</u></b></p><br><p><b>Press any key to begin.</b></p></div>","k","","","","","","","","","","","","","","","","",""
"html-keyboard-response","97","605811","0.0-5.0-5.0-0.0","6981e6c2e26c88d954f297eb","not_provided","desktop","0","0","1","","","","","","working_memory","","null","<div class=""fixation"">+</div>","null","","","","","","","","","","","","","","","","",""
"html-keyboard-response","98","606014","0.0-5.0-5.0-1.0","6981e6c2e26c88d954f297eb","not_provided","desktop","0","0","1","","","","","","working_memory","","null","<img class='a' src=images/squares/magenta.png><img class='e' src=images/squares/red.png><img class='g' src=images/squares/black.png><img class='l' src=images/squares/brown.png><div class=""fixation"">+</div>","null","","","memory","exp","0","","","","","","","","","","","",""
"html-keyboard-response","99","606927","0.0-5.0-5.0-2.0","6981e6c2e26c88d954f297eb","not_provided","desktop","0","0","1","","","","","","working_memory","","null","<div class=""fixation"">+</div>","null","","","","","","","","","","","","","","","","",""
"html-keyboard-response","100","607450","0.0-5.0-5.0-3.0","6981e6c2e26c88d954f297eb","not_provided","desktop","0","0","1","","","","","","working_memory","","522","<img class='a' src=images/squares/magenta.png><div class=""fixation"">+</div>","s","","","test_squares","exp","0","4","s","true","sk","s","","","","","","",""
"html-keyboard-response","101","607956","0.0-5.0-5.0-4.0","6981e6c2e26c88d954f297eb","not_provided","desktop","0","0","1","","","","","","working_memory","","null","<div class=""fixation"">Correct</div>","null","","","","","","","","","","","","","","","","",""
"html-keyboard-response","102","608971","0.0-5.0-5.0-0.1","6981e6c2e26c88d954f297eb","not_provided","desktop","0","0","1","","","","","","working_memory","","null","<div class=""fixation"">+</div>","null","","","","","","","","","","","","","","","","",""
"html-keyboard-response","103","609174","0.0-5.0-5.0-1.1","6981e6c2e26c88d954f297eb","not_provided","desktop","0","0","1","","","","","","working_memory","","null","<img class='c' src=images/squares/red.png><img class='a' src=images/squares/magenta.png><img class='e' src=images/squares/black.png><img class='d' src=images/squares/green.png><img class='h' src=images/squares/orange.png><img class='i' src=images/squares/brown.png><img class='j' src=images/squares/blue.png><img class='k' src=images/squares/yellow.png><div class=""fixation"">+</div>","null","","","memory","exp","1","","","","","","","","","","","",""
"html-keyboard-response","104","610076","0.0-5.0-5.0-2.1","6981e6c2e26c88d954f297eb","not_provided","desktop","0","0","1","","","","","","working_memory","","null","<div class=""fixation"">+</div>","null","","","","","","","","","","","","","","","","",""
"html-keyboard-response","105","610758","0.0-5.0-5.0-3.1","6981e6c2e26c88d954f297eb","not_provided","desktop","0","0","1","","","","","","working_memory","","682","<img class='e' src=images/squares/cyan.png><div class=""fixation"">+</div>","k","","","test_squares","exp","1","8","k","true","sk","d","","","","","","",""
"html-keyboard-response","106","611265","0.0-5.0-5.0-4.1","6981e6c2e26c88d954f297eb","not_provided","desktop","0","0","1","","","","","","working_memory","","null","<div class=""fixation"">Correct</div>","null","","","","","","","","","","","","","","","","",""
"html-keyboard-response","107","612268","0.0-5.0-5.0-0.2","6981e6c2e26c88d954f297eb","not_provided","desktop","0","0","1","","","","","","working_memory","","null","<div class=""fixation"">+</div>","null","","","","","","","","","","","","","","","","",""
"html-keyboard-response","108","612472","0.0-5.0-5.0-1.2","6981e6c2e26c88d954f297eb","not_provided","desktop","0","0","1","","","","","","working_memory","","null","<img class='a' src=images/squares/green.png><img class='d' src=images/squares/cyan.png><img class='h' src=images/squares/magenta.png><img class='k' src=images/squares/red.png><div class=""fixation"">+</div>","null","","","memory","exp","2","","","","","","","","","","","",""
"html-keyboard-response","109","613376","0.0-5.0-5.0-2.2","6981e6c2e26c88d954f297eb","not_provided","desktop","0","0","1","","","","","","working_memory","","null","<div class=""fixation"">+</div>","null","","","","","","","","","","","","","","","","",""
"html-keyboard-response","110","614077","0.0-5.0-5.0-3.2","6981e6c2e26c88d954f297eb","not_provided","desktop","0","0","1","","","","","","working_memory","","701","<img class='h' src=images/squares/magenta.png><div class=""fixation"">+</div>","k","","","test_squares","exp","2","4","s","false","sk","s","","","","","","",""
"html-keyboard-response","111","614586","0.0-5.0-5.0-4.2","6981e6c2e26c88d954f297eb","not_provided","desktop","0","0","1","","","","","","working_memory","","null","<div class=""fixation"">Incorrect</div>","null","","","","","","","","","","","","","","","","",""
"html-keyboard-response","112","615598","0.0-5.0-5.0-0.3","6981e6c2e26c88d954f297eb","not_provided","desktop","0","0","1","","","","","","working_memory","","null","<div class=""fixation"">+</div>","null","","","","","","","","","","","","","","","","",""
"html-keyboard-response","113","615801","0.0-5.0-5.0-1.3","6981e6c2e26c88d954f297eb","not_provided","desktop","0","0","1","","","","","","working_memory","","null","<img class='b' src=images/squares/yellow.png><img class='c' src=images/squares/red.png><img class='f' src=images/squares/black.png><img class='d' src=images/squares/green.png><img class='g' src=images/squares/cyan.png><img class='h' src=images/squares/magenta.png><img class='l' src=images/squares/orange.png><img class='k' src=images/squares/brown.png><div class=""fixation"">+</div>","null","","","memory","exp","3","","","","","","","","","","","",""
"html-keyboard-response","114","616707","0.0-5.0-5.0-2.3","6981e6c2e26c88d954f297eb","not_provided","desktop","0","0","1","","","","","","working_memory","","null","<div class=""fixation"">+</div>","null","","","","","","","","","","","","","","","","",""
"html-keyboard-response","115","617341","0.0-5.0-5.0-3.3","6981e6c2e26c88d954f297eb","not_provided","desktop","0","0","1","","","","","","working_memory","","633","<img class='d' src=images/squares/blue.png><div class=""fixation"">+</div>","k","","","test_squares","exp","3","8","k","true","sk","d","","","","","","",""
"html-keyboard-response","116","617854","0.0-5.0-5.0-4.3","6981e6c2e26c88d954f297eb","not_provided","desktop","0","0","1","","","","","","working_memory","","null","<div class=""fixation"">Correct</div>","null","","","","","","","","","","","","","","","","",""
"html-keyboard-response","117","618857","0.0-5.0-5.0-0.4","6981e6c2e26c88d954f297eb","not_provided","desktop","0","0","1","","","","","","working_memory","","null","<div class=""fixation"">+</div>","null","","","","","","","","","","","","","","","","",""
"html-keyboard-response","118","619060","0.0-5.0-5.0-1.4","6981e6c2e26c88d954f297eb","not_provided","desktop","0","0","1","","","","","","working_memory","","null","<img class='a' src=images/squares/magenta.png><img class='d' src=images/squares/red.png><img class='g' src=images/squares/green.png><img class='k' src=images/squares/cyan.png><div class=""fixation"">+</div>","null","","","memory","exp","4","","","","","","","","","","","",""
"html-keyboard-response","119","619966","0.0-5.0-5.0-2.4","6981e6c2e26c88d954f297eb","not_provided","desktop","0","0","1","","","","","","working_memory","","null","<div class=""fixation"">+</div>","null","","","","","","","","","","","","","","","","",""
"html-keyboard-response","120","620864","0.0-5.0-5.0-3.4","6981e6c2e26c88d954f297eb","not_provided","desktop","0","0","1","","","","","","working_memory","","896","<img class='k' src=images/squares/cyan.png><div class=""fixation"">+</div>","s","","","test_squares","exp","4","4","s","true","sk","s","","","","","","",""
"html-keyboard-response","121","621376","0.0-5.0-5.0-4.4","6981e6c2e26c88d954f297eb","not_provided","desktop","0","0","1","","","","","","working_memory","","null","<div class=""fixation"">Correct</div>","null","","","","","","","","","","","","","","","","",""
"html-keyboard-response","122","622388","0.0-5.0-5.0-0.5","6981e6c2e26c88d954f297eb","not_provided","desktop","0","0","1","","","","","","working_memory","","null","<div class=""fixation"">+</div>","null","","","","","","","","","","","","","","","","",""
"html-keyboard-response","123","622603","0.0-5.0-5.0-1.5","6981e6c2e26c88d954f297eb","not_provided","desktop","0","0","1","","","","","","working_memory","","null","<img class='a' src=images/squares/green.png><img class='d' src=images/squares/yellow.png><img class='g' src=images/squares/red.png><img class='k' src=images/squares/cyan.png><div class=""fixation"">+</div>","null","","","memory","exp","5","","","","","","","","","","","",""
"html-keyboard-response","124","623512","0.0-5.0-5.0-2.5","6981e6c2e26c88d954f297eb","not_provided","desktop","0","0","1","","","","","","working_memory","","null","<div class=""fixation"">+</div>","null","","","","","","","","","","","","","","","","",""
"html-keyboard-response","125","624075","0.0-5.0-5.0-3.5","6981e6c2e26c88d954f297eb","not_provided","desktop","0","0","1","","","","","","working_memory","","562","<img class='k' src=images/squares/cyan.png><div class=""fixation"">+</div>","s","","","test_squares","exp","5","4","s","true","sk","s","","","","","","",""
"html-keyboard-response","126","624580","0.0-5.0-5.0-4.5","6981e6c2e26c88d954f297eb","not_provided","desktop","0","0","1","","","","","","working_memory","","null","<div class=""fixation"">Correct</div>","null","","","","","","","","","","","","","","","","",""
"html-keyboard-response","127","625592","0.0-5.0-5.0-0.6","6981e6c2e26c88d954f297eb","not_provided","desktop","0","0","1","","","","","","working_memory","","null","<div class=""fixation"">+</div>","null","","","","","","","","","","","","","","","","",""
"html-keyboard-response","128","625793","0.0-5.0-5.0-1.6","6981e6c2e26c88d954f297eb","not_provided","desktop","0","0","1","","","","","","working_memory","","null","<img class='a' src=images/squares/magenta.png><img class='d' src=images/squares/yellow.png><img class='h' src=images/squares/blue.png><img class='l' src=images/squares/brown.png><div class=""fixation"">+</div>","null","","","memory","exp","6","","","","","","","","","","","",""
"html-keyboard-response","129","626707","0.0-5.0-5.0-2.6","6981e6c2e26c88d954f297eb","not_provided","desktop","0","0","1","","","","","","working_memory","","null","<div class=""fixation"">+</div>","null","","","","","","","","","","","","","","","","",""
"html-keyboard-response","130","627334","0.0-5.0-5.0-3.6","6981e6c2e26c88d954f297eb","not_provided","desktop","0","0","1","","","","","","working_memory","","626","<img class='a' src=images/squares/green.png><div class=""fixation"">+</div>","k","","","test_squares","exp","6","4","k","true","sk","d","","","","","","",""
"html-keyboard-response","131","627847","0.0-5.0-5.0-4.6","6981e6c2e26c88d954f297eb","not_provided","desktop","0","0","1","","","","","","working_memory","","null","<div class=""fixation"">Correct</div>","null","","","","","","","","","","","","","","","","",""
"html-keyboard-response","132","628862","0.0-5.0-5.0-0.7","6981e6c2e26c88d954f297eb","not_provided","desktop","0","0","1","","","","","","working_memory","","null","<div class=""fixation"">+</div>","null","","","","","","","","","","","","","","","","",""
"html-keyboard-response","133","629065","0.0-5.0-5.0-1.7","6981e6c2e26c88d954f297eb","not_provided","desktop","0","0","1","","","","","","working_memory","","null","<img class='c' src=images/squares/magenta.png><img class='d' src=images/squares/yellow.png><img class='g' src=images/squares/cyan.png><img class='k' src=images/squares/brown.png><div class=""fixation"">+</div>","null","","","memory","exp","7","","","","","","","","","","","",""
"html-keyboard-response","134","629970","0.0-5.0-5.0-2.7","6981e6c2e26c88d954f297eb","not_provided","desktop","0","0","1","","","","","","working_memory","","null","<div class=""fixation"">+</div>","null","","","","","","","","","","","","","","","","",""
"html-keyboard-response","135","631327","0.0-5.0-5.0-3.7","6981e6c2e26c88d954f297eb","not_provided","desktop","0","0","1","","","","","","working_memory","","1356","<img class='g' src=images/squares/cyan.png><div class=""fixation"">+</div>","s","","","test_squares","exp","7","4","s","true","sk","s","","","","","","",""
"html-keyboard-response","136","631834","0.0-5.0-5.0-4.7","6981e6c2e26c88d954f297eb","not_provided","desktop","0","0","1","","","","","","working_memory","","null","<div class=""fixation"">Correct</div>","null","","","","","","","","","","","","","","","","",""
"html-keyboard-response","137","632849","0.0-5.0-5.0-0.8","6981e6c2e26c88d954f297eb","not_provided","desktop","0","0","1","","","","","","working_memory","","null","<div class=""fixation"">+</div>","null","","","","","","","","","","","","","","","","",""
"html-keyboard-response","138","633052","0.0-5.0-5.0-1.8","6981e6c2e26c88d954f297eb","not_provided","desktop","0","0","1","","","","","","working_memory","","null","<img class='b' src=images/squares/brown.png><img class='d' src=images/squares/black.png><img class='h' src=images/squares/cyan.png><img class='k' src=images/squares/green.png><div class=""fixation"">+</div>","null","","","memory","exp","8","","","","","","","","","","","",""
"html-keyboard-response","139","633955","0.0-5.0-5.0-2.8","6981e6c2e26c88d954f297eb","not_provided","desktop","0","0","1","","","","","","working_memory","","null","<div class=""fixation"">+</div>","null","","","","","","","","","","","","","","","","",""
"html-keyboard-response","140","635004","0.0-5.0-5.0-3.8","6981e6c2e26c88d954f297eb","not_provided","desktop","0","0","1","","","","","","working_memory","","1048","<img class='k' src=images/squares/orange.png><div class=""fixation"">+</div>","k","","","test_squares","exp","8","4","k","true","sk","d","","","","","","",""
"html-keyboard-response","141","635517","0.0-5.0-5.0-4.8","6981e6c2e26c88d954f297eb","not_provided","desktop","0","0","1","","","","","","working_memory","","null","<div class=""fixation"">Correct</div>","null","","","","","","","","","","","","","","","","",""
"html-keyboard-response","142","636529","0.0-5.0-5.0-0.9","6981e6c2e26c88d954f297eb","not_provided","desktop","0","0","1","","","","","","working_memory","","null","<div class=""fixation"">+</div>","null","","","","","","","","","","","","","","","","",""
"html-keyboard-response","143","636733","0.0-5.0-5.0-1.9","6981e6c2e26c88d954f297eb","not_provided","desktop","0","0","1","","","","","","working_memory","","null","<img class='c' src=images/squares/black.png><img class='b' src=images/squares/magenta.png><img class='e' src=images/squares/blue.png><img class='f' src=images/squares/red.png><img class='i' src=images/squares/orange.png><img class='h' src=images/squares/cyan.png><img class='j' src=images/squares/green.png><img class='k' src=images/squares/brown.png><div class=""fixation"">+</div>","null","","","memory","exp","9","","","","","","","","","","","",""
"html-keyboard-response","144","637636","0.0-5.0-5.0-2.9","6981e6c2e26c88d954f297eb","not_provided","desktop","0","0","1","","","","","","working_memory","","null","<div class=""fixation"">+</div>","null","","","","","","","","","","","","","","","","",""
"html-keyboard-response","145","638745","0.0-5.0-5.0-3.9","6981e6c2e26c88d954f297eb","not_provided","desktop","0","0","1","","","","","","working_memory","","1107","<img class='i' src=images/squares/yellow.png><div class=""fixation"">+</div>","k","","","test_squares","exp","9","8","k","true","sk","d","","","","","","",""
"html-keyboard-response","146","639254","0.0-5.0-5.0-4.9","6981e6c2e26c88d954f297eb","not_provided","desktop","0","0","1","","","","","","working_memory","","null","<div class=""fixation"">Correct</div>","null","","","","","","","","","","","","","","","","",""
"html-keyboard-response","147","640266","0.0-5.0-5.0-0.10","6981e6c2e26c88d954f297eb","not_provided","desktop","0","0","1","","","","","","working_memory","","null","<div class=""fixation"">+</div>","null","","","","","","","","","","","","","","","","",""
"html-keyboard-response","148","640469","0.0-5.0-5.0-1.10","6981e6c2e26c88d954f297eb","not_provided","desktop","0","0","1","","","","","","working_memory","","null","<img class='b' src=images/squares/orange.png><img class='c' src=images/squares/red.png><img class='d' src=images/squares/black.png><img class='e' src=images/squares/blue.png><img class='i' src=images/squares/cyan.png><img class='h' src=images/squares/magenta.png><img class='j' src=images/squares/brown.png><img class='k' src=images/squares/yellow.png><div class=""fixation"">+</div>","null","","","memory","exp","10","","","","","","","","","","","",""
"html-keyboard-response","149","641371","0.0-5.0-5.0-2.10","6981e6c2e26c88d954f297eb","not_provided","desktop","0","0","1","","","","","","working_memory","","null","<div class=""fixation"">+</div>","null","","","","","","","","","","","","","","","","",""
"html-keyboard-response","150","642137","0.0-5.0-5.0-3.10","6981e6c2e26c88d954f297eb","not_provided","desktop","0","0","1","","","","","","working_memory","","766","<img class='d' src=images/squares/black.png><div class=""fixation"">+</div>","k","","","test_squares","exp","10","8","s","false","sk","s","","","","","","",""
"html-keyboard-response","151","642640","0.0-5.0-5.0-4.10","6981e6c2e26c88d954f297eb","not_provided","desktop","0","0","1","","","","","","working_memory","","null","<div class=""fixation"">Incorrect</div>","null","","","","","","","","","","","","","","","","",""
"html-keyboard-response","152","643654","0.0-5.0-5.0-0.11","6981e6c2e26c88d954f297eb","not_provided","desktop","0","0","1","","","","","","working_memory","","null","<div class=""fixation"">+</div>","null","","","","","","","","","","","","","","","","",""
"html-keyboard-response","153","643857","0.0-5.0-5.0-1.11","6981e6c2e26c88d954f297eb","not_provided","desktop","0","0","1","","","","","","working_memory","","null","<img class='b' src=images/squares/yellow.png><img class='d' src=images/squares/black.png><img class='i' src=images/squares/brown.png><img class='k' src=images/squares/orange.png><div class=""fixation"">+</div>","null","","","memory","exp","11","","","","","","","","","","","",""
"html-keyboard-response","154","644764","0.0-5.0-5.0-2.11","6981e6c2e26c88d954f297eb","not_provided","desktop","0","0","1","","","","","","working_memory","","null","<div class=""fixation"">+</div>","null","","","","","","","","","","","","","","","","",""
"html-keyboard-response","155","645510","0.0-5.0-5.0-3.11","6981e6c2e26c88d954f297eb","not_provided","desktop","0","0","1","","","","","","working_memory","","745","<img class='d' src=images/squares/black.png><div class=""fixation"">+</div>","s","","","test_squares","exp","11","4","s","true","sk","s","","","","","","",""
"html-keyboard-response","156","646018","0.0-5.0-5.0-4.11","6981e6c2e26c88d954f297eb","not_provided","desktop","0","0","1","","","","","","working_memory","","null","<div class=""fixation"">Correct</div>","null","","","","","","","","","","","","","","","","",""
"html-keyboard-response","157","647031","0.0-5.0-5.0-0.12","6981e6c2e26c88d954f297eb","not_provided","desktop","0","0","1","","","","","","working_memory","","null","<div class=""fixation"">+</div>","null","","","","","","","","","","","","","","","","",""
"html-keyboard-response","158","647236","0.0-5.0-5.0-1.12","6981e6c2e26c88d954f297eb","not_provided","desktop","0","0","1","","","","","","working_memory","","null","<img class='c' src=images/squares/green.png><img class='a' src=images/squares/orange.png><img class='f' src=images/squares/cyan.png><img class='e' src=images/squares/yellow.png><img class='i' src=images/squares/blue.png><img class='g' src=images/squares/magenta.png><img class='k' src=images/squares/brown.png><img class='l' src=images/squares/black.png><div class=""fixation"">+</div>","null","","","memory","exp","12","","","","","","","","","","","",""
"html-keyboard-response","159","648143","0.0-5.0-5.0-2.12","6981e6c2e26c88d954f297eb","not_provided","desktop","0","0","1","","","","","","working_memory","","null","<div class=""fixation"">+</div>","null","","","","","","","","","","","","","","","","",""
"html-keyboard-response","160","648650","0.0-5.0-5.0-3.12","6981e6c2e26c88d954f297eb","not_provided","desktop","0","0","1","","","","","","working_memory","","507","<img class='c' src=images/squares/green.png><div class=""fixation"">+</div>","s","","","test_squares","exp","12","8","s","true","sk","s","","","","","","",""
"html-keyboard-response","161","649161","0.0-5.0-5.0-4.12","6981e6c2e26c88d954f297eb","not_provided","desktop","0","0","1","","","","","","working_memory","","null","<div class=""fixation"">Correct</div>","null","","","","","","","","","","","","","","","","",""
"html-keyboard-response","162","650174","0.0-5.0-5.0-0.13","6981e6c2e26c88d954f297eb","not_provided","desktop","0","0","1","","","","","","working_memory","","null","<div class=""fixation"">+</div>","null","","","","","","","","","","","","","","","","",""
"html-keyboard-response","163","650377","0.0-5.0-5.0-1.13","6981e6c2e26c88d954f297eb","not_provided","desktop","0","0","1","","","","","","working_memory","","null","<img class='c' src=images/squares/orange.png><img class='f' src=images/squares/red.png><img class='i' src=images/squares/cyan.png><img class='l' src=images/squares/magenta.png><div class=""fixation"">+</div>","null","","","memory","exp","13","","","","","","","","","","","",""
"html-keyboard-response","164","651280","0.0-5.0-5.0-2.13","6981e6c2e26c88d954f297eb","not_provided","desktop","0","0","1","","","","","","working_memory","","null","<div class=""fixation"">+</div>","null","","","","","","","","","","","","","","","","",""
"html-keyboard-response","165","651937","0.0-5.0-5.0-3.13","6981e6c2e26c88d954f297eb","not_provided","desktop","0","0","1","","","","","","working_memory","","655","<img class='l' src=images/squares/black.png><div class=""fixation"">+</div>","k","","","test_squares","exp","13","4","k","true","sk","d","","","","","","",""
"html-keyboard-response","166","652445","0.0-5.0-5.0-4.13","6981e6c2e26c88d954f297eb","not_provided","desktop","0","0","1","","","","","","working_memory","","null","<div class=""fixation"">Correct</div>","null","","","","","","","","","","","","","","","","",""
"html-keyboard-response","167","653461","0.0-5.0-5.0-0.14","6981e6c2e26c88d954f297eb","not_provided","desktop","0","0","1","","","","","","working_memory","","null","<div class=""fixation"">+</div>","null","","","","","","","","","","","","","","","","",""
"html-keyboard-response","168","653678","0.0-5.0-5.0-1.14","6981e6c2e26c88d954f297eb","not_provided","desktop","0","0","1","","","","","","working_memory","","null","<img class='b' src=images/squares/magenta.png><img class='f' src=images/squares/brown.png><img class='g' src=images/squares/green.png><img class='k' src=images/squares/orange.png><div class=""fixation"">+</div>","null","","","memory","exp","14","","","","","","","","","","","",""
"html-keyboard-response","169","654585","0.0-5.0-5.0-2.14","6981e6c2e26c88d954f297eb","not_provided","desktop","0","0","1","","","","","","working_memory","","null","<div class=""fixation"">+</div>","null","","","","","","","","","","","","","","","","",""
"html-keyboard-response","170","655241","0.0-5.0-5.0-3.14","6981e6c2e26c88d954f297eb","not_provided","desktop","0","0","1","","","","","","working_memory","","655","<img class='k' src=images/squares/blue.png><div class=""fixation"">+</div>","k","","","test_squares","exp","14","4","k","true","sk","d","","","","","","",""
"html-keyboard-response","171","655748","0.0-5.0-5.0-4.14","6981e6c2e26c88d954f297eb","not_provided","desktop","0","0","1","","","","","","working_memory","","null","<div class=""fixation"">Correct</div>","null","","","","","","","","","","","","","","","","",""
"html-keyboard-response","172","656753","0.0-5.0-5.0-0.15","6981e6c2e26c88d954f297eb","not_provided","desktop","0","0","1","","","","","","working_memory","","null","<div class=""fixation"">+</div>","null","","","","","","","","","","","","","","","","",""
"html-keyboard-response","173","656956","0.0-5.0-5.0-1.15","6981e6c2e26c88d954f297eb","not_provided","desktop","0","0","1","","","","","","working_memory","","null","<img class='a' src=images/squares/magenta.png><img class='f' src=images/squares/black.png><img class='g' src=images/squares/brown.png><img class='l' src=images/squares/orange.png><div class=""fixation"">+</div>","null","","","memory","exp","15","","","","","","","","","","","",""
"html-keyboard-response","174","657859","0.0-5.0-5.0-2.15","6981e6c2e26c88d954f297eb","not_provided","desktop","0","0","1","","","","","","working_memory","","null","<div class=""fixation"">+</div>","null","","","","","","","","","","","","","","","","",""
"html-keyboard-response","175","658918","0.0-5.0-5.0-3.15","6981e6c2e26c88d954f297eb","not_provided","desktop","0","0","1","","","","","","working_memory","","1058","<img class='f' src=images/squares/black.png><div class=""fixation"">+</div>","s","","","test_squares","exp","15","4","s","true","sk","s","","","","","","",""
"html-keyboard-response","176","659425","0.0-5.0-5.0-4.15","6981e6c2e26c88d954f297eb","not_provided","desktop","0","0","1","","","","","","working_memory","","null","<div class=""fixation"">Correct</div>","null","","","","","","","","","","","","","","","","",""
"html-keyboard-response","177","660437","0.0-5.0-5.0-0.16","6981e6c2e26c88d954f297eb","not_provided","desktop","0","0","1","","","","","","working_memory","","null","<div class=""fixation"">+</div>","null","","","","","","","","","","","","","","","","",""
"html-keyboard-response","178","660640","0.0-5.0-5.0-1.16","6981e6c2e26c88d954f297eb","not_provided","desktop","0","0","1","","","","","","working_memory","","null","<img class='a' src=images/squares/green.png><img class='b' src=images/squares/black.png><img class='e' src=images/squares/red.png><img class='d' src=images/squares/orange.png><img class='h' src=images/squares/cyan.png><img class='g' src=images/squares/brown.png><img class='k' src=images/squares/blue.png><img class='l' src=images/squares/yellow.png><div class=""fixation"">+</div>","null","","","memory","exp","16","","","","","","","","","","","",""
"html-keyboard-response","179","661544","0.0-5.0-5.0-2.16","6981e6c2e26c88d954f297eb","not_provided","desktop","0","0","1","","","","","","working_memory","","null","<div class=""fixation"">+</div>","null","","","","","","","","","","","","","","","","",""
"html-keyboard-response","180","662190","0.0-5.0-5.0-3.16","6981e6c2e26c88d954f297eb","not_provided","desktop","0","0","1","","","","","","working_memory","","645","<img class='a' src=images/squares/green.png><div class=""fixation"">+</div>","k","","","test_squares","exp","16","8","s","false","sk","s","","","","","","",""
"html-keyboard-response","181","662705","0.0-5.0-5.0-4.16","6981e6c2e26c88d954f297eb","not_provided","desktop","0","0","1","","","","","","working_memory","","null","<div class=""fixation"">Incorrect</div>","null","","","","","","","","","","","","","","","","",""
"html-keyboard-response","182","663715","0.0-5.0-5.0-0.17","6981e6c2e26c88d954f297eb","not_provided","desktop","0","0","1","","","","","","working_memory","","null","<div class=""fixation"">+</div>","null","","","","","","","","","","","","","","","","",""
"html-keyboard-response","183","663930","0.0-5.0-5.0-1.17","6981e6c2e26c88d954f297eb","not_provided","desktop","0","0","1","","","","","","working_memory","","null","<img class='c' src=images/squares/cyan.png><img class='a' src=images/squares/orange.png><img class='e' src=images/squares/blue.png><img class='f' src=images/squares/brown.png><img class='i' src=images/squares/black.png><img class='h' src=images/squares/green.png><img class='k' src=images/squares/magenta.png><img class='l' src=images/squares/red.png><div class=""fixation"">+</div>","null","","","memory","exp","17","","","","","","","","","","","",""
"html-keyboard-response","184","664835","0.0-5.0-5.0-2.17","6981e6c2e26c88d954f297eb","not_provided","desktop","0","0","1","","","","","","working_memory","","null","<div class=""fixation"">+</div>","null","","","","","","","","","","","","","","","","",""
"html-keyboard-response","185","665505","0.0-5.0-5.0-3.17","6981e6c2e26c88d954f297eb","not_provided","desktop","0","0","1","","","","","","working_memory","","669","<img class='k' src=images/squares/magenta.png><div class=""fixation"">+</div>","k","","","test_squares","exp","17","8","s","false","sk","s","","","","","","",""
"html-keyboard-response","186","666009","0.0-5.0-5.0-4.17","6981e6c2e26c88d954f297eb","not_provided","desktop","0","0","1","","","","","","working_memory","","null","<div class=""fixation"">Incorrect</div>","null","","","","","","","","","","","","","","","","",""
"html-keyboard-response","187","667023","0.0-5.0-5.0-0.18","6981e6c2e26c88d954f297eb","not_provided","desktop","0","0","1","","","","","","working_memory","","null","<div class=""fixation"">+</div>","null","","","","","","","","","","","","","","","","",""
"html-keyboard-response","188","667225","0.0-5.0-5.0-1.18","6981e6c2e26c88d954f297eb","not_provided","desktop","0","0","1","","","","","","working_memory","","null","<img class='b' src=images/squares/orange.png><img class='f' src=images/squares/magenta.png><img class='i' src=images/squares/yellow.png><img class='j' src=images/squares/red.png><div class=""fixation"">+</div>","null","","","memory","exp","18","","","","","","","","","","","",""
"html-keyboard-response","189","668134","0.0-5.0-5.0-2.18","6981e6c2e26c88d954f297eb","not_provided","desktop","0","0","1","","","","","","working_memory","","null","<div class=""fixation"">+</div>","null","","","","","","","","","","","","","","","","",""
"html-keyboard-response","190","669062","0.0-5.0-5.0-3.18","6981e6c2e26c88d954f297eb","not_provided","desktop","0","0","1","","","","","","working_memory","","927","<img class='i' src=images/squares/yellow.png><div class=""fixation"">+</div>","k","","","test_squares","exp","18","4","s","false","sk","s","","","","","","",""
"html-keyboard-response","191","669577","0.0-5.0-5.0-4.18","6981e6c2e26c88d954f297eb","not_provided","desktop","0","0","1","","","","","","working_memory","","null","<div class=""fixation"">Incorrect</div>","null","","","","","","","","","","","","","","","","",""
"html-keyboard-response","192","670580","0.0-5.0-5.0-0.19","6981e6c2e26c88d954f297eb","not_provided","desktop","0","0","1","","","","","","working_memory","","null","<div class=""fixation"">+</div>","null","","","","","","","","","","","","","","","","",""
"html-keyboard-response","193","670782","0.0-5.0-5.0-1.19","6981e6c2e26c88d954f297eb","not_provided","desktop","0","0","1","","","","","","working_memory","","null","<img class='a' src=images/squares/green.png><img class='c' src=images/squares/cyan.png><img class='e' src=images/squares/blue.png><img class='d' src=images/squares/yellow.png><img class='h' src=images/squares/orange.png><img class='i' src=images/squares/magenta.png><img class='l' src=images/squares/black.png><img class='k' src=images/squares/brown.png><div class=""fixation"">+</div>","null","","","memory","exp","19","","","","","","","","","","","",""
"html-keyboard-response","194","671689","0.0-5.0-5.0-2.19","6981e6c2e26c88d954f297eb","not_provided","desktop","0","0","1","","","","","","working_memory","","null","<div class=""fixation"">+</div>","null","","","","","","","","","","","","","","","","",""
"html-keyboard-response","195","672421","0.0-5.0-5.0-3.19","6981e6c2e26c88d954f297eb","not_provided","desktop","0","0","1","","","","","","working_memory","","732","<img class='e' src=images/squares/blue.png><div class=""fixation"">+</div>","s","","","test_squares","exp","19","8","s","true","sk","s","","","","","","",""
"html-keyboard-response","196","672928","0.0-5.0-5.0-4.19","6981e6c2e26c88d954f297eb","not_provided","desktop","0","0","1","","","","","","working_memory","","null","<div class=""fixation"">Correct</div>","null","","","","","","","","","","","","","","","","",""
"html-keyboard-response","197","673942","0.0-5.0-5.0-0.20","6981e6c2e26c88d954f297eb","not_provided","desktop","0","0","1","","","","","","working_memory","","null","<div class=""fixation"">+</div>","null","","","","","","","","","","","","","","","","",""
"html-keyboard-response","198","674147","0.0-5.0-5.0-1.20","6981e6c2e26c88d954f297eb","not_provided","desktop","0","0","1","","","","","","working_memory","","null","<img class='c' src=images/squares/cyan.png><img class='e' src=images/squares/red.png><img class='h' src=images/squares/orange.png><img class='l' src=images/squares/blue.png><div class=""fixation"">+</div>","null","","","memory","exp","20","","","","","","","","","","","",""
"html-keyboard-response","199","675051","0.0-5.0-5.0-2.20","6981e6c2e26c88d954f297eb","not_provided","desktop","0","0","1","","","","","","working_memory","","null","<div class=""fixation"">+</div>","null","","","","","","","","","","","","","","","","",""
"html-keyboard-response","200","675654","0.0-5.0-5.0-3.20","6981e6c2e26c88d954f297eb","not_provided","desktop","0","0","1","","","","","","working_memory","","602","<img class='c' src=images/squares/magenta.png><div class=""fixation"">+</div>","k","","","test_squares","exp","20","4","k","true","sk","d","","","","","","",""
"html-keyboard-response","201","676166","0.0-5.0-5.0-4.20","6981e6c2e26c88d954f297eb","not_provided","desktop","0","0","1","","","","","","working_memory","","null","<div class=""fixation"">Correct</div>","null","","","","","","","","","","","","","","","","",""
"html-keyboard-response","202","677169","0.0-5.0-5.0-0.21","6981e6c2e26c88d954f297eb","not_provided","desktop","0","0","1","","","","","","working_memory","","null","<div class=""fixation"">+</div>","null","","","","","","","","","","","","","","","","",""
"html-keyboard-response","203","677372","0.0-5.0-5.0-1.21","6981e6c2e26c88d954f297eb","not_provided","desktop","0","0","1","","","","","","working_memory","","null","<img class='a' src=images/squares/yellow.png><img class='e' src=images/squares/blue.png><img class='g' src=images/squares/black.png><img class='k' src=images/squares/orange.png><div class=""fixation"">+</div>","null","","","memory","exp","21","","","","","","","","","","","",""
"html-keyboard-response","204","678274","0.0-5.0-5.0-2.21","6981e6c2e26c88d954f297eb","not_provided","desktop","0","0","1","","","","","","working_memory","","null","<div class=""fixation"">+</div>","null","","","","","","","","","","","","","","","","",""
"html-keyboard-response","205","679169","0.0-5.0-5.0-3.21","6981e6c2e26c88d954f297eb","not_provided","desktop","0","0","1","","","","","","working_memory","","894","<img class='g' src=images/squares/black.png><div class=""fixation"">+</div>","s","","","test_squares","exp","21","4","s","true","sk","s","","","","","","",""
"html-keyboard-response","206","679673","0.0-5.0-5.0-4.21","6981e6c2e26c88d954f297eb","not_provided","desktop","0","0","1","","","","","","working_memory","","null","<div class=""fixation"">Correct</div>","null","","","","","","","","","","","","","","","","",""
"html-keyboard-response","207","680685","0.0-5.0-5.0-0.22","6981e6c2e26c88d954f297eb","not_provided","desktop","0","0","1","","","","","","working_memory","","null","<div class=""fixation"">+</div>","null","","","","","","","","","","","","","","","","",""
"html-keyboard-response","208","680889","0.0-5.0-5.0-1.22","6981e6c2e26c88d954f297eb","not_provided","desktop","0","0","1","","","","","","working_memory","","null","<img class='c' src=images/squares/brown.png><img class='b' src=images/squares/black.png><img class='d' src=images/squares/orange.png><img class='e' src=images/squares/yellow.png><img class='i' src=images/squares/magenta.png><img class='g' src=images/squares/green.png><img class='l' src=images/squares/red.png><img class='j' src=images/squares/blue.png><div class=""fixation"">+</div>","null","","","memory","exp","22","","","","","","","","","","","",""
"html-keyboard-response","209","681794","0.0-5.0-5.0-2.22","6981e6c2e26c88d954f297eb","not_provided","desktop","0","0","1","","","","","","working_memory","","null","<div class=""fixation"">+</div>","null","","","","","","","","","","","","","","","","",""
"html-keyboard-response","210","682707","0.0-5.0-5.0-3.22","6981e6c2e26c88d954f297eb","not_provided","desktop","0","0","1","","","","","","working_memory","","913","<img class='g' src=images/squares/cyan.png><div class=""fixation"">+</div>","k","","","test_squares","exp","22","8","k","true","sk","d","","","","","","",""
"html-keyboard-response","211","683218","0.0-5.0-5.0-4.22","6981e6c2e26c88d954f297eb","not_provided","desktop","0","0","1","","","","","","working_memory","","null","<div class=""fixation"">Correct</div>","null","","","","","","","","","","","","","","","","",""
"html-keyboard-response","212","684222","0.0-5.0-5.0-0.23","6981e6c2e26c88d954f297eb","not_provided","desktop","0","0","1","","","","","","working_memory","","null","<div class=""fixation"">+</div>","null","","","","","","","","","","","","","","","","",""
"html-keyboard-response","213","684428","0.0-5.0-5.0-1.23","6981e6c2e26c88d954f297eb","not_provided","desktop","0","0","1","","","","","","working_memory","","null","<img class='a' src=images/squares/cyan.png><img class='c' src=images/squares/magenta.png><img class='f' src=images/squares/black.png><img class='d' src=images/squares/red.png><img class='h' src=images/squares/green.png><img class='g' src=images/squares/yellow.png><img class='l' src=images/squares/brown.png><img class='k' src=images/squares/orange.png><div class=""fixation"">+</div>","null","","","memory","exp","23","","","","","","","","","","","",""
"html-keyboard-response","214","685331","0.0-5.0-5.0-2.23","6981e6c2e26c88d954f297eb","not_provided","desktop","0","0","1","","","","","","working_memory","","null","<div class=""fixation"">+</div>","null","","","","","","","","","","","","","","","","",""
"html-keyboard-response","215","686027","0.0-5.0-5.0-3.23","6981e6c2e26c88d954f297eb","not_provided","desktop","0","0","1","","","","","","working_memory","","695","<img class='d' src=images/squares/blue.png><div class=""fixation"">+</div>","k","","","test_squares","exp","23","8","k","true","sk","d","","","","","","",""
"html-keyboard-response","216","686540","0.0-5.0-5.0-4.23","6981e6c2e26c88d954f297eb","not_provided","desktop","0","0","1","","","","","","working_memory","","null","<div class=""fixation"">Correct</div>","null","","","","","","","","","","","","","","","","",""
"html-keyboard-response","217","687541","0.0-5.0-5.0-0.24","6981e6c2e26c88d954f297eb","not_provided","desktop","0","0","1","","","","","","working_memory","","null","<div class=""fixation"">+</div>","null","","","","","","","","","","","","","","","","",""
"html-keyboard-response","218","687743","0.0-5.0-5.0-1.24","6981e6c2e26c88d954f297eb","not_provided","desktop","0","0","1","","","","","","working_memory","","null","<img class='a' src=images/squares/black.png><img class='c' src=images/squares/brown.png><img class='d' src=images/squares/blue.png><img class='f' src=images/squares/orange.png><img class='g' src=images/squares/red.png><img class='h' src=images/squares/green.png><img class='k' src=images/squares/cyan.png><img class='l' src=images/squares/magenta.png><div class=""fixation"">+</div>","null","","","memory","exp","24","","","","","","","","","","","",""
"html-keyboard-response","219","688652","0.0-5.0-5.0-2.24","6981e6c2e26c88d954f297eb","not_provided","desktop","0","0","1","","","","","","working_memory","","null","<div class=""fixation"">+</div>","null","","","","","","","","","","","","","","","","",""
"html-keyboard-response","220","689483","0.0-5.0-5.0-3.24","6981e6c2e26c88d954f297eb","not_provided","desktop","0","0","1","","","","","","working_memory","","830","<img class='a' src=images/squares/black.png><div class=""fixation"">+</div>","k","","","test_squares","exp","24","8","s","false","sk","s","","","","","","",""
"html-keyboard-response","221","689997","0.0-5.0-5.0-4.24","6981e6c2e26c88d954f297eb","not_provided","desktop","0","0","1","","","","","","working_memory","","null","<div class=""fixation"">Incorrect</div>","null","","","","","","","","","","","","","","","","",""
"html-keyboard-response","222","691002","0.0-5.0-5.0-0.25","6981e6c2e26c88d954f297eb","not_provided","desktop","0","0","1","","","","","","working_memory","","null","<div class=""fixation"">+</div>","null","","","","","","","","","","","","","","","","",""
"html-keyboard-response","223","691205","0.0-5.0-5.0-1.25","6981e6c2e26c88d954f297eb","not_provided","desktop","0","0","1","","","","","","working_memory","","null","<img class='a' src=images/squares/green.png><img class='e' src=images/squares/black.png><img class='h' src=images/squares/blue.png><img class='k' src=images/squares/brown.png><div class=""fixation"">+</div>","null","","","memory","exp","25","","","","","","","","","","","",""
"html-keyboard-response","224","692112","0.0-5.0-5.0-2.25","6981e6c2e26c88d954f297eb","not_provided","desktop","0","0","1","","","","","","working_memory","","null","<div class=""fixation"">+</div>","null","","","","","","","","","","","","","","","","",""
"html-keyboard-response","225","692643","0.0-5.0-5.0-3.25","6981e6c2e26c88d954f297eb","not_provided","desktop","0","0","1","","","","","","working_memory","","530","<img class='k' src=images/squares/brown.png><div class=""fixation"">+</div>","s","","","test_squares","exp","25","4","s","true","sk","s","","","","","","",""
"html-keyboard-response","226","693153","0.0-5.0-5.0-4.25","6981e6c2e26c88d954f297eb","not_provided","desktop","0","0","1","","","","","","working_memory","","null","<div class=""fixation"">Correct</div>","null","","","","","","","","","","","","","","","","",""
"html-keyboard-response","227","694165","0.0-5.0-5.0-0.26","6981e6c2e26c88d954f297eb","not_provided","desktop","0","0","1","","","","","","working_memory","","null","<div class=""fixation"">+</div>","null","","","","","","","","","","","","","","","","",""
"html-keyboard-response","228","694368","0.0-5.0-5.0-1.26","6981e6c2e26c88d954f297eb","not_provided","desktop","0","0","1","","","","","","working_memory","","null","<img class='c' src=images/squares/orange.png><img class='d' src=images/squares/green.png><img class='h' src=images/squares/yellow.png><img class='j' src=images/squares/blue.png><div class=""fixation"">+</div>","null","","","memory","exp","26","","","","","","","","","","","",""
"html-keyboard-response","229","695270","0.0-5.0-5.0-2.26","6981e6c2e26c88d954f297eb","not_provided","desktop","0","0","1","","","","","","working_memory","","null","<div class=""fixation"">+</div>","null","","","","","","","","","","","","","","","","",""
"html-keyboard-response","230","696030","0.0-5.0-5.0-3.26","6981e6c2e26c88d954f297eb","not_provided","desktop","0","0","1","","","","","","working_memory","","759","<img class='d' src=images/squares/green.png><div class=""fixation"">+</div>","s","","","test_squares","exp","26","4","s","true","sk","s","","","","","","",""
"html-keyboard-response","231","696545","0.0-5.0-5.0-4.26","6981e6c2e26c88d954f297eb","not_provided","desktop","0","0","1","","","","","","working_memory","","null","<div class=""fixation"">Correct</div>","null","","","","","","","","","","","","","","","","",""
"html-keyboard-response","232","697557","0.0-5.0-5.0-0.27","6981e6c2e26c88d954f297eb","not_provided","desktop","0","0","1","","","","","","working_memory","","null","<div class=""fixation"">+</div>","null","","","","","","","","","","","","","","","","",""
"html-keyboard-response","233","697760","0.0-5.0-5.0-1.27","6981e6c2e26c88d954f297eb","not_provided","desktop","0","0","1","","","","","","working_memory","","null","<img class='c' src=images/squares/brown.png><img class='b' src=images/squares/yellow.png><img class='e' src=images/squares/black.png><img class='f' src=images/squares/magenta.png><img class='h' src=images/squares/orange.png><img class='i' src=images/squares/blue.png><img class='k' src=images/squares/green.png><img class='l' src=images/squares/cyan.png><div class=""fixation"">+</div>","null","","","memory","exp","27","","","","","","","","","","","",""
"html-keyboard-response","234","698670","0.0-5.0-5.0-2.27","6981e6c2e26c88d954f297eb","not_provided","desktop","0","0","1","","","","","","working_memory","","null","<div class=""fixation"">+</div>","null","","","","","","","","","","","","","","","","",""
"html-keyboard-response","235","699470","0.0-5.0-5.0-3.27","6981e6c2e26c88d954f297eb","not_provided","desktop","0","0","1","","","","","","working_memory","","799","<img class='b' src=images/squares/yellow.png><div class=""fixation"">+</div>","s","","","test_squares","exp","27","8","s","true","sk","s","","","","","","",""
"html-keyboard-response","236","699976","0.0-5.0-5.0-4.27","6981e6c2e26c88d954f297eb","not_provided","desktop","0","0","1","","","","","","working_memory","","null","<div class=""fixation"">Correct</div>","null","","","","","","","","","","","","","","","","",""
"html-keyboard-response","237","700988","0.0-5.0-5.0-0.28","6981e6c2e26c88d954f297eb","not_provided","desktop","0","0","1","","","","","","working_memory","","null","<div class=""fixation"">+</div>","null","","","","","","","","","","","","","","","","",""
"html-keyboard-response","238","701192","0.0-5.0-5.0-1.28","6981e6c2e26c88d954f297eb","not_provided","desktop","0","0","1","","","","","","working_memory","","null","<img class='b' src=images/squares/cyan.png><img class='c' src=images/squares/brown.png><img class='e' src=images/squares/red.png><img class='f' src=images/squares/magenta.png><img class='i' src=images/squares/orange.png><img class='h' src=images/squares/yellow.png><img class='l' src=images/squares/green.png><img class='j' src=images/squares/black.png><div class=""fixation"">+</div>","null","","","memory","exp","28","","","","","","","","","","","",""
"html-keyboard-response","239","702097","0.0-5.0-5.0-2.28","6981e6c2e26c88d954f297eb","not_provided","desktop","0","0","1","","","","","","working_memory","","null","<div class=""fixation"">+</div>","null","","","","","","","","","","","","","","","","",""
"html-keyboard-response","240","703104","0.0-5.0-5.0-3.28","6981e6c2e26c88d954f297eb","not_provided","desktop","0","0","1","","","","","","working_memory","","1005","<img class='i' src=images/squares/blue.png><div class=""fixation"">+</div>","k","","","test_squares","exp","28","8","k","true","sk","d","","","","","","",""
"html-keyboard-response","241","703619","0.0-5.0-5.0-4.28","6981e6c2e26c88d954f297eb","not_provided","desktop","0","0","1","","","","","","working_memory","","null","<div class=""fixation"">Correct</div>","null","","","","","","","","","","","","","","","","",""
"html-keyboard-response","242","704634","0.0-5.0-5.0-0.29","6981e6c2e26c88d954f297eb","not_provided","desktop","0","0","1","","","","","","working_memory","","null","<div class=""fixation"">+</div>","null","","","","","","","","","","","","","","","","",""
"html-keyboard-response","243","704837","0.0-5.0-5.0-1.29","6981e6c2e26c88d954f297eb","not_provided","desktop","0","0","1","","","","","","working_memory","","null","<img class='a' src=images/squares/orange.png><img class='e' src=images/squares/red.png><img class='g' src=images/squares/yellow.png><img class='j' src=images/squares/green.png><div class=""fixation"">+</div>","null","","","memory","exp","29","","","","","","","","","","","",""
"html-keyboard-response","244","705743","0.0-5.0-5.0-2.29","6981e6c2e26c88d954f297eb","not_provided","desktop","0","0","1","","","","","","working_memory","","null","<div class=""fixation"">+</div>","null","","","","","","","","","","","","","","","","",""
"html-keyboard-response","245","706621","0.0-5.0-5.0-3.29","6981e6c2e26c88d954f297eb","not_provided","desktop","0","0","1","","","","","","working_memory","","876","<img class='e' src=images/squares/blue.png><div class=""fixation"">+</div>","k","","","test_squares","exp","29","4","k","true","sk","d","","","","","","",""
"html-keyboard-response","246","707135","0.0-5.0-5.0-4.29","6981e6c2e26c88d954f297eb","not_provided","desktop","0","0","1","","","","","","working_memory","","null","<div class=""fixation"">Correct</div>","null","","","","","","","","","","","","","","","","",""
"html-keyboard-response","247","708148","0.0-5.0-5.0-0.30","6981e6c2e26c88d954f297eb","not_provided","desktop","0","0","1","","","","","","working_memory","","null","<div class=""fixation"">+</div>","null","","","","","","","","","","","","","","","","",""
"html-keyboard-response","248","708351","0.0-5.0-5.0-1.30","6981e6c2e26c88d954f297eb","not_provided","desktop","0","0","1","","","","","","working_memory","","null","<img class='a' src=images/squares/cyan.png><img class='e' src=images/squares/red.png><img class='h' src=images/squares/magenta.png><img class='k' src=images/squares/brown.png><div class=""fixation"">+</div>","null","","","memory","exp","30","","","","","","","","","","","",""
"html-keyboard-response","249","709255","0.0-5.0-5.0-2.30","6981e6c2e26c88d954f297eb","not_provided","desktop","0","0","1","","","","","","working_memory","","null","<div class=""fixation"">+</div>","null","","","","","","","","","","","","","","","","",""
"html-keyboard-response","250","709845","0.0-5.0-5.0-3.30","6981e6c2e26c88d954f297eb","not_provided","desktop","0","0","1","","","","","","working_memory","","590","<img class='k' src=images/squares/brown.png><div class=""fixation"">+</div>","s","","","test_squares","exp","30","4","s","true","sk","s","","","","","","",""
"html-keyboard-response","251","710356","0.0-5.0-5.0-4.30","6981e6c2e26c88d954f297eb","not_provided","desktop","0","0","1","","","","","","working_memory","","null","<div class=""fixation"">Correct</div>","null","","","","","","","","","","","","","","","","",""
"html-keyboard-response","252","711367","0.0-5.0-5.0-0.31","6981e6c2e26c88d954f297eb","not_provided","desktop","0","0","1","","","","","","working_memory","","null","<div class=""fixation"">+</div>","null","","","","","","","","","","","","","","","","",""
"html-keyboard-response","253","711569","0.0-5.0-5.0-1.31","6981e6c2e26c88d954f297eb","not_provided","desktop","0","0","1","","","","","","working_memory","","null","<img class='b' src=images/squares/cyan.png><img class='d' src=images/squares/green.png><img class='h' src=images/squares/yellow.png><img class='k' src=images/squares/orange.png><div class=""fixation"">+</div>","null","","","memory","exp","31","","","","","","","","","","","",""
"html-keyboard-response","254","712479","0.0-5.0-5.0-2.31","6981e6c2e26c88d954f297eb","not_provided","desktop","0","0","1","","","","","","working_memory","","null","<div class=""fixation"">+</div>","null","","","","","","","","","","","","","","","","",""
"html-keyboard-response","255","713892","0.0-5.0-5.0-3.31","6981e6c2e26c88d954f297eb","not_provided","desktop","0","0","1","","","","","","working_memory","","1411","<img class='h' src=images/squares/yellow.png><div class=""fixation"">+</div>","s","","","test_squares","exp","31","4","s","true","sk","s","","","","","","",""
"html-keyboard-response","256","714408","0.0-5.0-5.0-4.31","6981e6c2e26c88d954f297eb","not_provided","desktop","0","0","1","","","","","","working_memory","","null","<div class=""fixation"">Correct</div>","null","","","","","","","","","","","","","","","","",""
"html-keyboard-response","257","715411","0.0-5.0-5.0-0.32","6981e6c2e26c88d954f297eb","not_provided","desktop","0","0","1","","","","","","working_memory","","null","<div class=""fixation"">+</div>","null","","","","","","","","","","","","","","","","",""
"html-keyboard-response","258","715614","0.0-5.0-5.0-1.32","6981e6c2e26c88d954f297eb","not_provided","desktop","0","0","1","","","","","","working_memory","","null","<img class='b' src=images/squares/magenta.png><img class='d' src=images/squares/green.png><img class='h' src=images/squares/brown.png><img class='k' src=images/squares/cyan.png><div class=""fixation"">+</div>","null","","","memory","exp","32","","","","","","","","","","","",""
"html-keyboard-response","259","716519","0.0-5.0-5.0-2.32","6981e6c2e26c88d954f297eb","not_provided","desktop","0","0","1","","","","","","working_memory","","null","<div class=""fixation"">+</div>","null","","","","","","","","","","","","","","","","",""
"html-keyboard-response","260","717082","0.0-5.0-5.0-3.32","6981e6c2e26c88d954f297eb","not_provided","desktop","0","0","1","","","","","","working_memory","","563","<img class='d' src=images/squares/green.png><div class=""fixation"">+</div>","s","","","test_squares","exp","32","4","s","true","sk","s","","","","","","",""
"html-keyboard-response","261","717584","0.0-5.0-5.0-4.32","6981e6c2e26c88d954f297eb","not_provided","desktop","0","0","1","","","","","","working_memory","","null","<div class=""fixation"">Correct</div>","null","","","","","","","","","","","","","","","","",""
"html-keyboard-response","262","718601","0.0-5.0-5.0-0.33","6981e6c2e26c88d954f297eb","not_provided","desktop","0","0","1","","","","","","working_memory","","null","<div class=""fixation"">+</div>","null","","","","","","","","","","","","","","","","",""
"html-keyboard-response","263","718804","0.0-5.0-5.0-1.33","6981e6c2e26c88d954f297eb","not_provided","desktop","0","0","1","","","","","","working_memory","","null","<img class='c' src=images/squares/red.png><img class='e' src=images/squares/orange.png><img class='i' src=images/squares/magenta.png><img class='k' src=images/squares/blue.png><div class=""fixation"">+</div>","null","","","memory","exp","33","","","","","","","","","","","",""
"html-keyboard-response","264","719711","0.0-5.0-5.0-2.33","6981e6c2e26c88d954f297eb","not_provided","desktop","0","0","1","","","","","","working_memory","","null","<div class=""fixation"">+</div>","null","","","","","","","","","","","","","","","","",""
"html-keyboard-response","265","720156","0.0-5.0-5.0-3.33","6981e6c2e26c88d954f297eb","not_provided","desktop","0","0","1","","","","","","working_memory","","444","<img class='k' src=images/squares/blue.png><div class=""fixation"">+</div>","s","","","test_squares","exp","33","4","s","true","sk","s","","","","","","",""
"html-keyboard-response","266","720671","0.0-5.0-5.0-4.33","6981e6c2e26c88d954f297eb","not_provided","desktop","0","0","1","","","","","","working_memory","","null","<div class=""fixation"">Correct</div>","null","","","","","","","","","","","","","","","","",""
"html-keyboard-response","267","721682","0.0-5.0-5.0-0.34","6981e6c2e26c88d954f297eb","not_provided","desktop","0","0","1","","","","","","working_memory","","null","<div class=""fixation"">+</div>","null","","","","","","","","","","","","","","","","",""
"html-keyboard-response","268","721884","0.0-5.0-5.0-1.34","6981e6c2e26c88d954f297eb","not_provided","desktop","0","0","1","","","","","","working_memory","","null","<img class='b' src=images/squares/cyan.png><img class='e' src=images/squares/magenta.png><img class='g' src=images/squares/black.png><img class='j' src=images/squares/blue.png><div class=""fixation"">+</div>","null","","","memory","exp","34","","","","","","","","","","","",""
"html-keyboard-response","269","722791","0.0-5.0-5.0-2.34","6981e6c2e26c88d954f297eb","not_provided","desktop","0","0","1","","","","","","working_memory","","null","<div class=""fixation"">+</div>","null","","","","","","","","","","","","","","","","",""
"html-keyboard-response","270","723152","0.0-5.0-5.0-3.34","6981e6c2e26c88d954f297eb","not_provided","desktop","0","0","1","","","","","","working_memory","","360","<img class='j' src=images/squares/blue.png><div class=""fixation"">+</div>","s","","","test_squares","exp","34","4","s","true","sk","s","","","","","","",""
"html-keyboard-response","271","723664","0.0-5.0-5.0-4.34","6981e6c2e26c88d954f297eb","not_provided","desktop","0","0","1","","","","","","working_memory","","null","<div class=""fixation"">Correct</div>","null","","","","","","","","","","","","","","","","",""
"html-keyboard-response","272","724668","0.0-5.0-5.0-0.35","6981e6c2e26c88d954f297eb","not_provided","desktop","0","0","1","","","","","","working_memory","","null","<div class=""fixation"">+</div>","null","","","","","","","","","","","","","","","","",""
"html-keyboard-response","273","724871","0.0-5.0-5.0-1.35","6981e6c2e26c88d954f297eb","not_provided","desktop","0","0","1","","","","","","working_memory","","null","<img class='b' src=images/squares/orange.png><img class='c' src=images/squares/blue.png><img class='e' src=images/squares/red.png><img class='f' src=images/squares/green.png><img class='h' src=images/squares/black.png><img class='g' src=images/squares/cyan.png><img class='k' src=images/squares/brown.png><img class='l' src=images/squares/yellow.png><div class=""fixation"">+</div>","null","","","memory","exp","35","","","","","","","","","","","",""
"html-keyboard-response","274","725775","0.0-5.0-5.0-2.35","6981e6c2e26c88d954f297eb","not_provided","desktop","0","0","1","","","","","","working_memory","","null","<div class=""fixation"">+</div>","null","","","","","","","","","","","","","","","","",""
"html-keyboard-response","275","726276","0.0-5.0-5.0-3.35","6981e6c2e26c88d954f297eb","not_provided","desktop","0","0","1","","","","","","working_memory","","500","<img class='b' src=images/squares/orange.png><div class=""fixation"">+</div>","s","","","test_squares","exp","35","8","s","true","sk","s","","","","","","",""
"html-keyboard-response","276","726791","0.0-5.0-5.0-4.35","6981e6c2e26c88d954f297eb","not_provided","desktop","0","0","1","","","","","","working_memory","","null","<div class=""fixation"">Correct</div>","null","","","","","","","","","","","","","","","","",""
"html-keyboard-response","277","727793","0.0-5.0-5.0-0.36","6981e6c2e26c88d954f297eb","not_provided","desktop","0","0","1","","","","","","working_memory","","null","<div class=""fixation"">+</div>","null","","","","","","","","","","","","","","","","",""
"html-keyboard-response","278","727997","0.0-5.0-5.0-1.36","6981e6c2e26c88d954f297eb","not_provided","desktop","0","0","1","","","","","","working_memory","","null","<img class='c' src=images/squares/magenta.png><img class='d' src=images/squares/yellow.png><img class='g' src=images/squares/brown.png><img class='k' src=images/squares/orange.png><div class=""fixation"">+</div>","null","","","memory","exp","36","","","","","","","","","","","",""
"html-keyboard-response","279","728907","0.0-5.0-5.0-2.36","6981e6c2e26c88d954f297eb","not_provided","desktop","0","0","1","","","","","","working_memory","","null","<div class=""fixation"">+</div>","null","","","","","","","","","","","","","","","","",""
"html-keyboard-response","280","729669","0.0-5.0-5.0-3.36","6981e6c2e26c88d954f297eb","not_provided","desktop","0","0","1","","","","","","working_memory","","762","<img class='k' src=images/squares/black.png><div class=""fixation"">+</div>","k","","","test_squares","exp","36","4","k","true","sk","d","","","","","","",""
"html-keyboard-response","281","730170","0.0-5.0-5.0-4.36","6981e6c2e26c88d954f297eb","not_provided","desktop","0","0","1","","","","","","working_memory","","null","<div class=""fixation"">Correct</div>","null","","","","","","","","","","","","","","","","",""
"html-keyboard-response","282","731180","0.0-5.0-5.0-0.37","6981e6c2e26c88d954f297eb","not_provided","desktop","0","0","1","","","","","","working_memory","","null","<div class=""fixation"">+</div>","null","","","","","","","","","","","","","","","","",""
"html-keyboard-response","283","731381","0.0-5.0-5.0-1.37","6981e6c2e26c88d954f297eb","not_provided","desktop","0","0","1","","","","","","working_memory","","null","<img class='c' src=images/squares/red.png><img class='a' src=images/squares/black.png><img class='f' src=images/squares/orange.png><img class='d' src=images/squares/yellow.png><img class='i' src=images/squares/cyan.png><img class='g' src=images/squares/magenta.png><img class='k' src=images/squares/blue.png><img class='l' src=images/squares/green.png><div class=""fixation"">+</div>","null","","","memory","exp","37","","","","","","","","","","","",""
"html-keyboard-response","284","732289","0.0-5.0-5.0-2.37","6981e6c2e26c88d954f297eb","not_provided","desktop","0","0","1","","","","","","working_memory","","null","<div class=""fixation"">+</div>","null","","","","","","","","","","","","","","","","",""
"html-keyboard-response","285","733196","0.0-5.0-5.0-3.37","6981e6c2e26c88d954f297eb","not_provided","desktop","0","0","1","","","","","","working_memory","","905","<img class='i' src=images/squares/brown.png><div class=""fixation"">+</div>","k","","","test_squares","exp","37","8","k","true","sk","d","","","","","","",""
"html-keyboard-response","286","733707","0.0-5.0-5.0-4.37","6981e6c2e26c88d954f297eb","not_provided","desktop","0","0","1","","","","","","working_memory","","null","<div class=""fixation"">Correct</div>","null","","","","","","","","","","","","","","","","",""
"html-keyboard-response","287","734709","0.0-5.0-5.0-0.38","6981e6c2e26c88d954f297eb","not_provided","desktop","0","0","1","","","","","","working_memory","","null","<div class=""fixation"">+</div>","null","","","","","","","","","","","","","","","","",""
"html-keyboard-response","288","734912","0.0-5.0-5.0-1.38","6981e6c2e26c88d954f297eb","not_provided","desktop","0","0","1","","","","","","working_memory","","null","<img class='a' src=images/squares/blue.png><img class='b' src=images/squares/magenta.png><img class='f' src=images/squares/cyan.png><img class='d' src=images/squares/red.png><img class='g' src=images/squares/black.png><img class='i' src=images/squares/brown.png><img class='j' src=images/squares/orange.png><img class='l' src=images/squares/green.png><div class=""fixation"">+</div>","null","","","memory","exp","38","","","","","","","","","","","",""
"html-keyboard-response","289","735817","0.0-5.0-5.0-2.38","6981e6c2e26c88d954f297eb","not_provided","desktop","0","0","1","","","","","","working_memory","","null","<div class=""fixation"">+</div>","null","","","","","","","","","","","","","","","","",""
"html-keyboard-response","290","736615","0.0-5.0-5.0-3.38","6981e6c2e26c88d954f297eb","not_provided","desktop","0","0","1","","","","","","working_memory","","797","<img class='d' src=images/squares/red.png><div class=""fixation"">+</div>","k","","","test_squares","exp","38","8","s","false","sk","s","","","","","","",""
"html-keyboard-response","291","737116","0.0-5.0-5.0-4.38","6981e6c2e26c88d954f297eb","not_provided","desktop","0","0","1","","","","","","working_memory","","null","<div class=""fixation"">Incorrect</div>","null","","","","","","","","","","","","","","","","",""
"html-keyboard-response","292","738122","0.0-5.0-5.0-0.39","6981e6c2e26c88d954f297eb","not_provided","desktop","0","0","1","","","","","","working_memory","","null","<div class=""fixation"">+</div>","null","","","","","","","","","","","","","","","","",""
"html-keyboard-response","293","738325","0.0-5.0-5.0-1.39","6981e6c2e26c88d954f297eb","not_provided","desktop","0","0","1","","","","","","working_memory","","null","<img class='b' src=images/squares/black.png><img class='e' src=images/squares/red.png><img class='i' src=images/squares/green.png><img class='j' src=images/squares/cyan.png><div class=""fixation"">+</div>","null","","","memory","exp","39","","","","","","","","","","","",""
"html-keyboard-response","294","739229","0.0-5.0-5.0-2.39","6981e6c2e26c88d954f297eb","not_provided","desktop","0","0","1","","","","","","working_memory","","null","<div class=""fixation"">+</div>","null","","","","","","","","","","","","","","","","",""
"html-keyboard-response","295","740185","0.0-5.0-5.0-3.39","6981e6c2e26c88d954f297eb","not_provided","desktop","0","0","1","","","","","","working_memory","","955","<img class='i' src=images/squares/green.png><div class=""fixation"">+</div>","k","","","test_squares","exp","39","4","s","false","sk","s","","","","","","",""
"html-keyboard-response","296","740696","0.0-5.0-5.0-4.39","6981e6c2e26c88d954f297eb","not_provided","desktop","0","0","1","","","","","","working_memory","","null","<div class=""fixation"">Incorrect</div>","null","","","","","","","","","","","","","","","","",""
"html-keyboard-response","297","741702","0.0-5.0-5.0-0.40","6981e6c2e26c88d954f297eb","not_provided","desktop","0","0","1","","","","","","working_memory","","null","<div class=""fixation"">+</div>","null","","","","","","","","","","","","","","","","",""
"html-keyboard-response","298","741906","0.0-5.0-5.0-1.40","6981e6c2e26c88d954f297eb","not_provided","desktop","0","0","1","","","","","","working_memory","","null","<img class='a' src=images/squares/brown.png><img class='c' src=images/squares/blue.png><img class='d' src=images/squares/magenta.png><img class='f' src=images/squares/yellow.png><img class='g' src=images/squares/red.png><img class='h' src=images/squares/cyan.png><img class='k' src=images/squares/black.png><img class='l' src=images/squares/green.png><div class=""fixation"">+</div>","null","","","memory","exp","40","","","","","","","","","","","",""
