"trial_type","trial_index","time_elapsed","internal_node_id","subject_id","study_id","device_type","blur_count","fullscreen_exit_count","failed_attention_checks","success","timeout","failed_images","failed_audio","failed_video","phase","value","rt","stimulus","response","view_history","question_order","trial_name","block_type","trial_num","set_size","correct_response","accuracy","mapping","condition","prompt","flipped","attention","expected_answer","category","question_index","task"
"pavlovia","0","1650","0.0-0.0","6981824afeedd525121adce4","not_provided","desktop","0","0","0","","","","","","","","","","","","","","","","","","","","","","","","","","",""
"preload","1","2567","0.0-2.0","6981824afeedd525121adce4","not_provided","desktop","0","0","0","true","false","[]","[]","[]","","","","","","","","","","","","","","","","","","","","","",""
"html-keyboard-response","2","9486","0.0-3.0-0.0","6981824afeedd525121adce4","not_provided","desktop","0","0","0","","","","","","captcha","","","","","","","","","","","","","","","","","","","","",""
"fullscreen","3","23702","0.0-4.0","6981824afeedd525121adce4","not_provided","desktop","0","0","0","true","","","","","setup","","","","","","","","","","","","","","","","","","","","",""
"call-function","4","23703","0.0-5.0-0.0","6981824afeedd525121adce4","not_provided","desktop","0","0","0","","","","","","working_memory","","","","","","","","","","","","","","","","","","","","",""
"html-keyboard-response","5","88452","0.0-5.0-1.0","6981824afeedd525121adce4","not_provided","desktop","0","0","0","","","","","","working_memory","","64748","<div style=""text-align:center;font-family:sans-serif;""><p>Welcome to the luck game experiment!</p><p>This two-day experiment takes part in a study aimed at developing better clinical treatments.</p><p>We appreciate your participation and require your full concentration.</p><br><p>This is a two-day study. Payment (£6/hour) is only given upon completing both parts today and tomorrow.</p><p>You must finish the second part for compensation. After today, you'll receive an invitation for tomorrow's session.</p><p>Please ensure you can attend both sessions before proceeding. Otherwise, you may exit now.</p><p>If you have any questions, please contact us via prolific.</p><br><p>Please stay attentive and in fullscreen mode to ensure payment.</p><p>Thank you for participating!</p><br><p id=""continue-prompt"" style=""visibility:hidden;""><b>Press any key to continue.</b></p></div>"," ","","","","","","","","","","","","","","","","",""
"instructions","6","183353","0.0-5.0-2.0-0.0","6981824afeedd525121adce4","not_provided","desktop","0","0","0","","","","","","working_memory","","94901","","","[{""page_index"":0,""viewing_time"":3739},{""page_index"":1,""viewing_time"":3564},{""page_index"":2,""viewing_time"":7460},{""page_index"":1,""viewing_time"":975},{""page_index"":2,""viewing_time"":969},{""page_index"":3,""viewing_time"":5941},{""page_index"":4,""viewing_time"":15687},{""page_index"":5,""viewing_time"":19532},{""page_index"":6,""viewing_time"":18340},{""page_index"":7,""viewing_time"":7780},{""page_index"":6,""viewing_time"":1132},{""page_index"":7,""viewing_time"":1868},{""page_index"":6,""viewing_time"":456},{""page_index"":5,""viewing_time"":1151},{""page_index"":6,""viewing_time"":454},{""page_index"":7,""viewing_time"":582},{""page_index"":8,""viewing_time"":5271}]","","","","","","","","","","","","","","","",""
"survey-multi-choice","7","255190","0.0-5.0-2.0-1.0","6981824afeedd525121adce4","not_provided","desktop","0","0","0","","","","","","working_memory","","71835","","{""set_size"":""4 or 8"",""steps"":""True"",""choose_square"":""Press the 's' or 'k' key."",""remember"":""The colors and locations of the 'memory' squares"",""task"":""To tell if the 'test' square is in the same color as the square previously appearing in this location""}","","[0,1,2,3,4]","test_squares_quiz","","","","","","","","","","","","","",""
"html-keyboard-response","8","294635","0.0-5.0-3.0-0.0","6981824afeedd525121adce4","not_provided","desktop","0","0","0","","","","","","working_memory","","39443","<p>We will now start some practice trials.<br><b>The practice trials will also include some trials in which you will need to remember only one square to make sure you understood the instructions.</b><br>You may already want to be ready with your fingers on '<b>s</b>' and '<b>k</b>'.<br><img class=""wm-example-img"" src=""images/examples/keyboard.png""><br><b style=""font-size:1.2em;"">&lsquo;S&rsquo; = SAME &nbsp;&nbsp;&nbsp; &lsquo;K&rsquo; = DIFFERENT</b><br><br><u>Please try to be as accurate as possible.</u><br><br><b>Press any key to begin</b></p>"," ","","","","","","","","","","","","","","","","",""
"html-keyboard-response","9","296656","0.0-5.0-3.0-1.0-0.0","6981824afeedd525121adce4","not_provided","desktop","0","0","0","","","","","","working_memory","","null","<div class=""fixation"">+</div>","null","","","","","","","","","","","","","","","","",""
"html-keyboard-response","10","296862","0.0-5.0-3.0-1.0-1.0","6981824afeedd525121adce4","not_provided","desktop","0","0","0","","","","","","working_memory","","null","<img class='lower1' src=images/squares/green.png><div class=""fixation"">+</div>","null","","","memory","practice","0","1","","","","","","","","","","",""
"html-keyboard-response","11","297768","0.0-5.0-3.0-1.0-2.0","6981824afeedd525121adce4","not_provided","desktop","0","0","0","","","","","","working_memory","","null","<div class=""fixation"">+</div>","null","","","","","","","","","","","","","","","","",""
"html-keyboard-response","12","300978","0.0-5.0-3.0-1.0-3.0","6981824afeedd525121adce4","not_provided","desktop","0","0","0","","","","","","working_memory","","3209","<img class='lower1' src=images/squares/magenta.png><div class=""fixation"">+</div>","k","","","test","practice","0","1","k","true","","","","","","","","",""
"html-keyboard-response","13","301494","0.0-5.0-3.0-1.0-4.0","6981824afeedd525121adce4","not_provided","desktop","0","0","0","","","","","","working_memory","","null","<div class=""fixation"">Correct</div>","null","","","","","","","","","","","","","","","","",""
"html-keyboard-response","14","302506","0.0-5.0-3.0-1.0-0.1","6981824afeedd525121adce4","not_provided","desktop","0","0","0","","","","","","working_memory","","null","<div class=""fixation"">+</div>","null","","","","","","","","","","","","","","","","",""
"html-keyboard-response","15","302719","0.0-5.0-3.0-1.0-1.1","6981824afeedd525121adce4","not_provided","desktop","0","0","0","","","","","","working_memory","","null","<img class='a' src=images/squares/brown.png><img class='c' src=images/squares/yellow.png><img class='f' src=images/squares/blue.png><img class='d' src=images/squares/orange.png><img class='i' src=images/squares/magenta.png><img class='g' src=images/squares/cyan.png><img class='k' src=images/squares/black.png><img class='l' src=images/squares/red.png><div class=""fixation"">+</div>","null","","","memory","practice","1","8","","","","","","","","","","",""
"html-keyboard-response","16","303631","0.0-5.0-3.0-1.0-2.1","6981824afeedd525121adce4","not_provided","desktop","0","0","0","","","","","","working_memory","","null","<div class=""fixation"">+</div>","null","","","","","","","","","","","","","","","","",""
"html-keyboard-response","17","305170","0.0-5.0-3.0-1.0-3.1","6981824afeedd525121adce4","not_provided","desktop","0","0","0","","","","","","working_memory","","1538","<img class='k' src=images/squares/black.png><div class=""fixation"">+</div>","k","","","test","practice","1","8","s","false","","","","","","","","",""
"html-keyboard-response","18","305676","0.0-5.0-3.0-1.0-4.1","6981824afeedd525121adce4","not_provided","desktop","0","0","0","","","","","","working_memory","","null","<div class=""fixation"">Incorrect</div>","null","","","","","","","","","","","","","","","","",""
"html-keyboard-response","19","306688","0.0-5.0-3.0-1.0-0.2","6981824afeedd525121adce4","not_provided","desktop","0","0","0","","","","","","working_memory","","null","<div class=""fixation"">+</div>","null","","","","","","","","","","","","","","","","",""
"html-keyboard-response","20","306891","0.0-5.0-3.0-1.0-1.2","6981824afeedd525121adce4","not_provided","desktop","0","0","0","","","","","","working_memory","","null","<img class='a' src=images/squares/brown.png><img class='c' src=images/squares/red.png><img class='e' src=images/squares/yellow.png><img class='f' src=images/squares/magenta.png><img class='g' src=images/squares/blue.png><img class='i' src=images/squares/black.png><img class='j' src=images/squares/orange.png><img class='l' src=images/squares/cyan.png><div class=""fixation"">+</div>","null","","","memory","practice","2","8","","","","","","","","","","",""
"html-keyboard-response","21","307794","0.0-5.0-3.0-1.0-2.2","6981824afeedd525121adce4","not_provided","desktop","0","0","0","","","","","","working_memory","","null","<div class=""fixation"">+</div>","null","","","","","","","","","","","","","","","","",""
"html-keyboard-response","22","309418","0.0-5.0-3.0-1.0-3.2","6981824afeedd525121adce4","not_provided","desktop","0","0","0","","","","","","working_memory","","1624","<img class='j' src=images/squares/green.png><div class=""fixation"">+</div>","k","","","test","practice","2","8","k","true","","","","","","","","",""
"html-keyboard-response","23","309922","0.0-5.0-3.0-1.0-4.2","6981824afeedd525121adce4","not_provided","desktop","0","0","0","","","","","","working_memory","","null","<div class=""fixation"">Correct</div>","null","","","","","","","","","","","","","","","","",""
"html-keyboard-response","24","310934","0.0-5.0-3.0-1.0-0.3","6981824afeedd525121adce4","not_provided","desktop","0","0","0","","","","","","working_memory","","null","<div class=""fixation"">+</div>","null","","","","","","","","","","","","","","","","",""
"html-keyboard-response","25","311144","0.0-5.0-3.0-1.0-1.3","6981824afeedd525121adce4","not_provided","desktop","0","0","0","","","","","","working_memory","","null","<img class='upper3' src=images/squares/magenta.png><div class=""fixation"">+</div>","null","","","memory","practice","3","1","","","","","","","","","","",""
"html-keyboard-response","26","312056","0.0-5.0-3.0-1.0-2.3","6981824afeedd525121adce4","not_provided","desktop","0","0","0","","","","","","working_memory","","null","<div class=""fixation"">+</div>","null","","","","","","","","","","","","","","","","",""
"html-keyboard-response","27","313594","0.0-5.0-3.0-1.0-3.3","6981824afeedd525121adce4","not_provided","desktop","0","0","0","","","","","","working_memory","","1537","<img class='upper3' src=images/squares/magenta.png><div class=""fixation"">+</div>","s","","","test","practice","3","1","s","true","","","","","","","","",""
"html-keyboard-response","28","314106","0.0-5.0-3.0-1.0-4.3","6981824afeedd525121adce4","not_provided","desktop","0","0","0","","","","","","working_memory","","null","<div class=""fixation"">Correct</div>","null","","","","","","","","","","","","","","","","",""
"html-keyboard-response","29","315108","0.0-5.0-3.0-1.0-0.4","6981824afeedd525121adce4","not_provided","desktop","0","0","0","","","","","","working_memory","","null","<div class=""fixation"">+</div>","null","","","","","","","","","","","","","","","","",""
"html-keyboard-response","30","315316","0.0-5.0-3.0-1.0-1.4","6981824afeedd525121adce4","not_provided","desktop","0","0","0","","","","","","working_memory","","null","<img class='b' src=images/squares/orange.png><img class='d' src=images/squares/red.png><img class='h' src=images/squares/cyan.png><img class='l' src=images/squares/brown.png><div class=""fixation"">+</div>","null","","","memory","practice","4","4","","","","","","","","","","",""
"html-keyboard-response","31","316218","0.0-5.0-3.0-1.0-2.4","6981824afeedd525121adce4","not_provided","desktop","0","0","0","","","","","","working_memory","","null","<div class=""fixation"">+</div>","null","","","","","","","","","","","","","","","","",""
"html-keyboard-response","32","317898","0.0-5.0-3.0-1.0-3.4","6981824afeedd525121adce4","not_provided","desktop","0","0","0","","","","","","working_memory","","1679","<img class='b' src=images/squares/orange.png><div class=""fixation"">+</div>","k","","","test","practice","4","4","s","false","","","","","","","","",""
"html-keyboard-response","33","318414","0.0-5.0-3.0-1.0-4.4","6981824afeedd525121adce4","not_provided","desktop","0","0","0","","","","","","working_memory","","null","<div class=""fixation"">Incorrect</div>","null","","","","","","","","","","","","","","","","",""
"html-keyboard-response","34","319418","0.0-5.0-3.0-1.0-0.5","6981824afeedd525121adce4","not_provided","desktop","0","0","0","","","","","","working_memory","","null","<div class=""fixation"">+</div>","null","","","","","","","","","","","","","","","","",""
"html-keyboard-response","35","319623","0.0-5.0-3.0-1.0-1.5","6981824afeedd525121adce4","not_provided","desktop","0","0","0","","","","","","working_memory","","null","<img class='lower1' src=images/squares/yellow.png><div class=""fixation"">+</div>","null","","","memory","practice","5","1","","","","","","","","","","",""
"html-keyboard-response","36","320537","0.0-5.0-3.0-1.0-2.5","6981824afeedd525121adce4","not_provided","desktop","0","0","0","","","","","","working_memory","","null","<div class=""fixation"">+</div>","null","","","","","","","","","","","","","","","","",""
"html-keyboard-response","37","321874","0.0-5.0-3.0-1.0-3.5","6981824afeedd525121adce4","not_provided","desktop","0","0","0","","","","","","working_memory","","1336","<img class='lower1' src=images/squares/black.png><div class=""fixation"">+</div>","k","","","test","practice","5","1","k","true","","","","","","","","",""
"html-keyboard-response","38","322383","0.0-5.0-3.0-1.0-4.5","6981824afeedd525121adce4","not_provided","desktop","0","0","0","","","","","","working_memory","","null","<div class=""fixation"">Correct</div>","null","","","","","","","","","","","","","","","","",""
"html-keyboard-response","39","323398","0.0-5.0-3.0-1.0-0.6","6981824afeedd525121adce4","not_provided","desktop","0","0","0","","","","","","working_memory","","null","<div class=""fixation"">+</div>","null","","","","","","","","","","","","","","","","",""
"html-keyboard-response","40","323600","0.0-5.0-3.0-1.0-1.6","6981824afeedd525121adce4","not_provided","desktop","0","0","0","","","","","","working_memory","","null","<img class='upper3' src=images/squares/orange.png><div class=""fixation"">+</div>","null","","","memory","practice","6","1","","","","","","","","","","",""
"html-keyboard-response","41","324507","0.0-5.0-3.0-1.0-2.6","6981824afeedd525121adce4","not_provided","desktop","0","0","0","","","","","","working_memory","","null","<div class=""fixation"">+</div>","null","","","","","","","","","","","","","","","","",""
"html-keyboard-response","42","325841","0.0-5.0-3.0-1.0-3.6","6981824afeedd525121adce4","not_provided","desktop","0","0","0","","","","","","working_memory","","1334","<img class='upper3' src=images/squares/brown.png><div class=""fixation"">+</div>","k","","","test","practice","6","1","k","true","","","","","","","","",""
"html-keyboard-response","43","326354","0.0-5.0-3.0-1.0-4.6","6981824afeedd525121adce4","not_provided","desktop","0","0","0","","","","","","working_memory","","null","<div class=""fixation"">Correct</div>","null","","","","","","","","","","","","","","","","",""
"html-keyboard-response","44","327358","0.0-5.0-3.0-1.0-0.7","6981824afeedd525121adce4","not_provided","desktop","0","0","0","","","","","","working_memory","","null","<div class=""fixation"">+</div>","null","","","","","","","","","","","","","","","","",""
"html-keyboard-response","45","327564","0.0-5.0-3.0-1.0-1.7","6981824afeedd525121adce4","not_provided","desktop","0","0","0","","","","","","working_memory","","null","<img class='a' src=images/squares/green.png><img class='d' src=images/squares/brown.png><img class='i' src=images/squares/orange.png><img class='j' src=images/squares/cyan.png><div class=""fixation"">+</div>","null","","","memory","practice","7","4","","","","","","","","","","",""
"html-keyboard-response","46","328466","0.0-5.0-3.0-1.0-2.7","6981824afeedd525121adce4","not_provided","desktop","0","0","0","","","","","","working_memory","","null","<div class=""fixation"">+</div>","null","","","","","","","","","","","","","","","","",""
"html-keyboard-response","47","330186","0.0-5.0-3.0-1.0-3.7","6981824afeedd525121adce4","not_provided","desktop","0","0","0","","","","","","working_memory","","1719","<img class='i' src=images/squares/blue.png><div class=""fixation"">+</div>","k","","","test","practice","7","4","k","true","","","","","","","","",""
"html-keyboard-response","48","330697","0.0-5.0-3.0-1.0-4.7","6981824afeedd525121adce4","not_provided","desktop","0","0","0","","","","","","working_memory","","null","<div class=""fixation"">Correct</div>","null","","","","","","","","","","","","","","","","",""
"html-keyboard-response","49","331704","0.0-5.0-3.0-1.0-0.8","6981824afeedd525121adce4","not_provided","desktop","0","0","0","","","","","","working_memory","","null","<div class=""fixation"">+</div>","null","","","","","","","","","","","","","","","","",""
"html-keyboard-response","50","331909","0.0-5.0-3.0-1.0-1.8","6981824afeedd525121adce4","not_provided","desktop","0","0","0","","","","","","working_memory","","null","<img class='b' src=images/squares/orange.png><img class='e' src=images/squares/cyan.png><img class='i' src=images/squares/black.png><img class='k' src=images/squares/blue.png><div class=""fixation"">+</div>","null","","","memory","practice","8","4","","","","","","","","","","",""
"html-keyboard-response","51","332813","0.0-5.0-3.0-1.0-2.8","6981824afeedd525121adce4","not_provided","desktop","0","0","0","","","","","","working_memory","","null","<div class=""fixation"">+</div>","null","","","","","","","","","","","","","","","","",""
"html-keyboard-response","52","334114","0.0-5.0-3.0-1.0-3.8","6981824afeedd525121adce4","not_provided","desktop","0","0","0","","","","","","working_memory","","1300","<img class='i' src=images/squares/red.png><div class=""fixation"">+</div>","k","","","test","practice","8","4","k","true","","","","","","","","",""
"html-keyboard-response","53","334625","0.0-5.0-3.0-1.0-4.8","6981824afeedd525121adce4","not_provided","desktop","0","0","0","","","","","","working_memory","","null","<div class=""fixation"">Correct</div>","null","","","","","","","","","","","","","","","","",""
"html-keyboard-response","54","335641","0.0-5.0-3.0-1.0-0.9","6981824afeedd525121adce4","not_provided","desktop","0","0","0","","","","","","working_memory","","null","<div class=""fixation"">+</div>","null","","","","","","","","","","","","","","","","",""
"html-keyboard-response","55","335853","0.0-5.0-3.0-1.0-1.9","6981824afeedd525121adce4","not_provided","desktop","0","0","0","","","","","","working_memory","","null","<img class='a' src=images/squares/black.png><img class='c' src=images/squares/cyan.png><img class='f' src=images/squares/red.png><img class='e' src=images/squares/magenta.png><img class='h' src=images/squares/green.png><img class='g' src=images/squares/blue.png><img class='j' src=images/squares/yellow.png><img class='k' src=images/squares/brown.png><div class=""fixation"">+</div>","null","","","memory","practice","9","8","","","","","","","","","","",""
"html-keyboard-response","56","336757","0.0-5.0-3.0-1.0-2.9","6981824afeedd525121adce4","not_provided","desktop","0","0","0","","","","","","working_memory","","null","<div class=""fixation"">+</div>","null","","","","","","","","","","","","","","","","",""
"html-keyboard-response","57","338690","0.0-5.0-3.0-1.0-3.9","6981824afeedd525121adce4","not_provided","desktop","0","0","0","","","","","","working_memory","","1933","<img class='h' src=images/squares/green.png><div class=""fixation"">+</div>","k","","","test","practice","9","8","s","false","","","","","","","","",""
"html-keyboard-response","58","339195","0.0-5.0-3.0-1.0-4.9","6981824afeedd525121adce4","not_provided","desktop","0","0","0","","","","","","working_memory","","null","<div class=""fixation"">Incorrect</div>","null","","","","","","","","","","","","","","","","",""
"html-keyboard-response","59","340198","0.0-5.0-3.0-1.0-0.10","6981824afeedd525121adce4","not_provided","desktop","0","0","0","","","","","","working_memory","","null","<div class=""fixation"">+</div>","null","","","","","","","","","","","","","","","","",""
"html-keyboard-response","60","340404","0.0-5.0-3.0-1.0-1.10","6981824afeedd525121adce4","not_provided","desktop","0","0","0","","","","","","working_memory","","null","<img class='c' src=images/squares/brown.png><img class='f' src=images/squares/magenta.png><img class='h' src=images/squares/orange.png><img class='l' src=images/squares/red.png><div class=""fixation"">+</div>","null","","","memory","practice","10","4","","","","","","","","","","",""
"html-keyboard-response","61","341314","0.0-5.0-3.0-1.0-2.10","6981824afeedd525121adce4","not_provided","desktop","0","0","0","","","","","","working_memory","","null","<div class=""fixation"">+</div>","null","","","","","","","","","","","","","","","","",""
"html-keyboard-response","62","342186","0.0-5.0-3.0-1.0-3.10","6981824afeedd525121adce4","not_provided","desktop","0","0","0","","","","","","working_memory","","871","<img class='h' src=images/squares/orange.png><div class=""fixation"">+</div>","s","","","test","practice","10","4","s","true","","","","","","","","",""
"html-keyboard-response","63","342694","0.0-5.0-3.0-1.0-4.10","6981824afeedd525121adce4","not_provided","desktop","0","0","0","","","","","","working_memory","","null","<div class=""fixation"">Correct</div>","null","","","","","","","","","","","","","","","","",""
"html-keyboard-response","64","343705","0.0-5.0-3.0-1.0-0.11","6981824afeedd525121adce4","not_provided","desktop","0","0","0","","","","","","working_memory","","null","<div class=""fixation"">+</div>","null","","","","","","","","","","","","","","","","",""
"html-keyboard-response","65","343917","0.0-5.0-3.0-1.0-1.11","6981824afeedd525121adce4","not_provided","desktop","0","0","0","","","","","","working_memory","","null","<img class='a' src=images/squares/red.png><img class='b' src=images/squares/cyan.png><img class='f' src=images/squares/brown.png><img class='d' src=images/squares/black.png><img class='h' src=images/squares/magenta.png><img class='g' src=images/squares/yellow.png><img class='k' src=images/squares/orange.png><img class='j' src=images/squares/blue.png><div class=""fixation"">+</div>","null","","","memory","practice","11","8","","","","","","","","","","",""
"html-keyboard-response","66","344829","0.0-5.0-3.0-1.0-2.11","6981824afeedd525121adce4","not_provided","desktop","0","0","0","","","","","","working_memory","","null","<div class=""fixation"">+</div>","null","","","","","","","","","","","","","","","","",""
"html-keyboard-response","67","346074","0.0-5.0-3.0-1.0-3.11","6981824afeedd525121adce4","not_provided","desktop","0","0","0","","","","","","working_memory","","1243","<img class='f' src=images/squares/brown.png><div class=""fixation"">+</div>","s","","","test","practice","11","8","s","true","","","","","","","","",""
"html-keyboard-response","68","346584","0.0-5.0-3.0-1.0-4.11","6981824afeedd525121adce4","not_provided","desktop","0","0","0","","","","","","working_memory","","null","<div class=""fixation"">Correct</div>","null","","","","","","","","","","","","","","","","",""
"html-keyboard-response","69","347590","0.0-5.0-3.0-1.0-0.12","6981824afeedd525121adce4","not_provided","desktop","0","0","0","","","","","","working_memory","","null","<div class=""fixation"">+</div>","null","","","","","","","","","","","","","","","","",""
"html-keyboard-response","70","347796","0.0-5.0-3.0-1.0-1.12","6981824afeedd525121adce4","not_provided","desktop","0","0","0","","","","","","working_memory","","null","<img class='c' src=images/squares/black.png><img class='e' src=images/squares/red.png><img class='g' src=images/squares/blue.png><img class='l' src=images/squares/magenta.png><div class=""fixation"">+</div>","null","","","memory","practice","12","4","","","","","","","","","","",""
"html-keyboard-response","71","348704","0.0-5.0-3.0-1.0-2.12","6981824afeedd525121adce4","not_provided","desktop","0","0","0","","","","","","working_memory","","null","<div class=""fixation"">+</div>","null","","","","","","","","","","","","","","","","",""
"html-keyboard-response","72","350562","0.0-5.0-3.0-1.0-3.12","6981824afeedd525121adce4","not_provided","desktop","0","0","0","","","","","","working_memory","","1857","<img class='g' src=images/squares/blue.png><div class=""fixation"">+</div>","s","","","test","practice","12","4","s","true","","","","","","","","",""
"html-keyboard-response","73","351070","0.0-5.0-3.0-1.0-4.12","6981824afeedd525121adce4","not_provided","desktop","0","0","0","","","","","","working_memory","","null","<div class=""fixation"">Correct</div>","null","","","","","","","","","","","","","","","","",""
"html-keyboard-response","74","352083","0.0-5.0-3.0-1.0-0.13","6981824afeedd525121adce4","not_provided","desktop","0","0","0","","","","","","working_memory","","null","<div class=""fixation"">+</div>","null","","","","","","","","","","","","","","","","",""
"html-keyboard-response","75","352287","0.0-5.0-3.0-1.0-1.13","6981824afeedd525121adce4","not_provided","desktop","0","0","0","","","","","","working_memory","","null","<img class='c' src=images/squares/red.png><img class='b' src=images/squares/black.png><img class='e' src=images/squares/yellow.png><img class='d' src=images/squares/green.png><img class='g' src=images/squares/brown.png><img class='h' src=images/squares/orange.png><img class='l' src=images/squares/cyan.png><img class='k' src=images/squares/blue.png><div class=""fixation"">+</div>","null","","","memory","practice","13","8","","","","","","","","","","",""
"html-keyboard-response","76","353189","0.0-5.0-3.0-1.0-2.13","6981824afeedd525121adce4","not_provided","desktop","0","0","0","","","","","","working_memory","","null","<div class=""fixation"">+</div>","null","","","","","","","","","","","","","","","","",""
"html-keyboard-response","77","354234","0.0-5.0-3.0-1.0-3.13","6981824afeedd525121adce4","not_provided","desktop","0","0","0","","","","","","working_memory","","1044","<img class='h' src=images/squares/magenta.png><div class=""fixation"">+</div>","s","","","test","practice","13","8","k","false","","","","","","","","",""
"html-keyboard-response","78","354735","0.0-5.0-3.0-1.0-4.13","6981824afeedd525121adce4","not_provided","desktop","0","0","0","","","","","","working_memory","","null","<div class=""fixation"">Incorrect</div>","null","","","","","","","","","","","","","","","","",""
"html-keyboard-response","79","355750","0.0-5.0-3.0-1.0-0.14","6981824afeedd525121adce4","not_provided","desktop","0","0","0","","","","","","working_memory","","null","<div class=""fixation"">+</div>","null","","","","","","","","","","","","","","","","",""
"html-keyboard-response","80","355952","0.0-5.0-3.0-1.0-1.14","6981824afeedd525121adce4","not_provided","desktop","0","0","0","","","","","","working_memory","","null","<img class='c' src=images/squares/cyan.png><img class='a' src=images/squares/green.png><img class='d' src=images/squares/brown.png><img class='e' src=images/squares/orange.png><img class='h' src=images/squares/magenta.png><img class='i' src=images/squares/red.png><img class='k' src=images/squares/yellow.png><img class='j' src=images/squares/black.png><div class=""fixation"">+</div>","null","","","memory","practice","14","8","","","","","","","","","","",""
"html-keyboard-response","81","356860","0.0-5.0-3.0-1.0-2.14","6981824afeedd525121adce4","not_provided","desktop","0","0","0","","","","","","working_memory","","null","<div class=""fixation"">+</div>","null","","","","","","","","","","","","","","","","",""
"html-keyboard-response","82","357770","0.0-5.0-3.0-1.0-3.14","6981824afeedd525121adce4","not_provided","desktop","0","0","0","","","","","","working_memory","","909","<img class='k' src=images/squares/yellow.png><div class=""fixation"">+</div>","s","","","test","practice","14","8","s","true","","","","","","","","",""
"html-keyboard-response","83","358274","0.0-5.0-3.0-1.0-4.14","6981824afeedd525121adce4","not_provided","desktop","0","0","0","","","","","","working_memory","","null","<div class=""fixation"">Correct</div>","null","","","","","","","","","","","","","","","","",""
"html-keyboard-response","84","370658","0.0-5.0-4.0","6981824afeedd525121adce4","not_provided","desktop","0","0","0","","","","","","working_memory","","12383","<div style=""text-align:center;font-family:sans-serif;""><p>Good job! You have finished the practice.</p><p>We will now start the real experiment.</p><p>Please try to be as accurate as possible.</p><p><b><u>Note: random guessing may risk your payment.</u></b></p><br><p><b>Press any key to begin.</b></p></div>"," ","","","","","","","","","","","","","","","","",""
"html-keyboard-response","85","371670","0.0-5.0-5.0-0.0","6981824afeedd525121adce4","not_provided","desktop","0","0","0","","","","","","working_memory","","null","<div class=""fixation"">+</div>","null","","","","","","","","","","","","","","","","",""
"html-keyboard-response","86","371875","0.0-5.0-5.0-1.0","6981824afeedd525121adce4","not_provided","desktop","0","0","0","","","","","","working_memory","","null","<img class='c' src=images/squares/cyan.png><img class='b' src=images/squares/red.png><img class='d' src=images/squares/blue.png><img class='e' src=images/squares/green.png><img class='h' src=images/squares/brown.png><img class='g' src=images/squares/black.png><img class='l' src=images/squares/magenta.png><img class='k' src=images/squares/orange.png><div class=""fixation"">+</div>","null","","","memory","exp","0","","","","","","","","","","","",""
"html-keyboard-response","87","372782","0.0-5.0-5.0-2.0","6981824afeedd525121adce4","not_provided","desktop","0","0","0","","","","","","working_memory","","null","<div class=""fixation"">+</div>","null","","","","","","","","","","","","","","","","",""
"html-keyboard-response","88","374042","0.0-5.0-5.0-3.0","6981824afeedd525121adce4","not_provided","desktop","0","0","0","","","","","","working_memory","","1259","<img class='b' src=images/squares/red.png><div class=""fixation"">+</div>","k","","","test_squares","exp","0","8","s","false","sk","s","","","","","","",""
"html-keyboard-response","89","374555","0.0-5.0-5.0-4.0","6981824afeedd525121adce4","not_provided","desktop","0","0","0","","","","","","working_memory","","null","<div class=""fixation"">Incorrect</div>","null","","","","","","","","","","","","","","","","",""
"html-keyboard-response","90","375565","0.0-5.0-5.0-0.1","6981824afeedd525121adce4","not_provided","desktop","0","0","0","","","","","","working_memory","","null","<div class=""fixation"">+</div>","null","","","","","","","","","","","","","","","","",""
"html-keyboard-response","91","375774","0.0-5.0-5.0-1.1","6981824afeedd525121adce4","not_provided","desktop","0","0","0","","","","","","working_memory","","null","<img class='b' src=images/squares/black.png><img class='a' src=images/squares/cyan.png><img class='f' src=images/squares/blue.png><img class='d' src=images/squares/magenta.png><img class='g' src=images/squares/red.png><img class='i' src=images/squares/brown.png><img class='l' src=images/squares/yellow.png><img class='j' src=images/squares/green.png><div class=""fixation"">+</div>","null","","","memory","exp","1","","","","","","","","","","","",""
"html-keyboard-response","92","376688","0.0-5.0-5.0-2.1","6981824afeedd525121adce4","not_provided","desktop","0","0","0","","","","","","working_memory","","null","<div class=""fixation"">+</div>","null","","","","","","","","","","","","","","","","",""
"html-keyboard-response","93","377738","0.0-5.0-5.0-3.1","6981824afeedd525121adce4","not_provided","desktop","0","0","0","","","","","","working_memory","","1049","<img class='b' src=images/squares/orange.png><div class=""fixation"">+</div>","s","","","test_squares","exp","1","8","k","false","sk","d","","","","","","",""
"html-keyboard-response","94","378249","0.0-5.0-5.0-4.1","6981824afeedd525121adce4","not_provided","desktop","0","0","0","","","","","","working_memory","","null","<div class=""fixation"">Incorrect</div>","null","","","","","","","","","","","","","","","","",""
"html-keyboard-response","95","379260","0.0-5.0-5.0-0.2","6981824afeedd525121adce4","not_provided","desktop","0","0","0","","","","","","working_memory","","null","<div class=""fixation"">+</div>","null","","","","","","","","","","","","","","","","",""
"html-keyboard-response","96","379466","0.0-5.0-5.0-1.2","6981824afeedd525121adce4","not_provided","desktop","0","0","0","","","","","","working_memory","","null","<img class='b' src=images/squares/brown.png><img class='c' src=images/squares/yellow.png><img class='d' src=images/squares/green.png><img class='f' src=images/squares/magenta.png><img class='g' src=images/squares/orange.png><img class='i' src=images/squares/blue.png><img class='k' src=images/squares/cyan.png><img class='l' src=images/squares/red.png><div class=""fixation"">+</div>","null","","","memory","exp","2","","","","","","","","","","","",""
"html-keyboard-response","97","380367","0.0-5.0-5.0-2.2","6981824afeedd525121adce4","not_provided","desktop","0","0","0","","","","","","working_memory","","null","<div class=""fixation"">+</div>","null","","","","","","","","","","","","","","","","",""
"html-keyboard-response","98","381514","0.0-5.0-5.0-3.2","6981824afeedd525121adce4","not_provided","desktop","0","0","0","","","","","","working_memory","","1146","<img class='c' src=images/squares/black.png><div class=""fixation"">+</div>","k","","","test_squares","exp","2","8","k","true","sk","d","","","","","","",""
"html-keyboard-response","99","382017","0.0-5.0-5.0-4.2","6981824afeedd525121adce4","not_provided","desktop","0","0","0","","","","","","working_memory","","null","<div class=""fixation"">Correct</div>","null","","","","","","","","","","","","","","","","",""
"html-keyboard-response","100","383022","0.0-5.0-5.0-0.3","6981824afeedd525121adce4","not_provided","desktop","0","0","0","","","","","","working_memory","","null","<div class=""fixation"">+</div>","null","","","","","","","","","","","","","","","","",""
"html-keyboard-response","101","383229","0.0-5.0-5.0-1.3","6981824afeedd525121adce4","not_provided","desktop","0","0","0","","","","","","working_memory","","null","<img class='c' src=images/squares/green.png><img class='b' src=images/squares/yellow.png><img class='f' src=images/squares/black.png><img class='d' src=images/squares/orange.png><img class='i' src=images/squares/blue.png><img class='h' src=images/squares/red.png><img class='j' src=images/squares/brown.png><img class='k' src=images/squares/magenta.png><div class=""fixation"">+</div>","null","","","memory","exp","3","","","","","","","","","","","",""
"html-keyboard-response","102","384140","0.0-5.0-5.0-2.3","6981824afeedd525121adce4","not_provided","desktop","0","0","0","","","","","","working_memory","","null","<div class=""fixation"">+</div>","null","","","","","","","","","","","","","","","","",""
"html-keyboard-response","103","385482","0.0-5.0-5.0-3.3","6981824afeedd525121adce4","not_provided","desktop","0","0","0","","","","","","working_memory","","1340","<img class='c' src=images/squares/green.png><div class=""fixation"">+</div>","k","","","test_squares","exp","3","8","s","false","sk","s","","","","","","",""
"html-keyboard-response","104","385994","0.0-5.0-5.0-4.3","6981824afeedd525121adce4","not_provided","desktop","0","0","0","","","","","","working_memory","","null","<div class=""fixation"">Incorrect</div>","null","","","","","","","","","","","","","","","","",""
"html-keyboard-response","105","387007","0.0-5.0-5.0-0.4","6981824afeedd525121adce4","not_provided","desktop","0","0","0","","","","","","working_memory","","null","<div class=""fixation"">+</div>","null","","","","","","","","","","","","","","","","",""
"html-keyboard-response","106","387213","0.0-5.0-5.0-1.4","6981824afeedd525121adce4","not_provided","desktop","0","0","0","","","","","","working_memory","","null","<img class='c' src=images/squares/green.png><img class='d' src=images/squares/cyan.png><img class='g' src=images/squares/magenta.png><img class='l' src=images/squares/orange.png><div class=""fixation"">+</div>","null","","","memory","exp","4","","","","","","","","","","","",""
"html-keyboard-response","107","388117","0.0-5.0-5.0-2.4","6981824afeedd525121adce4","not_provided","desktop","0","0","0","","","","","","working_memory","","null","<div class=""fixation"">+</div>","null","","","","","","","","","","","","","","","","",""
"html-keyboard-response","108","389122","0.0-5.0-5.0-3.4","6981824afeedd525121adce4","not_provided","desktop","0","0","0","","","","","","working_memory","","1004","<img class='l' src=images/squares/orange.png><div class=""fixation"">+</div>","s","","","test_squares","exp","4","4","s","true","sk","s","","","","","","",""
"html-keyboard-response","109","389624","0.0-5.0-5.0-4.4","6981824afeedd525121adce4","not_provided","desktop","0","0","0","","","","","","working_memory","","null","<div class=""fixation"">Correct</div>","null","","","","","","","","","","","","","","","","",""
"html-keyboard-response","110","390635","0.0-5.0-5.0-0.5","6981824afeedd525121adce4","not_provided","desktop","0","0","0","","","","","","working_memory","","null","<div class=""fixation"">+</div>","null","","","","","","","","","","","","","","","","",""
"html-keyboard-response","111","390841","0.0-5.0-5.0-1.5","6981824afeedd525121adce4","not_provided","desktop","0","0","0","","","","","","working_memory","","null","<img class='c' src=images/squares/magenta.png><img class='a' src=images/squares/black.png><img class='e' src=images/squares/red.png><img class='f' src=images/squares/orange.png><img class='i' src=images/squares/cyan.png><img class='g' src=images/squares/blue.png><img class='j' src=images/squares/yellow.png><img class='k' src=images/squares/brown.png><div class=""fixation"">+</div>","null","","","memory","exp","5","","","","","","","","","","","",""
"html-keyboard-response","112","391743","0.0-5.0-5.0-2.5","6981824afeedd525121adce4","not_provided","desktop","0","0","0","","","","","","working_memory","","null","<div class=""fixation"">+</div>","null","","","","","","","","","","","","","","","","",""
"html-keyboard-response","113","392554","0.0-5.0-5.0-3.5","6981824afeedd525121adce4","not_provided","desktop","0","0","0","","","","","","working_memory","","810","<img class='i' src=images/squares/cyan.png><div class=""fixation"">+</div>","s","","","test_squares","exp","5","8","s","true","sk","s","","","","","","",""
"html-keyboard-response","114","393063","0.0-5.0-5.0-4.5","6981824afeedd525121adce4","not_provided","desktop","0","0","0","","","","","","working_memory","","null","<div class=""fixation"">Correct</div>","null","","","","","","","","","","","","","","","","",""
"html-keyboard-response","115","394076","0.0-5.0-5.0-0.6","6981824afeedd525121adce4","not_provided","desktop","0","0","0","","","","","","working_memory","","null","<div class=""fixation"">+</div>","null","","","","","","","","","","","","","","","","",""
"html-keyboard-response","116","394281","0.0-5.0-5.0-1.6","6981824afeedd525121adce4","not_provided","desktop","0","0","0","","","","","","working_memory","","null","<img class='b' src=images/squares/brown.png><img class='a' src=images/squares/green.png><img class='e' src=images/squares/red.png><img class='d' src=images/squares/orange.png><img class='h' src=images/squares/yellow.png><img class='i' src=images/squares/black.png><img class='k' src=images/squares/blue.png><img class='l' src=images/squares/cyan.png><div class=""fixation"">+</div>","null","","","memory","exp","6","","","","","","","","","","","",""
"html-keyboard-response","117","395191","0.0-5.0-5.0-2.6","6981824afeedd525121adce4","not_provided","desktop","0","0","0","","","","","","working_memory","","null","<div class=""fixation"">+</div>","null","","","","","","","","","","","","","","","","",""
"html-keyboard-response","118","397241","0.0-5.0-5.0-3.6","6981824afeedd525121adce4","not_provided","desktop","0","0","0","","","","","","working_memory","","2049","<img class='a' src=images/squares/magenta.png><div class=""fixation"">+</div>","s","","","test_squares","exp","6","8","k","false","sk","d","","","","","","",""
"html-keyboard-response","119","397753","0.0-5.0-5.0-4.6","6981824afeedd525121adce4","not_provided","desktop","0","0","0","","","","","","working_memory","","null","<div class=""fixation"">Incorrect</div>","null","","","","","","","","","","","","","","","","",""
"html-keyboard-response","120","398765","0.0-5.0-5.0-0.7","6981824afeedd525121adce4","not_provided","desktop","0","0","0","","","","","","working_memory","","null","<div class=""fixation"">+</div>","null","","","","","","","","","","","","","","","","",""
"html-keyboard-response","121","398969","0.0-5.0-5.0-1.7","6981824afeedd525121adce4","not_provided","desktop","0","0","0","","","","","","working_memory","","null","<img class='c' src=images/squares/brown.png><img class='f' src=images/squares/yellow.png><img class='g' src=images/squares/black.png><img class='j' src=images/squares/green.png><div class=""fixation"">+</div>","null","","","memory","exp","7","","","","","","","","","","","",""
"html-keyboard-response","122","399878","0.0-5.0-5.0-2.7","6981824afeedd525121adce4","not_provided","desktop","0","0","0","","","","","","working_memory","","null","<div class=""fixation"">+</div>","null","","","","","","","","","","","","","","","","",""
"html-keyboard-response","123","400874","0.0-5.0-5.0-3.7","6981824afeedd525121adce4","not_provided","desktop","0","0","0","","","","","","working_memory","","995","<img class='j' src=images/squares/orange.png><div class=""fixation"">+</div>","k","","","test_squares","exp","7","4","k","true","sk","d","","","","","","",""
"html-keyboard-response","124","401385","0.0-5.0-5.0-4.7","6981824afeedd525121adce4","not_provided","desktop","0","0","0","","","","","","working_memory","","null","<div class=""fixation"">Correct</div>","null","","","","","","","","","","","","","","","","",""
"html-keyboard-response","125","402394","0.0-5.0-5.0-0.8","6981824afeedd525121adce4","not_provided","desktop","0","0","0","","","","","","working_memory","","null","<div class=""fixation"">+</div>","null","","","","","","","","","","","","","","","","",""
"html-keyboard-response","126","402602","0.0-5.0-5.0-1.8","6981824afeedd525121adce4","not_provided","desktop","0","0","0","","","","","","working_memory","","null","<img class='b' src=images/squares/green.png><img class='c' src=images/squares/orange.png><img class='f' src=images/squares/red.png><img class='d' src=images/squares/cyan.png><img class='h' src=images/squares/black.png><img class='g' src=images/squares/blue.png><img class='l' src=images/squares/yellow.png><img class='j' src=images/squares/brown.png><div class=""fixation"">+</div>","null","","","memory","exp","8","","","","","","","","","","","",""
"html-keyboard-response","127","403518","0.0-5.0-5.0-2.8","6981824afeedd525121adce4","not_provided","desktop","0","0","0","","","","","","working_memory","","null","<div class=""fixation"">+</div>","null","","","","","","","","","","","","","","","","",""
"html-keyboard-response","128","404618","0.0-5.0-5.0-3.8","6981824afeedd525121adce4","not_provided","desktop","0","0","0","","","","","","working_memory","","1099","<img class='j' src=images/squares/magenta.png><div class=""fixation"">+</div>","k","","","test_squares","exp","8","8","k","true","sk","d","","","","","","",""
"html-keyboard-response","129","405134","0.0-5.0-5.0-4.8","6981824afeedd525121adce4","not_provided","desktop","0","0","0","","","","","","working_memory","","null","<div class=""fixation"">Correct</div>","null","","","","","","","","","","","","","","","","",""
"html-keyboard-response","130","406138","0.0-5.0-5.0-0.9","6981824afeedd525121adce4","not_provided","desktop","0","0","0","","","","","","working_memory","","null","<div class=""fixation"">+</div>","null","","","","","","","","","","","","","","","","",""
"html-keyboard-response","131","406342","0.0-5.0-5.0-1.9","6981824afeedd525121adce4","not_provided","desktop","0","0","0","","","","","","working_memory","","null","<img class='b' src=images/squares/green.png><img class='e' src=images/squares/blue.png><img class='h' src=images/squares/brown.png><img class='j' src=images/squares/cyan.png><div class=""fixation"">+</div>","null","","","memory","exp","9","","","","","","","","","","","",""
"html-keyboard-response","132","407252","0.0-5.0-5.0-2.9","6981824afeedd525121adce4","not_provided","desktop","0","0","0","","","","","","working_memory","","null","<div class=""fixation"">+</div>","null","","","","","","","","","","","","","","","","",""
"html-keyboard-response","133","408138","0.0-5.0-5.0-3.9","6981824afeedd525121adce4","not_provided","desktop","0","0","0","","","","","","working_memory","","885","<img class='e' src=images/squares/magenta.png><div class=""fixation"">+</div>","s","","","test_squares","exp","9","4","k","false","sk","d","","","","","","",""
"html-keyboard-response","134","408642","0.0-5.0-5.0-4.9","6981824afeedd525121adce4","not_provided","desktop","0","0","0","","","","","","working_memory","","null","<div class=""fixation"">Incorrect</div>","null","","","","","","","","","","","","","","","","",""
"html-keyboard-response","135","409643","0.0-5.0-5.0-0.10","6981824afeedd525121adce4","not_provided","desktop","0","0","0","","","","","","working_memory","","null","<div class=""fixation"">+</div>","null","","","","","","","","","","","","","","","","",""
"html-keyboard-response","136","409857","0.0-5.0-5.0-1.10","6981824afeedd525121adce4","not_provided","desktop","0","0","0","","","","","","working_memory","","null","<img class='b' src=images/squares/brown.png><img class='d' src=images/squares/magenta.png><img class='i' src=images/squares/red.png><img class='l' src=images/squares/green.png><div class=""fixation"">+</div>","null","","","memory","exp","10","","","","","","","","","","","",""
"html-keyboard-response","137","410768","0.0-5.0-5.0-2.10","6981824afeedd525121adce4","not_provided","desktop","0","0","0","","","","","","working_memory","","null","<div class=""fixation"">+</div>","null","","","","","","","","","","","","","","","","",""
"html-keyboard-response","138","411578","0.0-5.0-5.0-3.10","6981824afeedd525121adce4","not_provided","desktop","0","0","0","","","","","","working_memory","","809","<img class='i' src=images/squares/red.png><div class=""fixation"">+</div>","s","","","test_squares","exp","10","4","s","true","sk","s","","","","","","",""
"html-keyboard-response","139","412085","0.0-5.0-5.0-4.10","6981824afeedd525121adce4","not_provided","desktop","0","0","0","","","","","","working_memory","","null","<div class=""fixation"">Correct</div>","null","","","","","","","","","","","","","","","","",""
"html-keyboard-response","140","413095","0.0-5.0-5.0-0.11","6981824afeedd525121adce4","not_provided","desktop","0","0","0","","","","","","working_memory","","null","<div class=""fixation"">+</div>","null","","","","","","","","","","","","","","","","",""
"html-keyboard-response","141","413302","0.0-5.0-5.0-1.11","6981824afeedd525121adce4","not_provided","desktop","0","0","0","","","","","","working_memory","","null","<img class='c' src=images/squares/red.png><img class='b' src=images/squares/magenta.png><img class='f' src=images/squares/orange.png><img class='e' src=images/squares/yellow.png><img class='g' src=images/squares/black.png><img class='h' src=images/squares/brown.png><img class='l' src=images/squares/blue.png><img class='k' src=images/squares/green.png><div class=""fixation"">+</div>","null","","","memory","exp","11","","","","","","","","","","","",""
"html-keyboard-response","142","414206","0.0-5.0-5.0-2.11","6981824afeedd525121adce4","not_provided","desktop","0","0","0","","","","","","working_memory","","null","<div class=""fixation"">+</div>","null","","","","","","","","","","","","","","","","",""
"html-keyboard-response","143","415090","0.0-5.0-5.0-3.11","6981824afeedd525121adce4","not_provided","desktop","0","0","0","","","","","","working_memory","","883","<img class='e' src=images/squares/cyan.png><div class=""fixation"">+</div>","k","","","test_squares","exp","11","8","k","true","sk","d","","","","","","",""
"html-keyboard-response","144","415592","0.0-5.0-5.0-4.11","6981824afeedd525121adce4","not_provided","desktop","0","0","0","","","","","","working_memory","","null","<div class=""fixation"">Correct</div>","null","","","","","","","","","","","","","","","","",""
"html-keyboard-response","145","416610","0.0-5.0-5.0-0.12","6981824afeedd525121adce4","not_provided","desktop","0","0","0","","","","","","working_memory","","null","<div class=""fixation"">+</div>","null","","","","","","","","","","","","","","","","",""
"html-keyboard-response","146","416827","0.0-5.0-5.0-1.12","6981824afeedd525121adce4","not_provided","desktop","0","0","0","","","","","","working_memory","","null","<img class='b' src=images/squares/blue.png><img class='e' src=images/squares/magenta.png><img class='i' src=images/squares/yellow.png><img class='l' src=images/squares/cyan.png><div class=""fixation"">+</div>","null","","","memory","exp","12","","","","","","","","","","","",""
"html-keyboard-response","147","417734","0.0-5.0-5.0-2.12","6981824afeedd525121adce4","not_provided","desktop","0","0","0","","","","","","working_memory","","null","<div class=""fixation"">+</div>","null","","","","","","","","","","","","","","","","",""
"html-keyboard-response","148","418538","0.0-5.0-5.0-3.12","6981824afeedd525121adce4","not_provided","desktop","0","0","0","","","","","","working_memory","","803","<img class='b' src=images/squares/brown.png><div class=""fixation"">+</div>","k","","","test_squares","exp","12","4","k","true","sk","d","","","","","","",""
"html-keyboard-response","149","419040","0.0-5.0-5.0-4.12","6981824afeedd525121adce4","not_provided","desktop","0","0","0","","","","","","working_memory","","null","<div class=""fixation"">Correct</div>","null","","","","","","","","","","","","","","","","",""
"html-keyboard-response","150","420055","0.0-5.0-5.0-0.13","6981824afeedd525121adce4","not_provided","desktop","0","0","0","","","","","","working_memory","","null","<div class=""fixation"">+</div>","null","","","","","","","","","","","","","","","","",""
"html-keyboard-response","151","420266","0.0-5.0-5.0-1.13","6981824afeedd525121adce4","not_provided","desktop","0","0","0","","","","","","working_memory","","null","<img class='a' src=images/squares/cyan.png><img class='f' src=images/squares/magenta.png><img class='i' src=images/squares/yellow.png><img class='l' src=images/squares/orange.png><div class=""fixation"">+</div>","null","","","memory","exp","13","","","","","","","","","","","",""
"html-keyboard-response","152","421169","0.0-5.0-5.0-2.13","6981824afeedd525121adce4","not_provided","desktop","0","0","0","","","","","","working_memory","","null","<div class=""fixation"">+</div>","null","","","","","","","","","","","","","","","","",""
"html-keyboard-response","153","421770","0.0-5.0-5.0-3.13","6981824afeedd525121adce4","not_provided","desktop","0","0","0","","","","","","working_memory","","600","<img class='a' src=images/squares/cyan.png><div class=""fixation"">+</div>","s","","","test_squares","exp","13","4","s","true","sk","s","","","","","","",""
"html-keyboard-response","154","422276","0.0-5.0-5.0-4.13","6981824afeedd525121adce4","not_provided","desktop","0","0","0","","","","","","working_memory","","null","<div class=""fixation"">Correct</div>","null","","","","","","","","","","","","","","","","",""
"html-keyboard-response","155","423282","0.0-5.0-5.0-0.14","6981824afeedd525121adce4","not_provided","desktop","0","0","0","","","","","","working_memory","","null","<div class=""fixation"">+</div>","null","","","","","","","","","","","","","","","","",""
"html-keyboard-response","156","423487","0.0-5.0-5.0-1.14","6981824afeedd525121adce4","not_provided","desktop","0","0","0","","","","","","working_memory","","null","<img class='c' src=images/squares/brown.png><img class='d' src=images/squares/green.png><img class='g' src=images/squares/yellow.png><img class='l' src=images/squares/blue.png><div class=""fixation"">+</div>","null","","","memory","exp","14","","","","","","","","","","","",""
"html-keyboard-response","157","424401","0.0-5.0-5.0-2.14","6981824afeedd525121adce4","not_provided","desktop","0","0","0","","","","","","working_memory","","null","<div class=""fixation"">+</div>","null","","","","","","","","","","","","","","","","",""
"html-keyboard-response","158","425154","0.0-5.0-5.0-3.14","6981824afeedd525121adce4","not_provided","desktop","0","0","0","","","","","","working_memory","","752","<img class='d' src=images/squares/green.png><div class=""fixation"">+</div>","s","","","test_squares","exp","14","4","s","true","sk","s","","","","","","",""
"html-keyboard-response","159","425662","0.0-5.0-5.0-4.14","6981824afeedd525121adce4","not_provided","desktop","0","0","0","","","","","","working_memory","","null","<div class=""fixation"">Correct</div>","null","","","","","","","","","","","","","","","","",""
"html-keyboard-response","160","426672","0.0-5.0-5.0-0.15","6981824afeedd525121adce4","not_provided","desktop","0","0","0","","","","","","working_memory","","null","<div class=""fixation"">+</div>","null","","","","","","","","","","","","","","","","",""
"html-keyboard-response","161","426887","0.0-5.0-5.0-1.15","6981824afeedd525121adce4","not_provided","desktop","0","0","0","","","","","","working_memory","","null","<img class='a' src=images/squares/green.png><img class='d' src=images/squares/cyan.png><img class='h' src=images/squares/yellow.png><img class='l' src=images/squares/orange.png><div class=""fixation"">+</div>","null","","","memory","exp","15","","","","","","","","","","","",""
"html-keyboard-response","162","427794","0.0-5.0-5.0-2.15","6981824afeedd525121adce4","not_provided","desktop","0","0","0","","","","","","working_memory","","null","<div class=""fixation"">+</div>","null","","","","","","","","","","","","","","","","",""
"html-keyboard-response","163","428537","0.0-5.0-5.0-3.15","6981824afeedd525121adce4","not_provided","desktop","0","0","0","","","","","","working_memory","","742","<img class='d' src=images/squares/red.png><div class=""fixation"">+</div>","k","","","test_squares","exp","15","4","k","true","sk","d","","","","","","",""
"html-keyboard-response","164","429043","0.0-5.0-5.0-4.15","6981824afeedd525121adce4","not_provided","desktop","0","0","0","","","","","","working_memory","","null","<div class=""fixation"">Correct</div>","null","","","","","","","","","","","","","","","","",""
"html-keyboard-response","165","430056","0.0-5.0-5.0-0.16","6981824afeedd525121adce4","not_provided","desktop","0","0","0","","","","","","working_memory","","null","<div class=""fixation"">+</div>","null","","","","","","","","","","","","","","","","",""
"html-keyboard-response","166","430260","0.0-5.0-5.0-1.16","6981824afeedd525121adce4","not_provided","desktop","0","0","0","","","","","","working_memory","","null","<img class='b' src=images/squares/cyan.png><img class='a' src=images/squares/green.png><img class='f' src=images/squares/orange.png><img class='d' src=images/squares/red.png><img class='i' src=images/squares/blue.png><img class='g' src=images/squares/brown.png><img class='k' src=images/squares/yellow.png><img class='l' src=images/squares/magenta.png><div class=""fixation"">+</div>","null","","","memory","exp","16","","","","","","","","","","","",""
"html-keyboard-response","167","431173","0.0-5.0-5.0-2.16","6981824afeedd525121adce4","not_provided","desktop","0","0","0","","","","","","working_memory","","null","<div class=""fixation"">+</div>","null","","","","","","","","","","","","","","","","",""
"html-keyboard-response","168","431898","0.0-5.0-5.0-3.16","6981824afeedd525121adce4","not_provided","desktop","0","0","0","","","","","","working_memory","","724","<img class='f' src=images/squares/orange.png><div class=""fixation"">+</div>","s","","","test_squares","exp","16","8","s","true","sk","s","","","","","","",""
"html-keyboard-response","169","432412","0.0-5.0-5.0-4.16","6981824afeedd525121adce4","not_provided","desktop","0","0","0","","","","","","working_memory","","null","<div class=""fixation"">Correct</div>","null","","","","","","","","","","","","","","","","",""
"html-keyboard-response","170","433415","0.0-5.0-5.0-0.17","6981824afeedd525121adce4","not_provided","desktop","0","0","0","","","","","","working_memory","","null","<div class=""fixation"">+</div>","null","","","","","","","","","","","","","","","","",""
"html-keyboard-response","171","433624","0.0-5.0-5.0-1.17","6981824afeedd525121adce4","not_provided","desktop","0","0","0","","","","","","working_memory","","null","<img class='b' src=images/squares/cyan.png><img class='d' src=images/squares/blue.png><img class='i' src=images/squares/black.png><img class='j' src=images/squares/orange.png><div class=""fixation"">+</div>","null","","","memory","exp","17","","","","","","","","","","","",""
"html-keyboard-response","172","434527","0.0-5.0-5.0-2.17","6981824afeedd525121adce4","not_provided","desktop","0","0","0","","","","","","working_memory","","null","<div class=""fixation"">+</div>","null","","","","","","","","","","","","","","","","",""
"html-keyboard-response","173","435218","0.0-5.0-5.0-3.17","6981824afeedd525121adce4","not_provided","desktop","0","0","0","","","","","","working_memory","","690","<img class='b' src=images/squares/cyan.png><div class=""fixation"">+</div>","s","","","test_squares","exp","17","4","s","true","sk","s","","","","","","",""
"html-keyboard-response","174","435733","0.0-5.0-5.0-4.17","6981824afeedd525121adce4","not_provided","desktop","0","0","0","","","","","","working_memory","","null","<div class=""fixation"">Correct</div>","null","","","","","","","","","","","","","","","","",""
"html-keyboard-response","175","436735","0.0-5.0-5.0-0.18","6981824afeedd525121adce4","not_provided","desktop","0","0","0","","","","","","working_memory","","null","<div class=""fixation"">+</div>","null","","","","","","","","","","","","","","","","",""
"html-keyboard-response","176","436947","0.0-5.0-5.0-1.18","6981824afeedd525121adce4","not_provided","desktop","0","0","0","","","","","","working_memory","","null","<img class='c' src=images/squares/blue.png><img class='d' src=images/squares/orange.png><img class='h' src=images/squares/yellow.png><img class='k' src=images/squares/brown.png><div class=""fixation"">+</div>","null","","","memory","exp","18","","","","","","","","","","","",""
"html-keyboard-response","177","437857","0.0-5.0-5.0-2.18","6981824afeedd525121adce4","not_provided","desktop","0","0","0","","","","","","working_memory","","null","<div class=""fixation"">+</div>","null","","","","","","","","","","","","","","","","",""
"html-keyboard-response","178","438633","0.0-5.0-5.0-3.18","6981824afeedd525121adce4","not_provided","desktop","0","0","0","","","","","","working_memory","","776","<img class='h' src=images/squares/yellow.png><div class=""fixation"">+</div>","s","","","test_squares","exp","18","4","s","true","sk","s","","","","","","",""
"html-keyboard-response","179","439147","0.0-5.0-5.0-4.18","6981824afeedd525121adce4","not_provided","desktop","0","0","0","","","","","","working_memory","","null","<div class=""fixation"">Correct</div>","null","","","","","","","","","","","","","","","","",""
"html-keyboard-response","180","440158","0.0-5.0-5.0-0.19","6981824afeedd525121adce4","not_provided","desktop","0","0","0","","","","","","working_memory","","null","<div class=""fixation"">+</div>","null","","","","","","","","","","","","","","","","",""
"html-keyboard-response","181","440361","0.0-5.0-5.0-1.19","6981824afeedd525121adce4","not_provided","desktop","0","0","0","","","","","","working_memory","","null","<img class='a' src=images/squares/magenta.png><img class='d' src=images/squares/brown.png><img class='g' src=images/squares/orange.png><img class='l' src=images/squares/green.png><div class=""fixation"">+</div>","null","","","memory","exp","19","","","","","","","","","","","",""
"html-keyboard-response","182","441266","0.0-5.0-5.0-2.19","6981824afeedd525121adce4","not_provided","desktop","0","0","0","","","","","","working_memory","","null","<div class=""fixation"">+</div>","null","","","","","","","","","","","","","","","","",""
"html-keyboard-response","183","442034","0.0-5.0-5.0-3.19","6981824afeedd525121adce4","not_provided","desktop","0","0","0","","","","","","working_memory","","767","<img class='l' src=images/squares/red.png><div class=""fixation"">+</div>","k","","","test_squares","exp","19","4","k","true","sk","d","","","","","","",""
"html-keyboard-response","184","442544","0.0-5.0-5.0-4.19","6981824afeedd525121adce4","not_provided","desktop","0","0","0","","","","","","working_memory","","null","<div class=""fixation"">Correct</div>","null","","","","","","","","","","","","","","","","",""
"html-keyboard-response","185","443549","0.0-5.0-5.0-0.20","6981824afeedd525121adce4","not_provided","desktop","0","0","0","","","","","","working_memory","","null","<div class=""fixation"">+</div>","null","","","","","","","","","","","","","","","","",""
"html-keyboard-response","186","443755","0.0-5.0-5.0-1.20","6981824afeedd525121adce4","not_provided","desktop","0","0","0","","","","","","working_memory","","null","<img class='b' src=images/squares/yellow.png><img class='e' src=images/squares/green.png><img class='g' src=images/squares/brown.png><img class='j' src=images/squares/red.png><div class=""fixation"">+</div>","null","","","memory","exp","20","","","","","","","","","","","",""
"html-keyboard-response","187","444657","0.0-5.0-5.0-2.20","6981824afeedd525121adce4","not_provided","desktop","0","0","0","","","","","","working_memory","","null","<div class=""fixation"">+</div>","null","","","","","","","","","","","","","","","","",""
"html-keyboard-response","188","445626","0.0-5.0-5.0-3.20","6981824afeedd525121adce4","not_provided","desktop","0","0","0","","","","","","working_memory","","969","<img class='b' src=images/squares/orange.png><div class=""fixation"">+</div>","k","","","test_squares","exp","20","4","k","true","sk","d","","","","","","",""
"html-keyboard-response","189","446129","0.0-5.0-5.0-4.20","6981824afeedd525121adce4","not_provided","desktop","0","0","0","","","","","","working_memory","","null","<div class=""fixation"">Correct</div>","null","","","","","","","","","","","","","","","","",""
"html-keyboard-response","190","447136","0.0-5.0-5.0-0.21","6981824afeedd525121adce4","not_provided","desktop","0","0","0","","","","","","working_memory","","null","<div class=""fixation"">+</div>","null","","","","","","","","","","","","","","","","",""
"html-keyboard-response","191","447348","0.0-5.0-5.0-1.21","6981824afeedd525121adce4","not_provided","desktop","0","0","0","","","","","","working_memory","","null","<img class='b' src=images/squares/orange.png><img class='f' src=images/squares/magenta.png><img class='g' src=images/squares/blue.png><img class='l' src=images/squares/red.png><div class=""fixation"">+</div>","null","","","memory","exp","21","","","","","","","","","","","",""
"html-keyboard-response","192","448250","0.0-5.0-5.0-2.21","6981824afeedd525121adce4","not_provided","desktop","0","0","0","","","","","","working_memory","","null","<div class=""fixation"">+</div>","null","","","","","","","","","","","","","","","","",""
"html-keyboard-response","193","448953","0.0-5.0-5.0-3.21","6981824afeedd525121adce4","not_provided","desktop","0","0","0","","","","","","working_memory","","702","<img class='l' src=images/squares/green.png><div class=""fixation"">+</div>","k","","","test_squares","exp","21","4","k","true","sk","d","","","","","","",""
"html-keyboard-response","194","449463","0.0-5.0-5.0-4.21","6981824afeedd525121adce4","not_provided","desktop","0","0","0","","","","","","working_memory","","null","<div class=""fixation"">Correct</div>","null","","","","","","","","","","","","","","","","",""
"html-keyboard-response","195","450475","0.0-5.0-5.0-0.22","6981824afeedd525121adce4","not_provided","desktop","0","0","0","","","","","","working_memory","","null","<div class=""fixation"">+</div>","null","","","","","","","","","","","","","","","","",""
"html-keyboard-response","196","450681","0.0-5.0-5.0-1.22","6981824afeedd525121adce4","not_provided","desktop","0","0","0","","","","","","working_memory","","null","<img class='c' src=images/squares/cyan.png><img class='f' src=images/squares/magenta.png><img class='g' src=images/squares/yellow.png><img class='k' src=images/squares/blue.png><div class=""fixation"">+</div>","null","","","memory","exp","22","","","","","","","","","","","",""
"html-keyboard-response","197","451593","0.0-5.0-5.0-2.22","6981824afeedd525121adce4","not_provided","desktop","0","0","0","","","","","","working_memory","","null","<div class=""fixation"">+</div>","null","","","","","","","","","","","","","","","","",""
"html-keyboard-response","198","452409","0.0-5.0-5.0-3.22","6981824afeedd525121adce4","not_provided","desktop","0","0","0","","","","","","working_memory","","816","<img class='f' src=images/squares/green.png><div class=""fixation"">+</div>","k","","","test_squares","exp","22","4","k","true","sk","d","","","","","","",""
"html-keyboard-response","199","452911","0.0-5.0-5.0-4.22","6981824afeedd525121adce4","not_provided","desktop","0","0","0","","","","","","working_memory","","null","<div class=""fixation"">Correct</div>","null","","","","","","","","","","","","","","","","",""
"html-keyboard-response","200","453926","0.0-5.0-5.0-0.23","6981824afeedd525121adce4","not_provided","desktop","0","0","0","","","","","","working_memory","","null","<div class=""fixation"">+</div>","null","","","","","","","","","","","","","","","","",""
"html-keyboard-response","201","454128","0.0-5.0-5.0-1.23","6981824afeedd525121adce4","not_provided","desktop","0","0","0","","","","","","working_memory","","null","<img class='a' src=images/squares/yellow.png><img class='b' src=images/squares/green.png><img class='d' src=images/squares/magenta.png><img class='f' src=images/squares/blue.png><img class='h' src=images/squares/black.png><img class='i' src=images/squares/cyan.png><img class='l' src=images/squares/brown.png><img class='k' src=images/squares/red.png><div class=""fixation"">+</div>","null","","","memory","exp","23","","","","","","","","","","","",""
"html-keyboard-response","202","455032","0.0-5.0-5.0-2.23","6981824afeedd525121adce4","not_provided","desktop","0","0","0","","","","","","working_memory","","null","<div class=""fixation"">+</div>","null","","","","","","","","","","","","","","","","",""
"html-keyboard-response","203","455978","0.0-5.0-5.0-3.23","6981824afeedd525121adce4","not_provided","desktop","0","0","0","","","","","","working_memory","","945","<img class='l' src=images/squares/orange.png><div class=""fixation"">+</div>","k","","","test_squares","exp","23","8","k","true","sk","d","","","","","","",""
"html-keyboard-response","204","456492","0.0-5.0-5.0-4.23","6981824afeedd525121adce4","not_provided","desktop","0","0","0","","","","","","working_memory","","null","<div class=""fixation"">Correct</div>","null","","","","","","","","","","","","","","","","",""
"html-keyboard-response","205","457501","0.0-5.0-5.0-0.24","6981824afeedd525121adce4","not_provided","desktop","0","0","0","","","","","","working_memory","","null","<div class=""fixation"">+</div>","null","","","","","","","","","","","","","","","","",""
"html-keyboard-response","206","457712","0.0-5.0-5.0-1.24","6981824afeedd525121adce4","not_provided","desktop","0","0","0","","","","","","working_memory","","null","<img class='a' src=images/squares/red.png><img class='c' src=images/squares/yellow.png><img class='f' src=images/squares/brown.png><img class='e' src=images/squares/magenta.png><img class='i' src=images/squares/black.png><img class='g' src=images/squares/green.png><img class='k' src=images/squares/cyan.png><img class='j' src=images/squares/orange.png><div class=""fixation"">+</div>","null","","","memory","exp","24","","","","","","","","","","","",""
"html-keyboard-response","207","458625","0.0-5.0-5.0-2.24","6981824afeedd525121adce4","not_provided","desktop","0","0","0","","","","","","working_memory","","null","<div class=""fixation"">+</div>","null","","","","","","","","","","","","","","","","",""
"html-keyboard-response","208","459273","0.0-5.0-5.0-3.24","6981824afeedd525121adce4","not_provided","desktop","0","0","0","","","","","","working_memory","","647","<img class='i' src=images/squares/blue.png><div class=""fixation"">+</div>","k","","","test_squares","exp","24","8","k","true","sk","d","","","","","","",""
"html-keyboard-response","209","459774","0.0-5.0-5.0-4.24","6981824afeedd525121adce4","not_provided","desktop","0","0","0","","","","","","working_memory","","null","<div class=""fixation"">Correct</div>","null","","","","","","","","","","","","","","","","",""
"html-keyboard-response","210","460780","0.0-5.0-5.0-0.25","6981824afeedd525121adce4","not_provided","desktop","0","0","0","","","","","","working_memory","","null","<div class=""fixation"">+</div>","null","","","","","","","","","","","","","","","","",""
"html-keyboard-response","211","460986","0.0-5.0-5.0-1.25","6981824afeedd525121adce4","not_provided","desktop","0","0","0","","","","","","working_memory","","null","<img class='a' src=images/squares/orange.png><img class='c' src=images/squares/black.png><img class='d' src=images/squares/red.png><img class='e' src=images/squares/magenta.png><img class='i' src=images/squares/cyan.png><img class='h' src=images/squares/yellow.png><img class='j' src=images/squares/blue.png><img class='k' src=images/squares/brown.png><div class=""fixation"">+</div>","null","","","memory","exp","25","","","","","","","","","","","",""
"html-keyboard-response","212","461899","0.0-5.0-5.0-2.25","6981824afeedd525121adce4","not_provided","desktop","0","0","0","","","","","","working_memory","","null","<div class=""fixation"">+</div>","null","","","","","","","","","","","","","","","","",""
"html-keyboard-response","213","462665","0.0-5.0-5.0-3.25","6981824afeedd525121adce4","not_provided","desktop","0","0","0","","","","","","working_memory","","765","<img class='d' src=images/squares/green.png><div class=""fixation"">+</div>","k","","","test_squares","exp","25","8","k","true","sk","d","","","","","","",""
"html-keyboard-response","214","463173","0.0-5.0-5.0-4.25","6981824afeedd525121adce4","not_provided","desktop","0","0","0","","","","","","working_memory","","null","<div class=""fixation"">Correct</div>","null","","","","","","","","","","","","","","","","",""
"html-keyboard-response","215","464183","0.0-5.0-5.0-0.26","6981824afeedd525121adce4","not_provided","desktop","0","0","0","","","","","","working_memory","","null","<div class=""fixation"">+</div>","null","","","","","","","","","","","","","","","","",""
"html-keyboard-response","216","464403","0.0-5.0-5.0-1.26","6981824afeedd525121adce4","not_provided","desktop","0","0","0","","","","","","working_memory","","null","<img class='c' src=images/squares/cyan.png><img class='e' src=images/squares/black.png><img class='g' src=images/squares/red.png><img class='k' src=images/squares/magenta.png><div class=""fixation"">+</div>","null","","","memory","exp","26","","","","","","","","","","","",""
"html-keyboard-response","217","465312","0.0-5.0-5.0-2.26","6981824afeedd525121adce4","not_provided","desktop","0","0","0","","","","","","working_memory","","null","<div class=""fixation"">+</div>","null","","","","","","","","","","","","","","","","",""
"html-keyboard-response","218","466066","0.0-5.0-5.0-3.26","6981824afeedd525121adce4","not_provided","desktop","0","0","0","","","","","","working_memory","","753","<img class='c' src=images/squares/cyan.png><div class=""fixation"">+</div>","s","","","test_squares","exp","26","4","s","true","sk","s","","","","","","",""
"html-keyboard-response","219","466568","0.0-5.0-5.0-4.26","6981824afeedd525121adce4","not_provided","desktop","0","0","0","","","","","","working_memory","","null","<div class=""fixation"">Correct</div>","null","","","","","","","","","","","","","","","","",""
"html-keyboard-response","220","467578","0.0-5.0-5.0-0.27","6981824afeedd525121adce4","not_provided","desktop","0","0","0","","","","","","working_memory","","null","<div class=""fixation"">+</div>","null","","","","","","","","","","","","","","","","",""
"html-keyboard-response","221","467783","0.0-5.0-5.0-1.27","6981824afeedd525121adce4","not_provided","desktop","0","0","0","","","","","","working_memory","","null","<img class='c' src=images/squares/orange.png><img class='a' src=images/squares/green.png><img class='f' src=images/squares/red.png><img class='e' src=images/squares/black.png><img class='h' src=images/squares/brown.png><img class='g' src=images/squares/blue.png><img class='k' src=images/squares/cyan.png><img class='j' src=images/squares/magenta.png><div class=""fixation"">+</div>","null","","","memory","exp","27","","","","","","","","","","","",""
"html-keyboard-response","222","468688","0.0-5.0-5.0-2.27","6981824afeedd525121adce4","not_provided","desktop","0","0","0","","","","","","working_memory","","null","<div class=""fixation"">+</div>","null","","","","","","","","","","","","","","","","",""
"html-keyboard-response","223","469633","0.0-5.0-5.0-3.27","6981824afeedd525121adce4","not_provided","desktop","0","0","0","","","","","","working_memory","","944","<img class='j' src=images/squares/yellow.png><div class=""fixation"">+</div>","k","","","test_squares","exp","27","8","k","true","sk","d","","","","","","",""
"html-keyboard-response","224","470144","0.0-5.0-5.0-4.27","6981824afeedd525121adce4","not_provided","desktop","0","0","0","","","","","","working_memory","","null","<div class=""fixation"">Correct</div>","null","","","","","","","","","","","","","","","","",""
"html-keyboard-response","225","471153","0.0-5.0-5.0-0.28","6981824afeedd525121adce4","not_provided","desktop","0","0","0","","","","","","working_memory","","null","<div class=""fixation"">+</div>","null","","","","","","","","","","","","","","","","",""
"html-keyboard-response","226","471363","0.0-5.0-5.0-1.28","6981824afeedd525121adce4","not_provided","desktop","0","0","0","","","","","","working_memory","","null","<img class='b' src=images/squares/magenta.png><img class='c' src=images/squares/green.png><img class='f' src=images/squares/yellow.png><img class='e' src=images/squares/black.png><img class='h' src=images/squares/brown.png><img class='g' src=images/squares/cyan.png><img class='k' src=images/squares/red.png><img class='l' src=images/squares/orange.png><div class=""fixation"">+</div>","null","","","memory","exp","28","","","","","","","","","","","",""
"html-keyboard-response","227","472275","0.0-5.0-5.0-2.28","6981824afeedd525121adce4","not_provided","desktop","0","0","0","","","","","","working_memory","","null","<div class=""fixation"">+</div>","null","","","","","","","","","","","","","","","","",""
"html-keyboard-response","228","473146","0.0-5.0-5.0-3.28","6981824afeedd525121adce4","not_provided","desktop","0","0","0","","","","","","working_memory","","870","<img class='l' src=images/squares/blue.png><div class=""fixation"">+</div>","k","","","test_squares","exp","28","8","k","true","sk","d","","","","","","",""
"html-keyboard-response","229","473654","0.0-5.0-5.0-4.28","6981824afeedd525121adce4","not_provided","desktop","0","0","0","","","","","","working_memory","","null","<div class=""fixation"">Correct</div>","null","","","","","","","","","","","","","","","","",""
"html-keyboard-response","230","474657","0.0-5.0-5.0-0.29","6981824afeedd525121adce4","not_provided","desktop","0","0","0","","","","","","working_memory","","null","<div class=""fixation"">+</div>","null","","","","","","","","","","","","","","","","",""
"html-keyboard-response","231","474860","0.0-5.0-5.0-1.29","6981824afeedd525121adce4","not_provided","desktop","0","0","0","","","","","","working_memory","","null","<img class='b' src=images/squares/black.png><img class='a' src=images/squares/cyan.png><img class='f' src=images/squares/yellow.png><img class='e' src=images/squares/blue.png><img class='h' src=images/squares/red.png><img class='i' src=images/squares/green.png><img class='k' src=images/squares/brown.png><img class='l' src=images/squares/orange.png><div class=""fixation"">+</div>","null","","","memory","exp","29","","","","","","","","","","","",""
"html-keyboard-response","232","475776","0.0-5.0-5.0-2.29","6981824afeedd525121adce4","not_provided","desktop","0","0","0","","","","","","working_memory","","null","<div class=""fixation"">+</div>","null","","","","","","","","","","","","","","","","",""
"html-keyboard-response","233","476705","0.0-5.0-5.0-3.29","6981824afeedd525121adce4","not_provided","desktop","0","0","0","","","","","","working_memory","","929","<img class='e' src=images/squares/magenta.png><div class=""fixation"">+</div>","k","","","test_squares","exp","29","8","k","true","sk","d","","","","","","",""
"html-keyboard-response","234","477214","0.0-5.0-5.0-4.29","6981824afeedd525121adce4","not_provided","desktop","0","0","0","","","","","","working_memory","","null","<div class=""fixation"">Correct</div>","null","","","","","","","","","","","","","","","","",""
"html-keyboard-response","235","478224","0.0-5.0-5.0-0.30","6981824afeedd525121adce4","not_provided","desktop","0","0","0","","","","","","working_memory","","null","<div class=""fixation"">+</div>","null","","","","","","","","","","","","","","","","",""
"html-keyboard-response","236","478437","0.0-5.0-5.0-1.30","6981824afeedd525121adce4","not_provided","desktop","0","0","0","","","","","","working_memory","","null","<img class='c' src=images/squares/blue.png><img class='e' src=images/squares/orange.png><img class='i' src=images/squares/green.png><img class='k' src=images/squares/brown.png><div class=""fixation"">+</div>","null","","","memory","exp","30","","","","","","","","","","","",""
"html-keyboard-response","237","479347","0.0-5.0-5.0-2.30","6981824afeedd525121adce4","not_provided","desktop","0","0","0","","","","","","working_memory","","null","<div class=""fixation"">+</div>","null","","","","","","","","","","","","","","","","",""
"html-keyboard-response","238","480202","0.0-5.0-5.0-3.30","6981824afeedd525121adce4","not_provided","desktop","0","0","0","","","","","","working_memory","","854","<img class='e' src=images/squares/black.png><div class=""fixation"">+</div>","k","","","test_squares","exp","30","4","k","true","sk","d","","","","","","",""
"html-keyboard-response","239","480706","0.0-5.0-5.0-4.30","6981824afeedd525121adce4","not_provided","desktop","0","0","0","","","","","","working_memory","","null","<div class=""fixation"">Correct</div>","null","","","","","","","","","","","","","","","","",""
"html-keyboard-response","240","481721","0.0-5.0-5.0-0.31","6981824afeedd525121adce4","not_provided","desktop","0","0","0","","","","","","working_memory","","null","<div class=""fixation"">+</div>","null","","","","","","","","","","","","","","","","",""
"html-keyboard-response","241","481932","0.0-5.0-5.0-1.31","6981824afeedd525121adce4","not_provided","desktop","0","0","0","","","","","","working_memory","","null","<img class='c' src=images/squares/blue.png><img class='e' src=images/squares/cyan.png><img class='h' src=images/squares/red.png><img class='j' src=images/squares/magenta.png><div class=""fixation"">+</div>","null","","","memory","exp","31","","","","","","","","","","","",""
"html-keyboard-response","242","482845","0.0-5.0-5.0-2.31","6981824afeedd525121adce4","not_provided","desktop","0","0","0","","","","","","working_memory","","null","<div class=""fixation"">+</div>","null","","","","","","","","","","","","","","","","",""
"html-keyboard-response","243","483610","0.0-5.0-5.0-3.31","6981824afeedd525121adce4","not_provided","desktop","0","0","0","","","","","","working_memory","","764","<img class='h' src=images/squares/yellow.png><div class=""fixation"">+</div>","k","","","test_squares","exp","31","4","k","true","sk","d","","","","","","",""
"html-keyboard-response","244","484116","0.0-5.0-5.0-4.31","6981824afeedd525121adce4","not_provided","desktop","0","0","0","","","","","","working_memory","","null","<div class=""fixation"">Correct</div>","null","","","","","","","","","","","","","","","","",""
"html-keyboard-response","245","485130","0.0-5.0-5.0-0.32","6981824afeedd525121adce4","not_provided","desktop","0","0","0","","","","","","working_memory","","null","<div class=""fixation"">+</div>","null","","","","","","","","","","","","","","","","",""
"html-keyboard-response","246","485335","0.0-5.0-5.0-1.32","6981824afeedd525121adce4","not_provided","desktop","0","0","0","","","","","","working_memory","","null","<img class='b' src=images/squares/brown.png><img class='f' src=images/squares/black.png><img class='i' src=images/squares/cyan.png><img class='j' src=images/squares/blue.png><div class=""fixation"">+</div>","null","","","memory","exp","32","","","","","","","","","","","",""
"html-keyboard-response","247","486241","0.0-5.0-5.0-2.32","6981824afeedd525121adce4","not_provided","desktop","0","0","0","","","","","","working_memory","","null","<div class=""fixation"">+</div>","null","","","","","","","","","","","","","","","","",""
"html-keyboard-response","248","486930","0.0-5.0-5.0-3.32","6981824afeedd525121adce4","not_provided","desktop","0","0","0","","","","","","working_memory","","688","<img class='f' src=images/squares/green.png><div class=""fixation"">+</div>","k","","","test_squares","exp","32","4","k","true","sk","d","","","","","","",""
"html-keyboard-response","249","487444","0.0-5.0-5.0-4.32","6981824afeedd525121adce4","not_provided","desktop","0","0","0","","","","","","working_memory","","null","<div class=""fixation"">Correct</div>","null","","","","","","","","","","","","","","","","",""
"html-keyboard-response","250","488445","0.0-5.0-5.0-0.33","6981824afeedd525121adce4","not_provided","desktop","0","0","0","","","","","","working_memory","","null","<div class=""fixation"">+</div>","null","","","","","","","","","","","","","","","","",""
"html-keyboard-response","251","488651","0.0-5.0-5.0-1.33","6981824afeedd525121adce4","not_provided","desktop","0","0","0","","","","","","working_memory","","null","<img class='a' src=images/squares/orange.png><img class='e' src=images/squares/red.png><img class='g' src=images/squares/black.png><img class='j' src=images/squares/green.png><div class=""fixation"">+</div>","null","","","memory","exp","33","","","","","","","","","","","",""
"html-keyboard-response","252","489561","0.0-5.0-5.0-2.33","6981824afeedd525121adce4","not_provided","desktop","0","0","0","","","","","","working_memory","","null","<div class=""fixation"">+</div>","null","","","","","","","","","","","","","","","","",""
"html-keyboard-response","253","490434","0.0-5.0-5.0-3.33","6981824afeedd525121adce4","not_provided","desktop","0","0","0","","","","","","working_memory","","872","<img class='e' src=images/squares/red.png><div class=""fixation"">+</div>","s","","","test_squares","exp","33","4","s","true","sk","s","","","","","","",""
"html-keyboard-response","254","490939","0.0-5.0-5.0-4.33","6981824afeedd525121adce4","not_provided","desktop","0","0","0","","","","","","working_memory","","null","<div class=""fixation"">Correct</div>","null","","","","","","","","","","","","","","","","",""
"html-keyboard-response","255","491944","0.0-5.0-5.0-0.34","6981824afeedd525121adce4","not_provided","desktop","0","0","0","","","","","","working_memory","","null","<div class=""fixation"">+</div>","null","","","","","","","","","","","","","","","","",""
"html-keyboard-response","256","492156","0.0-5.0-5.0-1.34","6981824afeedd525121adce4","not_provided","desktop","0","0","0","","","","","","working_memory","","null","<img class='a' src=images/squares/black.png><img class='d' src=images/squares/cyan.png><img class='h' src=images/squares/brown.png><img class='l' src=images/squares/red.png><div class=""fixation"">+</div>","null","","","memory","exp","34","","","","","","","","","","","",""
"html-keyboard-response","257","493061","0.0-5.0-5.0-2.34","6981824afeedd525121adce4","not_provided","desktop","0","0","0","","","","","","working_memory","","null","<div class=""fixation"">+</div>","null","","","","","","","","","","","","","","","","",""
"html-keyboard-response","258","495041","0.0-5.0-5.0-3.34","6981824afeedd525121adce4","not_provided","desktop","0","0","0","","","","","","working_memory","","1980","<img class='h' src=images/squares/brown.png><div class=""fixation"">+</div>","k","","","test_squares","exp","34","4","s","false","sk","s","","","","","","",""
"html-keyboard-response","259","495554","0.0-5.0-5.0-4.34","6981824afeedd525121adce4","not_provided","desktop","0","0","0","","","","","","working_memory","","null","<div class=""fixation"">Incorrect</div>","null","","","","","","","","","","","","","","","","",""
"html-keyboard-response","260","496564","0.0-5.0-5.0-0.35","6981824afeedd525121adce4","not_provided","desktop","0","0","0","","","","","","working_memory","","null","<div class=""fixation"">+</div>","null","","","","","","","","","","","","","","","","",""
"html-keyboard-response","261","496778","0.0-5.0-5.0-1.35","6981824afeedd525121adce4","not_provided","desktop","0","0","0","","","","","","working_memory","","null","<img class='b' src=images/squares/yellow.png><img class='a' src=images/squares/brown.png><img class='f' src=images/squares/orange.png><img class='d' src=images/squares/red.png><img class='h' src=images/squares/green.png><img class='i' src=images/squares/blue.png><img class='j' src=images/squares/black.png><img class='k' src=images/squares/magenta.png><div class=""fixation"">+</div>","null","","","memory","exp","35","","","","","","","","","","","",""
"html-keyboard-response","262","497683","0.0-5.0-5.0-2.35","6981824afeedd525121adce4","not_provided","desktop","0","0","0","","","","","","working_memory","","null","<div class=""fixation"">+</div>","null","","","","","","","","","","","","","","","","",""
"html-keyboard-response","263","498666","0.0-5.0-5.0-3.35","6981824afeedd525121adce4","not_provided","desktop","0","0","0","","","","","","working_memory","","982","<img class='a' src=images/squares/brown.png><div class=""fixation"">+</div>","s","","","test_squares","exp","35","8","s","true","sk","s","","","","","","",""
"html-keyboard-response","264","499168","0.0-5.0-5.0-4.35","6981824afeedd525121adce4","not_provided","desktop","0","0","0","","","","","","working_memory","","null","<div class=""fixation"">Correct</div>","null","","","","","","","","","","","","","","","","",""
"html-keyboard-response","265","500174","0.0-5.0-5.0-0.36","6981824afeedd525121adce4","not_provided","desktop","0","0","0","","","","","","working_memory","","null","<div class=""fixation"">+</div>","null","","","","","","","","","","","","","","","","",""
"html-keyboard-response","266","500387","0.0-5.0-5.0-1.36","6981824afeedd525121adce4","not_provided","desktop","0","0","0","","","","","","working_memory","","null","<img class='b' src=images/squares/blue.png><img class='e' src=images/squares/green.png><img class='i' src=images/squares/red.png><img class='k' src=images/squares/cyan.png><div class=""fixation"">+</div>","null","","","memory","exp","36","","","","","","","","","","","",""
"html-keyboard-response","267","501302","0.0-5.0-5.0-2.36","6981824afeedd525121adce4","not_provided","desktop","0","0","0","","","","","","working_memory","","null","<div class=""fixation"">+</div>","null","","","","","","","","","","","","","","","","",""
"html-keyboard-response","268","502122","0.0-5.0-5.0-3.36","6981824afeedd525121adce4","not_provided","desktop","0","0","0","","","","","","working_memory","","819","<img class='e' src=images/squares/brown.png><div class=""fixation"">+</div>","k","","","test_squares","exp","36","4","k","true","sk","d","","","","","","",""
"html-keyboard-response","269","502625","0.0-5.0-5.0-4.36","6981824afeedd525121adce4","not_provided","desktop","0","0","0","","","","","","working_memory","","null","<div class=""fixation"">Correct</div>","null","","","","","","","","","","","","","","","","",""
"html-keyboard-response","270","503636","0.0-5.0-5.0-0.37","6981824afeedd525121adce4","not_provided","desktop","0","0","0","","","","","","working_memory","","null","<div class=""fixation"">+</div>","null","","","","","","","","","","","","","","","","",""
"html-keyboard-response","271","503847","0.0-5.0-5.0-1.37","6981824afeedd525121adce4","not_provided","desktop","0","0","0","","","","","","working_memory","","null","<img class='a' src=images/squares/cyan.png><img class='f' src=images/squares/blue.png><img class='h' src=images/squares/magenta.png><img class='k' src=images/squares/orange.png><div class=""fixation"">+</div>","null","","","memory","exp","37","","","","","","","","","","","",""
"html-keyboard-response","272","504758","0.0-5.0-5.0-2.37","6981824afeedd525121adce4","not_provided","desktop","0","0","0","","","","","","working_memory","","null","<div class=""fixation"">+</div>","null","","","","","","","","","","","","","","","","",""
"html-keyboard-response","273","505408","0.0-5.0-5.0-3.37","6981824afeedd525121adce4","not_provided","desktop","0","0","0","","","","","","working_memory","","650","<img class='k' src=images/squares/green.png><div class=""fixation"">+</div>","k","","","test_squares","exp","37","4","k","true","sk","d","","","","","","",""
"html-keyboard-response","274","505922","0.0-5.0-5.0-4.37","6981824afeedd525121adce4","not_provided","desktop","0","0","0","","","","","","working_memory","","null","<div class=""fixation"">Correct</div>","null","","","","","","","","","","","","","","","","",""
"html-keyboard-response","275","506938","0.0-5.0-5.0-0.38","6981824afeedd525121adce4","not_provided","desktop","0","0","0","","","","","","working_memory","","null","<div class=""fixation"">+</div>","null","","","","","","","","","","","","","","","","",""
"html-keyboard-response","276","507151","0.0-5.0-5.0-1.38","6981824afeedd525121adce4","not_provided","desktop","0","0","0","","","","","","working_memory","","null","<img class='a' src=images/squares/cyan.png><img class='b' src=images/squares/red.png><img class='f' src=images/squares/orange.png><img class='e' src=images/squares/black.png><img class='g' src=images/squares/magenta.png><img class='h' src=images/squares/yellow.png><img class='k' src=images/squares/brown.png><img class='j' src=images/squares/green.png><div class=""fixation"">+</div>","null","","","memory","exp","38","","","","","","","","","","","",""
"html-keyboard-response","277","508056","0.0-5.0-5.0-2.38","6981824afeedd525121adce4","not_provided","desktop","0","0","0","","","","","","working_memory","","null","<div class=""fixation"">+</div>","null","","","","","","","","","","","","","","","","",""
"html-keyboard-response","278","509337","0.0-5.0-5.0-3.38","6981824afeedd525121adce4","not_provided","desktop","0","0","0","","","","","","working_memory","","1281","<img class='k' src=images/squares/brown.png><div class=""fixation"">+</div>","s","","","test_squares","exp","38","8","s","true","sk","s","","","","","","",""
"html-keyboard-response","279","509853","0.0-5.0-5.0-4.38","6981824afeedd525121adce4","not_provided","desktop","0","0","0","","","","","","working_memory","","null","<div class=""fixation"">Correct</div>","null","","","","","","","","","","","","","","","","",""
"html-keyboard-response","280","510865","0.0-5.0-5.0-0.39","6981824afeedd525121adce4","not_provided","desktop","0","0","0","","","","","","working_memory","","null","<div class=""fixation"">+</div>","null","","","","","","","","","","","","","","","","",""
"html-keyboard-response","281","511071","0.0-5.0-5.0-1.39","6981824afeedd525121adce4","not_provided","desktop","0","0","0","","","","","","working_memory","","null","<img class='a' src=images/squares/green.png><img class='f' src=images/squares/cyan.png><img class='h' src=images/squares/magenta.png><img class='l' src=images/squares/black.png><div class=""fixation"">+</div>","null","","","memory","exp","39","","","","","","","","","","","",""
"html-keyboard-response","282","511975","0.0-5.0-5.0-2.39","6981824afeedd525121adce4","not_provided","desktop","0","0","0","","","","","","working_memory","","null","<div class=""fixation"">+</div>","null","","","","","","","","","","","","","","","","",""
"html-keyboard-response","283","512873","0.0-5.0-5.0-3.39","6981824afeedd525121adce4","not_provided","desktop","0","0","0","","","","","","working_memory","","897","<img class='h' src=images/squares/magenta.png><div class=""fixation"">+</div>","s","","","test_squares","exp","39","4","s","true","sk","s","","","","","","",""
"html-keyboard-response","284","513384","0.0-5.0-5.0-4.39","6981824afeedd525121adce4","not_provided","desktop","0","0","0","","","","","","working_memory","","null","<div class=""fixation"">Correct</div>","null","","","","","","","","","","","","","","","","",""
"html-keyboard-response","285","514386","0.0-5.0-5.0-0.40","6981824afeedd525121adce4","not_provided","desktop","0","0","0","","","","","","working_memory","","null","<div class=""fixation"">+</div>","null","","","","","","","","","","","","","","","","",""
"html-keyboard-response","286","514595","0.0-5.0-5.0-1.40","6981824afeedd525121adce4","not_provided","desktop","0","0","0","","","","","","working_memory","","null","<img class='b' src=images/squares/yellow.png><img class='a' src=images/squares/blue.png><img class='e' src=images/squares/magenta.png><img class='d' src=images/squares/green.png><img class='g' src=images/squares/brown.png><img class='i' src=images/squares/red.png><img class='l' src=images/squares/cyan.png><img class='k' src=images/squares/orange.png><div class=""fixation"">+</div>","null","","","memory","exp","40","","","","","","","","","","","",""
"html-keyboard-response","287","515496","0.0-5.0-5.0-2.40","6981824afeedd525121adce4","not_provided","desktop","0","0","0","","","","","","working_memory","","null","<div class=""fixation"">+</div>","null","","","","","","","","","","","","","","","","",""
"html-keyboard-response","288","516234","0.0-5.0-5.0-3.40","6981824afeedd525121adce4","not_provided","desktop","0","0","0","","","","","","working_memory","","737","<img class='l' src=images/squares/black.png><div class=""fixation"">+</div>","k","","","test_squares","exp","40","8","k","true","sk","d","","","","","","",""
"html-keyboard-response","289","516734","0.0-5.0-5.0-4.40","6981824afeedd525121adce4","not_provided","desktop","0","0","0","","","","","","working_memory","","null","<div class=""fixation"">Correct</div>","null","","","","","","","","","","","","","","","","",""
"html-keyboard-response","290","517744","0.0-5.0-5.0-0.41","6981824afeedd525121adce4","not_provided","desktop","0","0","0","","","","","","working_memory","","null","<div class=""fixation"">+</div>","null","","","","","","","","","","","","","","","","",""
"html-keyboard-response","291","517957","0.0-5.0-5.0-1.41","6981824afeedd525121adce4","not_provided","desktop","0","0","0","","","","","","working_memory","","null","<img class='c' src=images/squares/blue.png><img class='f' src=images/squares/green.png><img class='h' src=images/squares/brown.png><img class='k' src=images/squares/cyan.png><div class=""fixation"">+</div>","null","","","memory","exp","41","","","","","","","","","","","",""
"html-keyboard-response","292","518867","0.0-5.0-5.0-2.41","6981824afeedd525121adce4","not_provided","desktop","0","0","0","","","","","","working_memory","","null","<div class=""fixation"">+</div>","null","","","","","","","","","","","","","","","","",""
"html-keyboard-response","293","519626","0.0-5.0-5.0-3.41","6981824afeedd525121adce4","not_provided","desktop","0","0","0","","","","","","working_memory","","757","<img class='h' src=images/squares/red.png><div class=""fixation"">+</div>","k","","","test_squares","exp","41","4","k","true","sk","d","","","","","","",""
"html-keyboard-response","294","520136","0.0-5.0-5.0-4.41","6981824afeedd525121adce4","not_provided","desktop","0","0","0","","","","","","working_memory","","null","<div class=""fixation"">Correct</div>","null","","","","","","","","","","","","","","","","",""
"html-keyboard-response","295","521141","0.0-5.0-5.0-0.42","6981824afeedd525121adce4","not_provided","desktop","0","0","0","","","","","","working_memory","","null","<div class=""fixation"">+</div>","null","","","","","","","","","","","","","","","","",""
"html-keyboard-response","296","521348","0.0-5.0-5.0-1.42","6981824afeedd525121adce4","not_provided","desktop","0","0","0","","","","","","working_memory","","null","<img class='a' src=images/squares/cyan.png><img class='f' src=images/squares/black.png><img class='g' src=images/squares/yellow.png><img class='j' src=images/squares/orange.png><div class=""fixation"">+</div>","null","","","memory","exp","42","","","","","","","","","","","",""
"html-keyboard-response","297","522254","0.0-5.0-5.0-2.42","6981824afeedd525121adce4","not_provided","desktop","0","0","0","","","","","","working_memory","","null","<div class=""fixation"">+</div>","null","","","","","","","","","","","","","","","","",""
"html-keyboard-response","298","522961","0.0-5.0-5.0-3.42","6981824afeedd525121adce4","not_provided","desktop","0","0","0","","","","","","working_memory","","706","<img class='f' src=images/squares/blue.png><div class=""fixation"">+</div>","k","","","test_squares","exp","42","4","k","true","sk","d","","","","","","",""
"html-keyboard-response","299","523467","0.0-5.0-5.0-4.42","6981824afeedd525121adce4","not_provided","desktop","0","0","0","","","","","","working_memory","","null","<div class=""fixation"">Correct</div>","null","","","","","","","","","","","","","","","","",""
"html-keyboard-response","300","524482","0.0-5.0-5.0-0.43","6981824afeedd525121adce4","not_provided","desktop","0","0","0","","","","","","working_memory","","null","<div class=""fixation"">+</div>","null","","","","","","","","","","","","","","","","",""
"html-keyboard-response","301","524684","0.0-5.0-5.0-1.43","6981824afeedd525121adce4","not_provided","desktop","0","0","0","","","","","","working_memory","","null","<img class='b' src=images/squares/yellow.png><img class='c' src=images/squares/green.png><img class='d' src=images/squares/orange.png><img class='e' src=images/squares/black.png><img class='g' src=images/squares/blue.png><img class='h' src=images/squares/brown.png><img class='j' src=images/squares/cyan.png><img class='k' src=images/squares/magenta.png><div class=""fixation"">+</div>","null","","","memory","exp","43","","","","","","","","","","","",""
"html-keyboard-response","302","525597","0.0-5.0-5.0-2.43","6981824afeedd525121adce4","not_provided","desktop","0","0","0","","","","","","working_memory","","null","<div class=""fixation"">+</div>","null","","","","","","","","","","","","","","","","",""
