"trial_type","trial_index","time_elapsed","internal_node_id","subject_id","study_id","device_type","blur_count","fullscreen_exit_count","failed_attention_checks","success","timeout","failed_images","failed_audio","failed_video","phase","value","rt","stimulus","response","view_history","question_order","trial_name","block_type","trial_num","set_size","correct_response","accuracy","mapping","condition","prompt","flipped","attention","expected_answer","category","question_index","task"
"pavlovia","0","889","0.0-0.0","69808775dc84b90f4adafb2f","not_provided","desktop","0","0","0","","","","","","","","","","","","","","","","","","","","","","","","","","",""
"preload","1","896","0.0-2.0","69808775dc84b90f4adafb2f","not_provided","desktop","0","0","0","true","false","[]","[]","[]","","","","","","","","","","","","","","","","","","","","","",""
"html-keyboard-response","2","13145","0.0-3.0-0.0","69808775dc84b90f4adafb2f","not_provided","desktop","0","0","0","","","","","","captcha","","","","","","","","","","","","","","","","","","","","",""
"fullscreen","3","22110","0.0-4.0","69808775dc84b90f4adafb2f","not_provided","desktop","0","0","0","true","","","","","setup","","","","","","","","","","","","","","","","","","","","",""
"call-function","4","22113","0.0-5.0-0.0","69808775dc84b90f4adafb2f","not_provided","desktop","0","0","0","","","","","","working_memory","","","","","","","","","","","","","","","","","","","","",""
"html-keyboard-response","5","53159","0.0-5.0-1.0","69808775dc84b90f4adafb2f","not_provided","desktop","0","0","0","","","","","","working_memory","","31044","<div style=""text-align:center;font-family:sans-serif;""><p>Welcome to the luck game experiment!</p><p>This two-day experiment takes part in a study aimed at developing better clinical treatments.</p><p>We appreciate your participation and require your full concentration.</p><br><p>This is a two-day study. Payment (£6/hour) is only given upon completing both parts today and tomorrow.</p><p>You must finish the second part for compensation. After today, you'll receive an invitation for tomorrow's session.</p><p>Please ensure you can attend both sessions before proceeding. Otherwise, you may exit now.</p><p>If you have any questions, please contact us via prolific.</p><br><p>Please stay attentive and in fullscreen mode to ensure payment.</p><p>Thank you for participating!</p><br><p id=""continue-prompt"" style=""visibility:hidden;""><b>Press any key to continue.</b></p></div>"," ","","","","","","","","","","","","","","","","",""
"instructions","6","185571","0.0-5.0-2.0-0.0","69808775dc84b90f4adafb2f","not_provided","desktop","0","0","0","","","","","","working_memory","","132410","","","[{""page_index"":0,""viewing_time"":3896},{""page_index"":1,""viewing_time"":5288},{""page_index"":2,""viewing_time"":14730},{""page_index"":3,""viewing_time"":4831},{""page_index"":4,""viewing_time"":32115},{""page_index"":5,""viewing_time"":20895},{""page_index"":6,""viewing_time"":33315},{""page_index"":7,""viewing_time"":12316},{""page_index"":8,""viewing_time"":5025}]","","","","","","","","","","","","","","","",""
"survey-multi-choice","7","264517","0.0-5.0-2.0-1.0","69808775dc84b90f4adafb2f","not_provided","desktop","0","0","0","","","","","","working_memory","","78943","","{""set_size"":""2 or 4"",""steps"":""True"",""choose_square"":""Press the 's' or 'k' key."",""remember"":""The color and location of the single 'test' square"",""task"":""To tell if the 'test' square is in the same color as the square previously appearing in this location""}","","[0,1,2,3,4]","test_squares_quiz","","","","","","","","","","","","","",""
"html-button-response","8","272556","0.0-5.0-2.0-2.0-0.0","69808775dc84b90f4adafb2f","not_provided","desktop","0","0","0","","","","","","working_memory","","8037","<p>Sorry, you made a mistake on the quiz.<br>Let's go back to the instructions &mdash; please read carefully before submitting again.<br>Thank you!</p>","0","","","","","","","","","","","","","","","","",""
"instructions","9","299061","0.0-5.0-2.1-0.1","69808775dc84b90f4adafb2f","not_provided","desktop","0","0","0","","","","","","working_memory","","26504","","","[{""page_index"":0,""viewing_time"":2826},{""page_index"":1,""viewing_time"":1342},{""page_index"":2,""viewing_time"":1635},{""page_index"":3,""viewing_time"":2220},{""page_index"":4,""viewing_time"":2475},{""page_index"":5,""viewing_time"":10178},{""page_index"":6,""viewing_time"":1852},{""page_index"":7,""viewing_time"":2678},{""page_index"":8,""viewing_time"":1298}]","","","","","","","","","","","","","","","",""
"survey-multi-choice","10","328672","0.0-5.0-2.1-1.1","69808775dc84b90f4adafb2f","not_provided","desktop","0","0","0","","","","","","working_memory","","29609","","{""set_size"":""4 or 8"",""steps"":""True"",""choose_square"":""Press the 's' or 'k' key."",""remember"":""The color and location of the single 'test' square"",""task"":""To tell if the 'test' square is in the same color as the square previously appearing in this location""}","","[0,1,2,3,4]","test_squares_quiz","","","","","","","","","","","","","",""
"html-button-response","11","331897","0.0-5.0-2.1-2.1-0.1","69808775dc84b90f4adafb2f","not_provided","desktop","0","0","0","","","","","","working_memory","","3223","<p>Sorry, you made a mistake on the quiz.<br>Let's go back to the instructions &mdash; please read carefully before submitting again.<br>Thank you!</p>","0","","","","","","","","","","","","","","","","",""
"instructions","12","399953","0.0-5.0-2.2-0.2","69808775dc84b90f4adafb2f","not_provided","desktop","0","0","0","","","","","","working_memory","","68055","","","[{""page_index"":0,""viewing_time"":1356},{""page_index"":1,""viewing_time"":585},{""page_index"":2,""viewing_time"":788},{""page_index"":3,""viewing_time"":1590},{""page_index"":4,""viewing_time"":1373},{""page_index"":5,""viewing_time"":3495},{""page_index"":6,""viewing_time"":31808},{""page_index"":7,""viewing_time"":12097},{""page_index"":8,""viewing_time"":14963}]","","","","","","","","","","","","","","","",""
"survey-multi-choice","13","488146","0.0-5.0-2.2-1.2","69808775dc84b90f4adafb2f","not_provided","desktop","0","0","0","","","","","","working_memory","","88192","","{""set_size"":""4 or 8"",""steps"":""True"",""choose_square"":""Press the 's' or 'k' key."",""remember"":""The colors and locations of the 'memory' squares"",""task"":""To tell if the 'test' square is in the same color as the square previously appearing in this location""}","","[0,1,2,3,4]","test_squares_quiz","","","","","","","","","","","","","",""
"html-keyboard-response","14","496147","0.0-5.0-3.0-0.0","69808775dc84b90f4adafb2f","not_provided","desktop","0","0","0","","","","","","working_memory","","7999","<p>We will now start some practice trials.<br><b>The practice trials will also include some trials in which you will need to remember only one square to make sure you understood the instructions.</b><br>You may already want to be ready with your fingers on '<b>s</b>' and '<b>k</b>'.<br><img class=""wm-example-img"" src=""images/examples/keyboard.png""><br><b style=""font-size:1.2em;"">&lsquo;S&rsquo; = SAME &nbsp;&nbsp;&nbsp; &lsquo;K&rsquo; = DIFFERENT</b><br><br><u>Please try to be as accurate as possible.</u><br><br><b>Press any key to begin</b></p>"," ","","","","","","","","","","","","","","","","",""
"html-keyboard-response","15","498160","0.0-5.0-3.0-1.0-0.0","69808775dc84b90f4adafb2f","not_provided","desktop","0","0","0","","","","","","working_memory","","null","<div class=""fixation"">+</div>","null","","","","","","","","","","","","","","","","",""
"html-keyboard-response","16","498377","0.0-5.0-3.0-1.0-1.0","69808775dc84b90f4adafb2f","not_provided","desktop","0","0","0","","","","","","working_memory","","null","<img class='upper1' src=images/squares/black.png><div class=""fixation"">+</div>","null","","","memory","practice","0","1","","","","","","","","","","",""
"html-keyboard-response","17","499279","0.0-5.0-3.0-1.0-2.0","69808775dc84b90f4adafb2f","not_provided","desktop","0","0","0","","","","","","working_memory","","null","<div class=""fixation"">+</div>","null","","","","","","","","","","","","","","","","",""
"html-keyboard-response","18","504705","0.0-5.0-3.0-1.0-3.0","69808775dc84b90f4adafb2f","not_provided","desktop","0","0","0","","","","","","working_memory","","5424","<img class='upper1' src=images/squares/black.png><div class=""fixation"">+</div>","s","","","test","practice","0","1","s","true","","","","","","","","",""
"html-keyboard-response","19","505206","0.0-5.0-3.0-1.0-4.0","69808775dc84b90f4adafb2f","not_provided","desktop","0","0","0","","","","","","working_memory","","null","<div class=""fixation"">Correct</div>","null","","","","","","","","","","","","","","","","",""
"html-keyboard-response","20","506208","0.0-5.0-3.0-1.0-0.1","69808775dc84b90f4adafb2f","not_provided","desktop","0","0","0","","","","","","working_memory","","null","<div class=""fixation"">+</div>","null","","","","","","","","","","","","","","","","",""
"html-keyboard-response","21","506410","0.0-5.0-3.0-1.0-1.1","69808775dc84b90f4adafb2f","not_provided","desktop","0","0","0","","","","","","working_memory","","null","<img class='c' src=images/squares/magenta.png><img class='b' src=images/squares/cyan.png><img class='e' src=images/squares/red.png><img class='f' src=images/squares/brown.png><img class='g' src=images/squares/yellow.png><img class='h' src=images/squares/green.png><img class='j' src=images/squares/black.png><img class='l' src=images/squares/orange.png><div class=""fixation"">+</div>","null","","","memory","practice","1","8","","","","","","","","","","",""
"html-keyboard-response","22","507311","0.0-5.0-3.0-1.0-2.1","69808775dc84b90f4adafb2f","not_provided","desktop","0","0","0","","","","","","working_memory","","null","<div class=""fixation"">+</div>","null","","","","","","","","","","","","","","","","",""
"html-keyboard-response","23","510196","0.0-5.0-3.0-1.0-3.1","69808775dc84b90f4adafb2f","not_provided","desktop","0","0","0","","","","","","working_memory","","2884","<img class='j' src=images/squares/blue.png><div class=""fixation"">+</div>","s","","","test","practice","1","8","k","false","","","","","","","","",""
"html-keyboard-response","24","510710","0.0-5.0-3.0-1.0-4.1","69808775dc84b90f4adafb2f","not_provided","desktop","0","0","0","","","","","","working_memory","","null","<div class=""fixation"">Incorrect</div>","null","","","","","","","","","","","","","","","","",""
"html-keyboard-response","25","511715","0.0-5.0-3.0-1.0-0.2","69808775dc84b90f4adafb2f","not_provided","desktop","0","0","0","","","","","","working_memory","","null","<div class=""fixation"">+</div>","null","","","","","","","","","","","","","","","","",""
"html-keyboard-response","26","511931","0.0-5.0-3.0-1.0-1.2","69808775dc84b90f4adafb2f","not_provided","desktop","0","0","0","","","","","","working_memory","","null","<img class='a' src=images/squares/green.png><img class='e' src=images/squares/black.png><img class='g' src=images/squares/red.png><img class='l' src=images/squares/cyan.png><div class=""fixation"">+</div>","null","","","memory","practice","2","4","","","","","","","","","","",""
"html-keyboard-response","27","512842","0.0-5.0-3.0-1.0-2.2","69808775dc84b90f4adafb2f","not_provided","desktop","0","0","0","","","","","","working_memory","","null","<div class=""fixation"">+</div>","null","","","","","","","","","","","","","","","","",""
"html-keyboard-response","28","516634","0.0-5.0-3.0-1.0-3.2","69808775dc84b90f4adafb2f","not_provided","desktop","0","0","0","","","","","","working_memory","","3791","<img class='g' src=images/squares/orange.png><div class=""fixation"">+</div>","s","","","test","practice","2","4","k","false","","","","","","","","",""
"html-keyboard-response","29","517140","0.0-5.0-3.0-1.0-4.2","69808775dc84b90f4adafb2f","not_provided","desktop","0","0","0","","","","","","working_memory","","null","<div class=""fixation"">Incorrect</div>","null","","","","","","","","","","","","","","","","",""
"html-keyboard-response","30","518145","0.0-5.0-3.0-1.0-0.3","69808775dc84b90f4adafb2f","not_provided","desktop","0","0","0","","","","","","working_memory","","null","<div class=""fixation"">+</div>","null","","","","","","","","","","","","","","","","",""
"html-keyboard-response","31","518349","0.0-5.0-3.0-1.0-1.3","69808775dc84b90f4adafb2f","not_provided","desktop","0","0","0","","","","","","working_memory","","null","<img class='a' src=images/squares/black.png><img class='b' src=images/squares/magenta.png><img class='e' src=images/squares/green.png><img class='f' src=images/squares/cyan.png><img class='i' src=images/squares/yellow.png><img class='g' src=images/squares/red.png><img class='k' src=images/squares/orange.png><img class='l' src=images/squares/blue.png><div class=""fixation"">+</div>","null","","","memory","practice","3","8","","","","","","","","","","",""
"html-keyboard-response","32","519250","0.0-5.0-3.0-1.0-2.3","69808775dc84b90f4adafb2f","not_provided","desktop","0","0","0","","","","","","working_memory","","null","<div class=""fixation"">+</div>","null","","","","","","","","","","","","","","","","",""
"html-keyboard-response","33","521119","0.0-5.0-3.0-1.0-3.3","69808775dc84b90f4adafb2f","not_provided","desktop","0","0","0","","","","","","working_memory","","1867","<img class='i' src=images/squares/brown.png><div class=""fixation"">+</div>","k","","","test","practice","3","8","k","true","","","","","","","","",""
"html-keyboard-response","34","521625","0.0-5.0-3.0-1.0-4.3","69808775dc84b90f4adafb2f","not_provided","desktop","0","0","0","","","","","","working_memory","","null","<div class=""fixation"">Correct</div>","null","","","","","","","","","","","","","","","","",""
"html-keyboard-response","35","522640","0.0-5.0-3.0-1.0-0.4","69808775dc84b90f4adafb2f","not_provided","desktop","0","0","0","","","","","","working_memory","","null","<div class=""fixation"">+</div>","null","","","","","","","","","","","","","","","","",""
"html-keyboard-response","36","522853","0.0-5.0-3.0-1.0-1.4","69808775dc84b90f4adafb2f","not_provided","desktop","0","0","0","","","","","","working_memory","","null","<img class='lower2' src=images/squares/cyan.png><div class=""fixation"">+</div>","null","","","memory","practice","4","1","","","","","","","","","","",""
"html-keyboard-response","37","523767","0.0-5.0-3.0-1.0-2.4","69808775dc84b90f4adafb2f","not_provided","desktop","0","0","0","","","","","","working_memory","","null","<div class=""fixation"">+</div>","null","","","","","","","","","","","","","","","","",""
"html-keyboard-response","38","527029","0.0-5.0-3.0-1.0-3.4","69808775dc84b90f4adafb2f","not_provided","desktop","0","0","0","","","","","","working_memory","","3260","<img class='lower2' src=images/squares/black.png><div class=""fixation"">+</div>","k","","","test","practice","4","1","k","true","","","","","","","","",""
"html-keyboard-response","39","527546","0.0-5.0-3.0-1.0-4.4","69808775dc84b90f4adafb2f","not_provided","desktop","0","0","0","","","","","","working_memory","","null","<div class=""fixation"">Correct</div>","null","","","","","","","","","","","","","","","","",""
"html-keyboard-response","40","528559","0.0-5.0-3.0-1.0-0.5","69808775dc84b90f4adafb2f","not_provided","desktop","0","0","0","","","","","","working_memory","","null","<div class=""fixation"">+</div>","null","","","","","","","","","","","","","","","","",""
"html-keyboard-response","41","528768","0.0-5.0-3.0-1.0-1.5","69808775dc84b90f4adafb2f","not_provided","desktop","0","0","0","","","","","","working_memory","","null","<img class='lower2' src=images/squares/orange.png><div class=""fixation"">+</div>","null","","","memory","practice","5","1","","","","","","","","","","",""
"html-keyboard-response","42","529671","0.0-5.0-3.0-1.0-2.5","69808775dc84b90f4adafb2f","not_provided","desktop","0","0","0","","","","","","working_memory","","null","<div class=""fixation"">+</div>","null","","","","","","","","","","","","","","","","",""
"html-keyboard-response","43","531662","0.0-5.0-3.0-1.0-3.5","69808775dc84b90f4adafb2f","not_provided","desktop","0","0","0","","","","","","working_memory","","1989","<img class='lower2' src=images/squares/orange.png><div class=""fixation"">+</div>","s","","","test","practice","5","1","s","true","","","","","","","","",""
"html-keyboard-response","44","532173","0.0-5.0-3.0-1.0-4.5","69808775dc84b90f4adafb2f","not_provided","desktop","0","0","0","","","","","","working_memory","","null","<div class=""fixation"">Correct</div>","null","","","","","","","","","","","","","","","","",""
"html-keyboard-response","45","533177","0.0-5.0-3.0-1.0-0.6","69808775dc84b90f4adafb2f","not_provided","desktop","0","0","0","","","","","","working_memory","","null","<div class=""fixation"">+</div>","null","","","","","","","","","","","","","","","","",""
"html-keyboard-response","46","533385","0.0-5.0-3.0-1.0-1.6","69808775dc84b90f4adafb2f","not_provided","desktop","0","0","0","","","","","","working_memory","","null","<img class='b' src=images/squares/red.png><img class='a' src=images/squares/yellow.png><img class='e' src=images/squares/black.png><img class='d' src=images/squares/green.png><img class='h' src=images/squares/magenta.png><img class='i' src=images/squares/brown.png><img class='l' src=images/squares/orange.png><img class='j' src=images/squares/cyan.png><div class=""fixation"">+</div>","null","","","memory","practice","6","8","","","","","","","","","","",""
"html-keyboard-response","47","534289","0.0-5.0-3.0-1.0-2.6","69808775dc84b90f4adafb2f","not_provided","desktop","0","0","0","","","","","","working_memory","","null","<div class=""fixation"">+</div>","null","","","","","","","","","","","","","","","","",""
"html-keyboard-response","48","536508","0.0-5.0-3.0-1.0-3.6","69808775dc84b90f4adafb2f","not_provided","desktop","0","0","0","","","","","","working_memory","","2218","<img class='b' src=images/squares/blue.png><div class=""fixation"">+</div>","k","","","test","practice","6","8","k","true","","","","","","","","",""
"html-keyboard-response","49","537013","0.0-5.0-3.0-1.0-4.6","69808775dc84b90f4adafb2f","not_provided","desktop","0","0","0","","","","","","working_memory","","null","<div class=""fixation"">Correct</div>","null","","","","","","","","","","","","","","","","",""
"html-keyboard-response","50","538022","0.0-5.0-3.0-1.0-0.7","69808775dc84b90f4adafb2f","not_provided","desktop","0","0","0","","","","","","working_memory","","null","<div class=""fixation"">+</div>","null","","","","","","","","","","","","","","","","",""
"html-keyboard-response","51","538232","0.0-5.0-3.0-1.0-1.7","69808775dc84b90f4adafb2f","not_provided","desktop","0","0","0","","","","","","working_memory","","null","<img class='c' src=images/squares/orange.png><img class='a' src=images/squares/brown.png><img class='d' src=images/squares/blue.png><img class='e' src=images/squares/yellow.png><img class='g' src=images/squares/black.png><img class='i' src=images/squares/magenta.png><img class='j' src=images/squares/cyan.png><img class='k' src=images/squares/red.png><div class=""fixation"">+</div>","null","","","memory","practice","7","8","","","","","","","","","","",""
"html-keyboard-response","52","539156","0.0-5.0-3.0-1.0-2.7","69808775dc84b90f4adafb2f","not_provided","desktop","0","0","0","","","","","","working_memory","","null","<div class=""fixation"">+</div>","null","","","","","","","","","","","","","","","","",""
"html-keyboard-response","53","540457","0.0-5.0-3.0-1.0-3.7","69808775dc84b90f4adafb2f","not_provided","desktop","0","0","0","","","","","","working_memory","","1300","<img class='g' src=images/squares/black.png><div class=""fixation"">+</div>","s","","","test","practice","7","8","s","true","","","","","","","","",""
"html-keyboard-response","54","540960","0.0-5.0-3.0-1.0-4.7","69808775dc84b90f4adafb2f","not_provided","desktop","0","0","0","","","","","","working_memory","","null","<div class=""fixation"">Correct</div>","null","","","","","","","","","","","","","","","","",""
"html-keyboard-response","55","541971","0.0-5.0-3.0-1.0-0.8","69808775dc84b90f4adafb2f","not_provided","desktop","0","0","0","","","","","","working_memory","","null","<div class=""fixation"">+</div>","null","","","","","","","","","","","","","","","","",""
"html-keyboard-response","56","542174","0.0-5.0-3.0-1.0-1.8","69808775dc84b90f4adafb2f","not_provided","desktop","0","0","0","","","","","","working_memory","","null","<img class='lower1' src=images/squares/black.png><div class=""fixation"">+</div>","null","","","memory","practice","8","1","","","","","","","","","","",""
"html-keyboard-response","57","543085","0.0-5.0-3.0-1.0-2.8","69808775dc84b90f4adafb2f","not_provided","desktop","0","0","0","","","","","","working_memory","","null","<div class=""fixation"">+</div>","null","","","","","","","","","","","","","","","","",""
"html-keyboard-response","58","545479","0.0-5.0-3.0-1.0-3.8","69808775dc84b90f4adafb2f","not_provided","desktop","0","0","0","","","","","","working_memory","","2392","<img class='lower1' src=images/squares/cyan.png><div class=""fixation"">+</div>","k","","","test","practice","8","1","k","true","","","","","","","","",""
"html-keyboard-response","59","545991","0.0-5.0-3.0-1.0-4.8","69808775dc84b90f4adafb2f","not_provided","desktop","0","0","0","","","","","","working_memory","","null","<div class=""fixation"">Correct</div>","null","","","","","","","","","","","","","","","","",""
"html-keyboard-response","60","546997","0.0-5.0-3.0-1.0-0.9","69808775dc84b90f4adafb2f","not_provided","desktop","0","0","0","","","","","","working_memory","","null","<div class=""fixation"">+</div>","null","","","","","","","","","","","","","","","","",""
"html-keyboard-response","61","547200","0.0-5.0-3.0-1.0-1.9","69808775dc84b90f4adafb2f","not_provided","desktop","0","0","0","","","","","","working_memory","","null","<img class='a' src=images/squares/green.png><img class='c' src=images/squares/cyan.png><img class='f' src=images/squares/blue.png><img class='e' src=images/squares/orange.png><img class='h' src=images/squares/magenta.png><img class='i' src=images/squares/brown.png><img class='l' src=images/squares/red.png><img class='j' src=images/squares/yellow.png><div class=""fixation"">+</div>","null","","","memory","practice","9","8","","","","","","","","","","",""
"html-keyboard-response","62","548109","0.0-5.0-3.0-1.0-2.9","69808775dc84b90f4adafb2f","not_provided","desktop","0","0","0","","","","","","working_memory","","null","<div class=""fixation"">+</div>","null","","","","","","","","","","","","","","","","",""
"html-keyboard-response","63","549925","0.0-5.0-3.0-1.0-3.9","69808775dc84b90f4adafb2f","not_provided","desktop","0","0","0","","","","","","working_memory","","1815","<img class='j' src=images/squares/black.png><div class=""fixation"">+</div>","k","","","test","practice","9","8","k","true","","","","","","","","",""
"html-keyboard-response","64","550435","0.0-5.0-3.0-1.0-4.9","69808775dc84b90f4adafb2f","not_provided","desktop","0","0","0","","","","","","working_memory","","null","<div class=""fixation"">Correct</div>","null","","","","","","","","","","","","","","","","",""
"html-keyboard-response","65","551437","0.0-5.0-3.0-1.0-0.10","69808775dc84b90f4adafb2f","not_provided","desktop","0","0","0","","","","","","working_memory","","null","<div class=""fixation"">+</div>","null","","","","","","","","","","","","","","","","",""
"html-keyboard-response","66","551644","0.0-5.0-3.0-1.0-1.10","69808775dc84b90f4adafb2f","not_provided","desktop","0","0","0","","","","","","working_memory","","null","<img class='upper1' src=images/squares/green.png><div class=""fixation"">+</div>","null","","","memory","practice","10","1","","","","","","","","","","",""
"html-keyboard-response","67","552558","0.0-5.0-3.0-1.0-2.10","69808775dc84b90f4adafb2f","not_provided","desktop","0","0","0","","","","","","working_memory","","null","<div class=""fixation"">+</div>","null","","","","","","","","","","","","","","","","",""
"html-keyboard-response","68","553833","0.0-5.0-3.0-1.0-3.10","69808775dc84b90f4adafb2f","not_provided","desktop","0","0","0","","","","","","working_memory","","1274","<img class='upper1' src=images/squares/green.png><div class=""fixation"">+</div>","s","","","test","practice","10","1","s","true","","","","","","","","",""
"html-keyboard-response","69","554346","0.0-5.0-3.0-1.0-4.10","69808775dc84b90f4adafb2f","not_provided","desktop","0","0","0","","","","","","working_memory","","null","<div class=""fixation"">Correct</div>","null","","","","","","","","","","","","","","","","",""
"html-keyboard-response","70","555359","0.0-5.0-3.0-1.0-0.11","69808775dc84b90f4adafb2f","not_provided","desktop","0","0","0","","","","","","working_memory","","null","<div class=""fixation"">+</div>","null","","","","","","","","","","","","","","","","",""
"html-keyboard-response","71","555565","0.0-5.0-3.0-1.0-1.11","69808775dc84b90f4adafb2f","not_provided","desktop","0","0","0","","","","","","working_memory","","null","<img class='lower3' src=images/squares/orange.png><div class=""fixation"">+</div>","null","","","memory","practice","11","1","","","","","","","","","","",""
"html-keyboard-response","72","556473","0.0-5.0-3.0-1.0-2.11","69808775dc84b90f4adafb2f","not_provided","desktop","0","0","0","","","","","","working_memory","","null","<div class=""fixation"">+</div>","null","","","","","","","","","","","","","","","","",""
"html-keyboard-response","73","557495","0.0-5.0-3.0-1.0-3.11","69808775dc84b90f4adafb2f","not_provided","desktop","0","0","0","","","","","","working_memory","","1020","<img class='lower3' src=images/squares/orange.png><div class=""fixation"">+</div>","s","","","test","practice","11","1","s","true","","","","","","","","",""
"html-keyboard-response","74","557997","0.0-5.0-3.0-1.0-4.11","69808775dc84b90f4adafb2f","not_provided","desktop","0","0","0","","","","","","working_memory","","null","<div class=""fixation"">Correct</div>","null","","","","","","","","","","","","","","","","",""
"html-keyboard-response","75","559013","0.0-5.0-3.0-1.0-0.12","69808775dc84b90f4adafb2f","not_provided","desktop","0","0","0","","","","","","working_memory","","null","<div class=""fixation"">+</div>","null","","","","","","","","","","","","","","","","",""
"html-keyboard-response","76","559226","0.0-5.0-3.0-1.0-1.12","69808775dc84b90f4adafb2f","not_provided","desktop","0","0","0","","","","","","working_memory","","null","<img class='lower3' src=images/squares/black.png><div class=""fixation"">+</div>","null","","","memory","practice","12","1","","","","","","","","","","",""
"html-keyboard-response","77","560128","0.0-5.0-3.0-1.0-2.12","69808775dc84b90f4adafb2f","not_provided","desktop","0","0","0","","","","","","working_memory","","null","<div class=""fixation"">+</div>","null","","","","","","","","","","","","","","","","",""
"html-keyboard-response","78","561908","0.0-5.0-3.0-1.0-3.12","69808775dc84b90f4adafb2f","not_provided","desktop","0","0","0","","","","","","working_memory","","1779","<img class='lower3' src=images/squares/orange.png><div class=""fixation"">+</div>","k","","","test","practice","12","1","k","true","","","","","","","","",""
"html-keyboard-response","79","562423","0.0-5.0-3.0-1.0-4.12","69808775dc84b90f4adafb2f","not_provided","desktop","0","0","0","","","","","","working_memory","","null","<div class=""fixation"">Correct</div>","null","","","","","","","","","","","","","","","","",""
"html-keyboard-response","80","563426","0.0-5.0-3.0-1.0-0.13","69808775dc84b90f4adafb2f","not_provided","desktop","0","0","0","","","","","","working_memory","","null","<div class=""fixation"">+</div>","null","","","","","","","","","","","","","","","","",""
"html-keyboard-response","81","563630","0.0-5.0-3.0-1.0-1.13","69808775dc84b90f4adafb2f","not_provided","desktop","0","0","0","","","","","","working_memory","","null","<img class='c' src=images/squares/yellow.png><img class='f' src=images/squares/black.png><img class='i' src=images/squares/brown.png><img class='l' src=images/squares/green.png><div class=""fixation"">+</div>","null","","","memory","practice","13","4","","","","","","","","","","",""
"html-keyboard-response","82","564532","0.0-5.0-3.0-1.0-2.13","69808775dc84b90f4adafb2f","not_provided","desktop","0","0","0","","","","","","working_memory","","null","<div class=""fixation"">+</div>","null","","","","","","","","","","","","","","","","",""
"html-keyboard-response","83","566229","0.0-5.0-3.0-1.0-3.13","69808775dc84b90f4adafb2f","not_provided","desktop","0","0","0","","","","","","working_memory","","1696","<img class='i' src=images/squares/orange.png><div class=""fixation"">+</div>","k","","","test","practice","13","4","k","true","","","","","","","","",""
"html-keyboard-response","84","566730","0.0-5.0-3.0-1.0-4.13","69808775dc84b90f4adafb2f","not_provided","desktop","0","0","0","","","","","","working_memory","","null","<div class=""fixation"">Correct</div>","null","","","","","","","","","","","","","","","","",""
"html-keyboard-response","85","567733","0.0-5.0-3.0-1.0-0.14","69808775dc84b90f4adafb2f","not_provided","desktop","0","0","0","","","","","","working_memory","","null","<div class=""fixation"">+</div>","null","","","","","","","","","","","","","","","","",""
"html-keyboard-response","86","567952","0.0-5.0-3.0-1.0-1.14","69808775dc84b90f4adafb2f","not_provided","desktop","0","0","0","","","","","","working_memory","","null","<img class='lower1' src=images/squares/cyan.png><div class=""fixation"">+</div>","null","","","memory","practice","14","1","","","","","","","","","","",""
"html-keyboard-response","87","568868","0.0-5.0-3.0-1.0-2.14","69808775dc84b90f4adafb2f","not_provided","desktop","0","0","0","","","","","","working_memory","","null","<div class=""fixation"">+</div>","null","","","","","","","","","","","","","","","","",""
"html-keyboard-response","88","569799","0.0-5.0-3.0-1.0-3.14","69808775dc84b90f4adafb2f","not_provided","desktop","0","0","0","","","","","","working_memory","","929","<img class='lower1' src=images/squares/cyan.png><div class=""fixation"">+</div>","s","","","test","practice","14","1","s","true","","","","","","","","",""
"html-keyboard-response","89","570302","0.0-5.0-3.0-1.0-4.14","69808775dc84b90f4adafb2f","not_provided","desktop","0","0","0","","","","","","working_memory","","null","<div class=""fixation"">Correct</div>","null","","","","","","","","","","","","","","","","",""
"html-keyboard-response","90","577883","0.0-5.0-4.0","69808775dc84b90f4adafb2f","not_provided","desktop","0","0","0","","","","","","working_memory","","7579","<div style=""text-align:center;font-family:sans-serif;""><p>Good job! You have finished the practice.</p><p>We will now start the real experiment.</p><p>Please try to be as accurate as possible.</p><p><b><u>Note: random guessing may risk your payment.</u></b></p><br><p><b>Press any key to begin.</b></p></div>"," ","","","","","","","","","","","","","","","","",""
"html-keyboard-response","91","578890","0.0-5.0-5.0-0.0","69808775dc84b90f4adafb2f","not_provided","desktop","0","0","0","","","","","","working_memory","","null","<div class=""fixation"">+</div>","null","","","","","","","","","","","","","","","","",""
"html-keyboard-response","92","579101","0.0-5.0-5.0-1.0","69808775dc84b90f4adafb2f","not_provided","desktop","0","0","0","","","","","","working_memory","","null","<img class='c' src=images/squares/blue.png><img class='a' src=images/squares/black.png><img class='d' src=images/squares/cyan.png><img class='e' src=images/squares/orange.png><img class='g' src=images/squares/yellow.png><img class='i' src=images/squares/brown.png><img class='l' src=images/squares/magenta.png><img class='k' src=images/squares/green.png><div class=""fixation"">+</div>","null","","","memory","exp","0","","","","","","","","","","","",""
"html-keyboard-response","93","580012","0.0-5.0-5.0-2.0","69808775dc84b90f4adafb2f","not_provided","desktop","0","0","0","","","","","","working_memory","","null","<div class=""fixation"">+</div>","null","","","","","","","","","","","","","","","","",""
"html-keyboard-response","94","582513","0.0-5.0-5.0-3.0","69808775dc84b90f4adafb2f","not_provided","desktop","0","0","0","","","","","","working_memory","","2500","<img class='a' src=images/squares/red.png><div class=""fixation"">+</div>","k","","","test_squares","exp","0","8","k","true","sk","d","","","","","","",""
"html-keyboard-response","95","583030","0.0-5.0-5.0-4.0","69808775dc84b90f4adafb2f","not_provided","desktop","0","0","0","","","","","","working_memory","","null","<div class=""fixation"">Correct</div>","null","","","","","","","","","","","","","","","","",""
"html-keyboard-response","96","584040","0.0-5.0-5.0-0.1","69808775dc84b90f4adafb2f","not_provided","desktop","0","0","0","","","","","","working_memory","","null","<div class=""fixation"">+</div>","null","","","","","","","","","","","","","","","","",""
"html-keyboard-response","97","584250","0.0-5.0-5.0-1.1","69808775dc84b90f4adafb2f","not_provided","desktop","0","0","0","","","","","","working_memory","","null","<img class='a' src=images/squares/red.png><img class='d' src=images/squares/black.png><img class='g' src=images/squares/magenta.png><img class='k' src=images/squares/orange.png><div class=""fixation"">+</div>","null","","","memory","exp","1","","","","","","","","","","","",""
"html-keyboard-response","98","585152","0.0-5.0-5.0-2.1","69808775dc84b90f4adafb2f","not_provided","desktop","0","0","0","","","","","","working_memory","","null","<div class=""fixation"">+</div>","null","","","","","","","","","","","","","","","","",""
"html-keyboard-response","99","586402","0.0-5.0-5.0-3.1","69808775dc84b90f4adafb2f","not_provided","desktop","0","0","0","","","","","","working_memory","","1248","<img class='k' src=images/squares/brown.png><div class=""fixation"">+</div>","k","","","test_squares","exp","1","4","k","true","sk","d","","","","","","",""
"html-keyboard-response","100","586909","0.0-5.0-5.0-4.1","69808775dc84b90f4adafb2f","not_provided","desktop","0","0","0","","","","","","working_memory","","null","<div class=""fixation"">Correct</div>","null","","","","","","","","","","","","","","","","",""
"html-keyboard-response","101","587926","0.0-5.0-5.0-0.2","69808775dc84b90f4adafb2f","not_provided","desktop","0","0","0","","","","","","working_memory","","null","<div class=""fixation"">+</div>","null","","","","","","","","","","","","","","","","",""
"html-keyboard-response","102","588131","0.0-5.0-5.0-1.2","69808775dc84b90f4adafb2f","not_provided","desktop","0","0","0","","","","","","working_memory","","null","<img class='c' src=images/squares/red.png><img class='f' src=images/squares/magenta.png><img class='i' src=images/squares/yellow.png><img class='l' src=images/squares/blue.png><div class=""fixation"">+</div>","null","","","memory","exp","2","","","","","","","","","","","",""
"html-keyboard-response","103","589045","0.0-5.0-5.0-2.2","69808775dc84b90f4adafb2f","not_provided","desktop","0","0","0","","","","","","working_memory","","null","<div class=""fixation"">+</div>","null","","","","","","","","","","","","","","","","",""
"html-keyboard-response","104","590946","0.0-5.0-5.0-3.2","69808775dc84b90f4adafb2f","not_provided","desktop","0","0","0","","","","","","working_memory","","1899","<img class='f' src=images/squares/magenta.png><div class=""fixation"">+</div>","s","","","test_squares","exp","2","4","s","true","sk","s","","","","","","",""
"html-keyboard-response","105","591448","0.0-5.0-5.0-4.2","69808775dc84b90f4adafb2f","not_provided","desktop","0","0","0","","","","","","working_memory","","null","<div class=""fixation"">Correct</div>","null","","","","","","","","","","","","","","","","",""
"html-keyboard-response","106","592453","0.0-5.0-5.0-0.3","69808775dc84b90f4adafb2f","not_provided","desktop","0","0","0","","","","","","working_memory","","null","<div class=""fixation"">+</div>","null","","","","","","","","","","","","","","","","",""
"html-keyboard-response","107","592668","0.0-5.0-5.0-1.3","69808775dc84b90f4adafb2f","not_provided","desktop","0","0","0","","","","","","working_memory","","null","<img class='c' src=images/squares/yellow.png><img class='b' src=images/squares/magenta.png><img class='e' src=images/squares/red.png><img class='d' src=images/squares/cyan.png><img class='h' src=images/squares/black.png><img class='g' src=images/squares/blue.png><img class='j' src=images/squares/green.png><img class='k' src=images/squares/orange.png><div class=""fixation"">+</div>","null","","","memory","exp","3","","","","","","","","","","","",""
"html-keyboard-response","108","593577","0.0-5.0-5.0-2.3","69808775dc84b90f4adafb2f","not_provided","desktop","0","0","0","","","","","","working_memory","","null","<div class=""fixation"">+</div>","null","","","","","","","","","","","","","","","","",""
"html-keyboard-response","109","595392","0.0-5.0-5.0-3.3","69808775dc84b90f4adafb2f","not_provided","desktop","0","0","0","","","","","","working_memory","","1814","<img class='k' src=images/squares/brown.png><div class=""fixation"">+</div>","k","","","test_squares","exp","3","8","k","true","sk","d","","","","","","",""
"html-keyboard-response","110","595896","0.0-5.0-5.0-4.3","69808775dc84b90f4adafb2f","not_provided","desktop","0","0","0","","","","","","working_memory","","null","<div class=""fixation"">Correct</div>","null","","","","","","","","","","","","","","","","",""
"html-keyboard-response","111","596901","0.0-5.0-5.0-0.4","69808775dc84b90f4adafb2f","not_provided","desktop","0","0","0","","","","","","working_memory","","null","<div class=""fixation"">+</div>","null","","","","","","","","","","","","","","","","",""
"html-keyboard-response","112","597114","0.0-5.0-5.0-1.4","69808775dc84b90f4adafb2f","not_provided","desktop","0","0","0","","","","","","working_memory","","null","<img class='a' src=images/squares/yellow.png><img class='b' src=images/squares/black.png><img class='f' src=images/squares/cyan.png><img class='d' src=images/squares/red.png><img class='i' src=images/squares/brown.png><img class='h' src=images/squares/magenta.png><img class='j' src=images/squares/green.png><img class='l' src=images/squares/blue.png><div class=""fixation"">+</div>","null","","","memory","exp","4","","","","","","","","","","","",""
"html-keyboard-response","113","598030","0.0-5.0-5.0-2.4","69808775dc84b90f4adafb2f","not_provided","desktop","0","0","0","","","","","","working_memory","","null","<div class=""fixation"">+</div>","null","","","","","","","","","","","","","","","","",""
"html-keyboard-response","114","599414","0.0-5.0-5.0-3.4","69808775dc84b90f4adafb2f","not_provided","desktop","0","0","0","","","","","","working_memory","","1383","<img class='i' src=images/squares/brown.png><div class=""fixation"">+</div>","s","","","test_squares","exp","4","8","s","true","sk","s","","","","","","",""
"html-keyboard-response","115","599925","0.0-5.0-5.0-4.4","69808775dc84b90f4adafb2f","not_provided","desktop","0","0","0","","","","","","working_memory","","null","<div class=""fixation"">Correct</div>","null","","","","","","","","","","","","","","","","",""
"html-keyboard-response","116","600934","0.0-5.0-5.0-0.5","69808775dc84b90f4adafb2f","not_provided","desktop","0","0","0","","","","","","working_memory","","null","<div class=""fixation"">+</div>","null","","","","","","","","","","","","","","","","",""
"html-keyboard-response","117","601143","0.0-5.0-5.0-1.5","69808775dc84b90f4adafb2f","not_provided","desktop","0","0","0","","","","","","working_memory","","null","<img class='a' src=images/squares/blue.png><img class='e' src=images/squares/magenta.png><img class='h' src=images/squares/green.png><img class='l' src=images/squares/red.png><div class=""fixation"">+</div>","null","","","memory","exp","5","","","","","","","","","","","",""
"html-keyboard-response","118","602050","0.0-5.0-5.0-2.5","69808775dc84b90f4adafb2f","not_provided","desktop","0","0","0","","","","","","working_memory","","null","<div class=""fixation"">+</div>","null","","","","","","","","","","","","","","","","",""
"html-keyboard-response","119","603257","0.0-5.0-5.0-3.5","69808775dc84b90f4adafb2f","not_provided","desktop","0","0","0","","","","","","working_memory","","1206","<img class='e' src=images/squares/magenta.png><div class=""fixation"">+</div>","s","","","test_squares","exp","5","4","s","true","sk","s","","","","","","",""
"html-keyboard-response","120","603764","0.0-5.0-5.0-4.5","69808775dc84b90f4adafb2f","not_provided","desktop","0","0","0","","","","","","working_memory","","null","<div class=""fixation"">Correct</div>","null","","","","","","","","","","","","","","","","",""
"html-keyboard-response","121","604779","0.0-5.0-5.0-0.6","69808775dc84b90f4adafb2f","not_provided","desktop","0","0","0","","","","","","working_memory","","null","<div class=""fixation"">+</div>","null","","","","","","","","","","","","","","","","",""
"html-keyboard-response","122","604987","0.0-5.0-5.0-1.6","69808775dc84b90f4adafb2f","not_provided","desktop","0","0","0","","","","","","working_memory","","null","<img class='b' src=images/squares/orange.png><img class='f' src=images/squares/black.png><img class='i' src=images/squares/brown.png><img class='j' src=images/squares/cyan.png><div class=""fixation"">+</div>","null","","","memory","exp","6","","","","","","","","","","","",""
"html-keyboard-response","123","605894","0.0-5.0-5.0-2.6","69808775dc84b90f4adafb2f","not_provided","desktop","0","0","0","","","","","","working_memory","","null","<div class=""fixation"">+</div>","null","","","","","","","","","","","","","","","","",""
"html-keyboard-response","124","607029","0.0-5.0-5.0-3.6","69808775dc84b90f4adafb2f","not_provided","desktop","0","0","0","","","","","","working_memory","","1134","<img class='j' src=images/squares/cyan.png><div class=""fixation"">+</div>","s","","","test_squares","exp","6","4","s","true","sk","s","","","","","","",""
"html-keyboard-response","125","607543","0.0-5.0-5.0-4.6","69808775dc84b90f4adafb2f","not_provided","desktop","0","0","0","","","","","","working_memory","","null","<div class=""fixation"">Correct</div>","null","","","","","","","","","","","","","","","","",""
"html-keyboard-response","126","608555","0.0-5.0-5.0-0.7","69808775dc84b90f4adafb2f","not_provided","desktop","0","0","0","","","","","","working_memory","","null","<div class=""fixation"">+</div>","null","","","","","","","","","","","","","","","","",""
"html-keyboard-response","127","608760","0.0-5.0-5.0-1.7","69808775dc84b90f4adafb2f","not_provided","desktop","0","0","0","","","","","","working_memory","","null","<img class='a' src=images/squares/brown.png><img class='e' src=images/squares/orange.png><img class='g' src=images/squares/black.png><img class='j' src=images/squares/green.png><div class=""fixation"">+</div>","null","","","memory","exp","7","","","","","","","","","","","",""
"html-keyboard-response","128","609671","0.0-5.0-5.0-2.7","69808775dc84b90f4adafb2f","not_provided","desktop","0","0","0","","","","","","working_memory","","null","<div class=""fixation"">+</div>","null","","","","","","","","","","","","","","","","",""
"html-keyboard-response","129","610662","0.0-5.0-5.0-3.7","69808775dc84b90f4adafb2f","not_provided","desktop","0","0","0","","","","","","working_memory","","990","<img class='j' src=images/squares/green.png><div class=""fixation"">+</div>","s","","","test_squares","exp","7","4","s","true","sk","s","","","","","","",""
"html-keyboard-response","130","611169","0.0-5.0-5.0-4.7","69808775dc84b90f4adafb2f","not_provided","desktop","0","0","0","","","","","","working_memory","","null","<div class=""fixation"">Correct</div>","null","","","","","","","","","","","","","","","","",""
"html-keyboard-response","131","612181","0.0-5.0-5.0-0.8","69808775dc84b90f4adafb2f","not_provided","desktop","0","0","0","","","","","","working_memory","","null","<div class=""fixation"">+</div>","null","","","","","","","","","","","","","","","","",""
"html-keyboard-response","132","612394","0.0-5.0-5.0-1.8","69808775dc84b90f4adafb2f","not_provided","desktop","0","0","0","","","","","","working_memory","","null","<img class='a' src=images/squares/orange.png><img class='e' src=images/squares/red.png><img class='g' src=images/squares/brown.png><img class='l' src=images/squares/magenta.png><div class=""fixation"">+</div>","null","","","memory","exp","8","","","","","","","","","","","",""
"html-keyboard-response","133","613309","0.0-5.0-5.0-2.8","69808775dc84b90f4adafb2f","not_provided","desktop","0","0","0","","","","","","working_memory","","null","<div class=""fixation"">+</div>","null","","","","","","","","","","","","","","","","",""
"html-keyboard-response","134","614408","0.0-5.0-5.0-3.8","69808775dc84b90f4adafb2f","not_provided","desktop","0","0","0","","","","","","working_memory","","1098","<img class='g' src=images/squares/brown.png><div class=""fixation"">+</div>","s","","","test_squares","exp","8","4","s","true","sk","s","","","","","","",""
"html-keyboard-response","135","614911","0.0-5.0-5.0-4.8","69808775dc84b90f4adafb2f","not_provided","desktop","0","0","0","","","","","","working_memory","","null","<div class=""fixation"">Correct</div>","null","","","","","","","","","","","","","","","","",""
"html-keyboard-response","136","615921","0.0-5.0-5.0-0.9","69808775dc84b90f4adafb2f","not_provided","desktop","0","0","0","","","","","","working_memory","","null","<div class=""fixation"">+</div>","null","","","","","","","","","","","","","","","","",""
"html-keyboard-response","137","616128","0.0-5.0-5.0-1.9","69808775dc84b90f4adafb2f","not_provided","desktop","0","0","0","","","","","","working_memory","","null","<img class='b' src=images/squares/magenta.png><img class='c' src=images/squares/orange.png><img class='f' src=images/squares/blue.png><img class='d' src=images/squares/green.png><img class='h' src=images/squares/yellow.png><img class='g' src=images/squares/cyan.png><img class='l' src=images/squares/red.png><img class='k' src=images/squares/brown.png><div class=""fixation"">+</div>","null","","","memory","exp","9","","","","","","","","","","","",""
"html-keyboard-response","138","617037","0.0-5.0-5.0-2.9","69808775dc84b90f4adafb2f","not_provided","desktop","0","0","0","","","","","","working_memory","","null","<div class=""fixation"">+</div>","null","","","","","","","","","","","","","","","","",""
"html-keyboard-response","139","618311","0.0-5.0-5.0-3.9","69808775dc84b90f4adafb2f","not_provided","desktop","0","0","0","","","","","","working_memory","","1272","<img class='h' src=images/squares/black.png><div class=""fixation"">+</div>","k","","","test_squares","exp","9","8","k","true","sk","d","","","","","","",""
"html-keyboard-response","140","618827","0.0-5.0-5.0-4.9","69808775dc84b90f4adafb2f","not_provided","desktop","0","0","0","","","","","","working_memory","","null","<div class=""fixation"">Correct</div>","null","","","","","","","","","","","","","","","","",""
"html-keyboard-response","141","619835","0.0-5.0-5.0-0.10","69808775dc84b90f4adafb2f","not_provided","desktop","0","0","0","","","","","","working_memory","","null","<div class=""fixation"">+</div>","null","","","","","","","","","","","","","","","","",""
"html-keyboard-response","142","620039","0.0-5.0-5.0-1.10","69808775dc84b90f4adafb2f","not_provided","desktop","0","0","0","","","","","","working_memory","","null","<img class='b' src=images/squares/blue.png><img class='a' src=images/squares/brown.png><img class='f' src=images/squares/yellow.png><img class='d' src=images/squares/magenta.png><img class='h' src=images/squares/cyan.png><img class='i' src=images/squares/black.png><img class='k' src=images/squares/red.png><img class='l' src=images/squares/green.png><div class=""fixation"">+</div>","null","","","memory","exp","10","","","","","","","","","","","",""
"html-keyboard-response","143","620943","0.0-5.0-5.0-2.10","69808775dc84b90f4adafb2f","not_provided","desktop","0","0","0","","","","","","working_memory","","null","<div class=""fixation"">+</div>","null","","","","","","","","","","","","","","","","",""
"html-keyboard-response","144","622595","0.0-5.0-5.0-3.10","69808775dc84b90f4adafb2f","not_provided","desktop","0","0","0","","","","","","working_memory","","1650","<img class='l' src=images/squares/orange.png><div class=""fixation"">+</div>","s","","","test_squares","exp","10","8","k","false","sk","d","","","","","","",""
"html-keyboard-response","145","623099","0.0-5.0-5.0-4.10","69808775dc84b90f4adafb2f","not_provided","desktop","0","0","0","","","","","","working_memory","","null","<div class=""fixation"">Incorrect</div>","null","","","","","","","","","","","","","","","","",""
"html-keyboard-response","146","624104","0.0-5.0-5.0-0.11","69808775dc84b90f4adafb2f","not_provided","desktop","0","0","0","","","","","","working_memory","","null","<div class=""fixation"">+</div>","null","","","","","","","","","","","","","","","","",""
"html-keyboard-response","147","624321","0.0-5.0-5.0-1.11","69808775dc84b90f4adafb2f","not_provided","desktop","0","0","0","","","","","","working_memory","","null","<img class='a' src=images/squares/green.png><img class='b' src=images/squares/orange.png><img class='f' src=images/squares/cyan.png><img class='d' src=images/squares/magenta.png><img class='g' src=images/squares/black.png><img class='h' src=images/squares/yellow.png><img class='j' src=images/squares/blue.png><img class='l' src=images/squares/red.png><div class=""fixation"">+</div>","null","","","memory","exp","11","","","","","","","","","","","",""
"html-keyboard-response","148","625230","0.0-5.0-5.0-2.11","69808775dc84b90f4adafb2f","not_provided","desktop","0","0","0","","","","","","working_memory","","null","<div class=""fixation"">+</div>","null","","","","","","","","","","","","","","","","",""
"html-keyboard-response","149","626466","0.0-5.0-5.0-3.11","69808775dc84b90f4adafb2f","not_provided","desktop","0","0","0","","","","","","working_memory","","1235","<img class='l' src=images/squares/brown.png><div class=""fixation"">+</div>","s","","","test_squares","exp","11","8","k","false","sk","d","","","","","","",""
"html-keyboard-response","150","626977","0.0-5.0-5.0-4.11","69808775dc84b90f4adafb2f","not_provided","desktop","0","0","0","","","","","","working_memory","","null","<div class=""fixation"">Incorrect</div>","null","","","","","","","","","","","","","","","","",""
"html-keyboard-response","151","627985","0.0-5.0-5.0-0.12","69808775dc84b90f4adafb2f","not_provided","desktop","0","0","0","","","","","","working_memory","","null","<div class=""fixation"">+</div>","null","","","","","","","","","","","","","","","","",""
"html-keyboard-response","152","628200","0.0-5.0-5.0-1.12","69808775dc84b90f4adafb2f","not_provided","desktop","0","0","0","","","","","","working_memory","","null","<img class='b' src=images/squares/orange.png><img class='d' src=images/squares/red.png><img class='i' src=images/squares/black.png><img class='l' src=images/squares/yellow.png><div class=""fixation"">+</div>","null","","","memory","exp","12","","","","","","","","","","","",""
"html-keyboard-response","153","629112","0.0-5.0-5.0-2.12","69808775dc84b90f4adafb2f","not_provided","desktop","0","0","0","","","","","","working_memory","","null","<div class=""fixation"">+</div>","null","","","","","","","","","","","","","","","","",""
"html-keyboard-response","154","630852","0.0-5.0-5.0-3.12","69808775dc84b90f4adafb2f","not_provided","desktop","0","0","0","","","","","","working_memory","","1739","<img class='i' src=images/squares/green.png><div class=""fixation"">+</div>","k","","","test_squares","exp","12","4","k","true","sk","d","","","","","","",""
"html-keyboard-response","155","631366","0.0-5.0-5.0-4.12","69808775dc84b90f4adafb2f","not_provided","desktop","0","0","0","","","","","","working_memory","","null","<div class=""fixation"">Correct</div>","null","","","","","","","","","","","","","","","","",""
"html-keyboard-response","156","632371","0.0-5.0-5.0-0.13","69808775dc84b90f4adafb2f","not_provided","desktop","0","0","0","","","","","","working_memory","","null","<div class=""fixation"">+</div>","null","","","","","","","","","","","","","","","","",""
"html-keyboard-response","157","632573","0.0-5.0-5.0-1.13","69808775dc84b90f4adafb2f","not_provided","desktop","0","0","0","","","","","","working_memory","","null","<img class='c' src=images/squares/orange.png><img class='e' src=images/squares/magenta.png><img class='h' src=images/squares/brown.png><img class='l' src=images/squares/cyan.png><div class=""fixation"">+</div>","null","","","memory","exp","13","","","","","","","","","","","",""
"html-keyboard-response","158","633482","0.0-5.0-5.0-2.13","69808775dc84b90f4adafb2f","not_provided","desktop","0","0","0","","","","","","working_memory","","null","<div class=""fixation"">+</div>","null","","","","","","","","","","","","","","","","",""
"html-keyboard-response","159","636268","0.0-5.0-5.0-3.13","69808775dc84b90f4adafb2f","not_provided","desktop","0","0","0","","","","","","working_memory","","2785","<img class='c' src=images/squares/orange.png><div class=""fixation"">+</div>","s","","","test_squares","exp","13","4","s","true","sk","s","","","","","","",""
"html-keyboard-response","160","636784","0.0-5.0-5.0-4.13","69808775dc84b90f4adafb2f","not_provided","desktop","0","0","0","","","","","","working_memory","","null","<div class=""fixation"">Correct</div>","null","","","","","","","","","","","","","","","","",""
"html-keyboard-response","161","637796","0.0-5.0-5.0-0.14","69808775dc84b90f4adafb2f","not_provided","desktop","0","0","0","","","","","","working_memory","","null","<div class=""fixation"">+</div>","null","","","","","","","","","","","","","","","","",""
"html-keyboard-response","162","638014","0.0-5.0-5.0-1.14","69808775dc84b90f4adafb2f","not_provided","desktop","0","0","0","","","","","","working_memory","","null","<img class='c' src=images/squares/yellow.png><img class='a' src=images/squares/orange.png><img class='f' src=images/squares/red.png><img class='e' src=images/squares/magenta.png><img class='h' src=images/squares/green.png><img class='i' src=images/squares/blue.png><img class='l' src=images/squares/cyan.png><img class='k' src=images/squares/black.png><div class=""fixation"">+</div>","null","","","memory","exp","14","","","","","","","","","","","",""
"html-keyboard-response","163","638925","0.0-5.0-5.0-2.14","69808775dc84b90f4adafb2f","not_provided","desktop","0","0","0","","","","","","working_memory","","null","<div class=""fixation"">+</div>","null","","","","","","","","","","","","","","","","",""
"html-keyboard-response","164","640259","0.0-5.0-5.0-3.14","69808775dc84b90f4adafb2f","not_provided","desktop","0","0","0","","","","","","working_memory","","1332","<img class='l' src=images/squares/brown.png><div class=""fixation"">+</div>","k","","","test_squares","exp","14","8","k","true","sk","d","","","","","","",""
"html-keyboard-response","165","640765","0.0-5.0-5.0-4.14","69808775dc84b90f4adafb2f","not_provided","desktop","0","0","0","","","","","","working_memory","","null","<div class=""fixation"">Correct</div>","null","","","","","","","","","","","","","","","","",""
"html-keyboard-response","166","641772","0.0-5.0-5.0-0.15","69808775dc84b90f4adafb2f","not_provided","desktop","0","0","0","","","","","","working_memory","","null","<div class=""fixation"">+</div>","null","","","","","","","","","","","","","","","","",""
"html-keyboard-response","167","641987","0.0-5.0-5.0-1.15","69808775dc84b90f4adafb2f","not_provided","desktop","0","0","0","","","","","","working_memory","","null","<img class='b' src=images/squares/magenta.png><img class='c' src=images/squares/brown.png><img class='f' src=images/squares/orange.png><img class='e' src=images/squares/green.png><img class='i' src=images/squares/yellow.png><img class='h' src=images/squares/black.png><img class='l' src=images/squares/red.png><img class='k' src=images/squares/cyan.png><div class=""fixation"">+</div>","null","","","memory","exp","15","","","","","","","","","","","",""
"html-keyboard-response","168","642893","0.0-5.0-5.0-2.15","69808775dc84b90f4adafb2f","not_provided","desktop","0","0","0","","","","","","working_memory","","null","<div class=""fixation"">+</div>","null","","","","","","","","","","","","","","","","",""
"html-keyboard-response","169","645307","0.0-5.0-5.0-3.15","69808775dc84b90f4adafb2f","not_provided","desktop","0","0","0","","","","","","working_memory","","2413","<img class='i' src=images/squares/yellow.png><div class=""fixation"">+</div>","k","","","test_squares","exp","15","8","s","false","sk","s","","","","","","",""
"html-keyboard-response","170","645809","0.0-5.0-5.0-4.15","69808775dc84b90f4adafb2f","not_provided","desktop","0","0","0","","","","","","working_memory","","null","<div class=""fixation"">Incorrect</div>","null","","","","","","","","","","","","","","","","",""
"html-keyboard-response","171","646811","0.0-5.0-5.0-0.16","69808775dc84b90f4adafb2f","not_provided","desktop","0","0","0","","","","","","working_memory","","null","<div class=""fixation"">+</div>","null","","","","","","","","","","","","","","","","",""
"html-keyboard-response","172","647022","0.0-5.0-5.0-1.16","69808775dc84b90f4adafb2f","not_provided","desktop","0","0","0","","","","","","working_memory","","null","<img class='a' src=images/squares/magenta.png><img class='c' src=images/squares/red.png><img class='f' src=images/squares/brown.png><img class='e' src=images/squares/green.png><img class='h' src=images/squares/black.png><img class='g' src=images/squares/yellow.png><img class='j' src=images/squares/cyan.png><img class='k' src=images/squares/orange.png><div class=""fixation"">+</div>","null","","","memory","exp","16","","","","","","","","","","","",""
"html-keyboard-response","173","647928","0.0-5.0-5.0-2.16","69808775dc84b90f4adafb2f","not_provided","desktop","0","0","0","","","","","","working_memory","","null","<div class=""fixation"">+</div>","null","","","","","","","","","","","","","","","","",""
"html-keyboard-response","174","650635","0.0-5.0-5.0-3.16","69808775dc84b90f4adafb2f","not_provided","desktop","0","0","0","","","","","","working_memory","","2706","<img class='e' src=images/squares/green.png><div class=""fixation"">+</div>","k","","","test_squares","exp","16","8","s","false","sk","s","","","","","","",""
"html-keyboard-response","175","651145","0.0-5.0-5.0-4.16","69808775dc84b90f4adafb2f","not_provided","desktop","0","0","0","","","","","","working_memory","","null","<div class=""fixation"">Incorrect</div>","null","","","","","","","","","","","","","","","","",""
"html-keyboard-response","176","652161","0.0-5.0-5.0-0.17","69808775dc84b90f4adafb2f","not_provided","desktop","0","0","0","","","","","","working_memory","","null","<div class=""fixation"">+</div>","null","","","","","","","","","","","","","","","","",""
"html-keyboard-response","177","652376","0.0-5.0-5.0-1.17","69808775dc84b90f4adafb2f","not_provided","desktop","0","0","0","","","","","","working_memory","","null","<img class='b' src=images/squares/magenta.png><img class='f' src=images/squares/blue.png><img class='h' src=images/squares/orange.png><img class='k' src=images/squares/brown.png><div class=""fixation"">+</div>","null","","","memory","exp","17","","","","","","","","","","","",""
"html-keyboard-response","178","653278","0.0-5.0-5.0-2.17","69808775dc84b90f4adafb2f","not_provided","desktop","0","0","0","","","","","","working_memory","","null","<div class=""fixation"">+</div>","null","","","","","","","","","","","","","","","","",""
"html-keyboard-response","179","654676","0.0-5.0-5.0-3.17","69808775dc84b90f4adafb2f","not_provided","desktop","0","0","0","","","","","","working_memory","","1397","<img class='k' src=images/squares/black.png><div class=""fixation"">+</div>","k","","","test_squares","exp","17","4","k","true","sk","d","","","","","","",""
"html-keyboard-response","180","655185","0.0-5.0-5.0-4.17","69808775dc84b90f4adafb2f","not_provided","desktop","0","0","0","","","","","","working_memory","","null","<div class=""fixation"">Correct</div>","null","","","","","","","","","","","","","","","","",""
"html-keyboard-response","181","656194","0.0-5.0-5.0-0.18","69808775dc84b90f4adafb2f","not_provided","desktop","0","0","0","","","","","","working_memory","","null","<div class=""fixation"">+</div>","null","","","","","","","","","","","","","","","","",""
"html-keyboard-response","182","656398","0.0-5.0-5.0-1.18","69808775dc84b90f4adafb2f","not_provided","desktop","0","0","0","","","","","","working_memory","","null","<img class='b' src=images/squares/orange.png><img class='c' src=images/squares/yellow.png><img class='f' src=images/squares/cyan.png><img class='d' src=images/squares/red.png><img class='h' src=images/squares/brown.png><img class='i' src=images/squares/magenta.png><img class='j' src=images/squares/green.png><img class='k' src=images/squares/blue.png><div class=""fixation"">+</div>","null","","","memory","exp","18","","","","","","","","","","","",""
"html-keyboard-response","183","657311","0.0-5.0-5.0-2.18","69808775dc84b90f4adafb2f","not_provided","desktop","0","0","0","","","","","","working_memory","","null","<div class=""fixation"">+</div>","null","","","","","","","","","","","","","","","","",""
"html-keyboard-response","184","658624","0.0-5.0-5.0-3.18","69808775dc84b90f4adafb2f","not_provided","desktop","0","0","0","","","","","","working_memory","","1311","<img class='c' src=images/squares/black.png><div class=""fixation"">+</div>","k","","","test_squares","exp","18","8","k","true","sk","d","","","","","","",""
"html-keyboard-response","185","659130","0.0-5.0-5.0-4.18","69808775dc84b90f4adafb2f","not_provided","desktop","0","0","0","","","","","","working_memory","","null","<div class=""fixation"">Correct</div>","null","","","","","","","","","","","","","","","","",""
"html-keyboard-response","186","660138","0.0-5.0-5.0-0.19","69808775dc84b90f4adafb2f","not_provided","desktop","0","0","0","","","","","","working_memory","","null","<div class=""fixation"">+</div>","null","","","","","","","","","","","","","","","","",""
"html-keyboard-response","187","660352","0.0-5.0-5.0-1.19","69808775dc84b90f4adafb2f","not_provided","desktop","0","0","0","","","","","","working_memory","","null","<img class='c' src=images/squares/green.png><img class='f' src=images/squares/brown.png><img class='h' src=images/squares/yellow.png><img class='l' src=images/squares/cyan.png><div class=""fixation"">+</div>","null","","","memory","exp","19","","","","","","","","","","","",""
"html-keyboard-response","188","661253","0.0-5.0-5.0-2.19","69808775dc84b90f4adafb2f","not_provided","desktop","0","0","0","","","","","","working_memory","","null","<div class=""fixation"">+</div>","null","","","","","","","","","","","","","","","","",""
"html-keyboard-response","189","662632","0.0-5.0-5.0-3.19","69808775dc84b90f4adafb2f","not_provided","desktop","0","0","0","","","","","","working_memory","","1377","<img class='h' src=images/squares/orange.png><div class=""fixation"">+</div>","k","","","test_squares","exp","19","4","k","true","sk","d","","","","","","",""
"html-keyboard-response","190","663137","0.0-5.0-5.0-4.19","69808775dc84b90f4adafb2f","not_provided","desktop","0","0","0","","","","","","working_memory","","null","<div class=""fixation"">Correct</div>","null","","","","","","","","","","","","","","","","",""
"html-keyboard-response","191","664146","0.0-5.0-5.0-0.20","69808775dc84b90f4adafb2f","not_provided","desktop","0","0","0","","","","","","working_memory","","null","<div class=""fixation"">+</div>","null","","","","","","","","","","","","","","","","",""
"html-keyboard-response","192","664354","0.0-5.0-5.0-1.20","69808775dc84b90f4adafb2f","not_provided","desktop","0","0","0","","","","","","working_memory","","null","<img class='c' src=images/squares/magenta.png><img class='d' src=images/squares/cyan.png><img class='i' src=images/squares/orange.png><img class='l' src=images/squares/green.png><div class=""fixation"">+</div>","null","","","memory","exp","20","","","","","","","","","","","",""
"html-keyboard-response","193","665269","0.0-5.0-5.0-2.20","69808775dc84b90f4adafb2f","not_provided","desktop","0","0","0","","","","","","working_memory","","null","<div class=""fixation"">+</div>","null","","","","","","","","","","","","","","","","",""
"html-keyboard-response","194","666211","0.0-5.0-5.0-3.20","69808775dc84b90f4adafb2f","not_provided","desktop","0","0","0","","","","","","working_memory","","940","<img class='i' src=images/squares/brown.png><div class=""fixation"">+</div>","k","","","test_squares","exp","20","4","k","true","sk","d","","","","","","",""
"html-keyboard-response","195","666721","0.0-5.0-5.0-4.20","69808775dc84b90f4adafb2f","not_provided","desktop","0","0","0","","","","","","working_memory","","null","<div class=""fixation"">Correct</div>","null","","","","","","","","","","","","","","","","",""
"html-keyboard-response","196","667734","0.0-5.0-5.0-0.21","69808775dc84b90f4adafb2f","not_provided","desktop","0","0","0","","","","","","working_memory","","null","<div class=""fixation"">+</div>","null","","","","","","","","","","","","","","","","",""
"html-keyboard-response","197","667936","0.0-5.0-5.0-1.21","69808775dc84b90f4adafb2f","not_provided","desktop","0","0","0","","","","","","working_memory","","null","<img class='b' src=images/squares/orange.png><img class='a' src=images/squares/magenta.png><img class='e' src=images/squares/blue.png><img class='d' src=images/squares/green.png><img class='g' src=images/squares/black.png><img class='h' src=images/squares/red.png><img class='k' src=images/squares/brown.png><img class='l' src=images/squares/cyan.png><div class=""fixation"">+</div>","null","","","memory","exp","21","","","","","","","","","","","",""
"html-keyboard-response","198","668840","0.0-5.0-5.0-2.21","69808775dc84b90f4adafb2f","not_provided","desktop","0","0","0","","","","","","working_memory","","null","<div class=""fixation"">+</div>","null","","","","","","","","","","","","","","","","",""
"html-keyboard-response","199","669971","0.0-5.0-5.0-3.21","69808775dc84b90f4adafb2f","not_provided","desktop","0","0","0","","","","","","working_memory","","1131","<img class='k' src=images/squares/brown.png><div class=""fixation"">+</div>","s","","","test_squares","exp","21","8","s","true","sk","s","","","","","","",""
"html-keyboard-response","200","670474","0.0-5.0-5.0-4.21","69808775dc84b90f4adafb2f","not_provided","desktop","0","0","0","","","","","","working_memory","","null","<div class=""fixation"">Correct</div>","null","","","","","","","","","","","","","","","","",""
"html-keyboard-response","201","671483","0.0-5.0-5.0-0.22","69808775dc84b90f4adafb2f","not_provided","desktop","0","0","0","","","","","","working_memory","","null","<div class=""fixation"">+</div>","null","","","","","","","","","","","","","","","","",""
"html-keyboard-response","202","671695","0.0-5.0-5.0-1.22","69808775dc84b90f4adafb2f","not_provided","desktop","0","0","0","","","","","","working_memory","","null","<img class='c' src=images/squares/green.png><img class='d' src=images/squares/orange.png><img class='h' src=images/squares/brown.png><img class='l' src=images/squares/cyan.png><div class=""fixation"">+</div>","null","","","memory","exp","22","","","","","","","","","","","",""
"html-keyboard-response","203","672608","0.0-5.0-5.0-2.22","69808775dc84b90f4adafb2f","not_provided","desktop","0","0","0","","","","","","working_memory","","null","<div class=""fixation"">+</div>","null","","","","","","","","","","","","","","","","",""
"html-keyboard-response","204","673802","0.0-5.0-5.0-3.22","69808775dc84b90f4adafb2f","not_provided","desktop","0","0","0","","","","","","working_memory","","1193","<img class='d' src=images/squares/red.png><div class=""fixation"">+</div>","k","","","test_squares","exp","22","4","k","true","sk","d","","","","","","",""
"html-keyboard-response","205","674306","0.0-5.0-5.0-4.22","69808775dc84b90f4adafb2f","not_provided","desktop","0","0","0","","","","","","working_memory","","null","<div class=""fixation"">Correct</div>","null","","","","","","","","","","","","","","","","",""
"html-keyboard-response","206","675330","0.0-5.0-5.0-0.23","69808775dc84b90f4adafb2f","not_provided","desktop","0","0","0","","","","","","working_memory","","null","<div class=""fixation"">+</div>","null","","","","","","","","","","","","","","","","",""
"html-keyboard-response","207","675546","0.0-5.0-5.0-1.23","69808775dc84b90f4adafb2f","not_provided","desktop","0","0","0","","","","","","working_memory","","null","<img class='b' src=images/squares/blue.png><img class='e' src=images/squares/cyan.png><img class='h' src=images/squares/red.png><img class='l' src=images/squares/brown.png><div class=""fixation"">+</div>","null","","","memory","exp","23","","","","","","","","","","","",""
"html-keyboard-response","208","676452","0.0-5.0-5.0-2.23","69808775dc84b90f4adafb2f","not_provided","desktop","0","0","0","","","","","","working_memory","","null","<div class=""fixation"">+</div>","null","","","","","","","","","","","","","","","","",""
"html-keyboard-response","209","678637","0.0-5.0-5.0-3.23","69808775dc84b90f4adafb2f","not_provided","desktop","0","0","0","","","","","","working_memory","","2184","<img class='e' src=images/squares/cyan.png><div class=""fixation"">+</div>","k","","","test_squares","exp","23","4","s","false","sk","s","","","","","","",""
"html-keyboard-response","210","679145","0.0-5.0-5.0-4.23","69808775dc84b90f4adafb2f","not_provided","desktop","0","0","0","","","","","","working_memory","","null","<div class=""fixation"">Incorrect</div>","null","","","","","","","","","","","","","","","","",""
"html-keyboard-response","211","680147","0.0-5.0-5.0-0.24","69808775dc84b90f4adafb2f","not_provided","desktop","0","0","0","","","","","","working_memory","","null","<div class=""fixation"">+</div>","null","","","","","","","","","","","","","","","","",""
"html-keyboard-response","212","680363","0.0-5.0-5.0-1.24","69808775dc84b90f4adafb2f","not_provided","desktop","0","0","0","","","","","","working_memory","","null","<img class='a' src=images/squares/yellow.png><img class='c' src=images/squares/red.png><img class='d' src=images/squares/green.png><img class='e' src=images/squares/orange.png><img class='h' src=images/squares/brown.png><img class='g' src=images/squares/magenta.png><img class='j' src=images/squares/cyan.png><img class='l' src=images/squares/black.png><div class=""fixation"">+</div>","null","","","memory","exp","24","","","","","","","","","","","",""
"html-keyboard-response","213","681269","0.0-5.0-5.0-2.24","69808775dc84b90f4adafb2f","not_provided","desktop","0","0","0","","","","","","working_memory","","null","<div class=""fixation"">+</div>","null","","","","","","","","","","","","","","","","",""
"html-keyboard-response","214","682862","0.0-5.0-5.0-3.24","69808775dc84b90f4adafb2f","not_provided","desktop","0","0","0","","","","","","working_memory","","1593","<img class='e' src=images/squares/orange.png><div class=""fixation"">+</div>","s","","","test_squares","exp","24","8","s","true","sk","s","","","","","","",""
"html-keyboard-response","215","683373","0.0-5.0-5.0-4.24","69808775dc84b90f4adafb2f","not_provided","desktop","0","0","0","","","","","","working_memory","","null","<div class=""fixation"">Correct</div>","null","","","","","","","","","","","","","","","","",""
"html-keyboard-response","216","684384","0.0-5.0-5.0-0.25","69808775dc84b90f4adafb2f","not_provided","desktop","0","0","0","","","","","","working_memory","","null","<div class=""fixation"">+</div>","null","","","","","","","","","","","","","","","","",""
"html-keyboard-response","217","684597","0.0-5.0-5.0-1.25","69808775dc84b90f4adafb2f","not_provided","desktop","0","0","0","","","","","","working_memory","","null","<img class='a' src=images/squares/red.png><img class='e' src=images/squares/orange.png><img class='h' src=images/squares/black.png><img class='l' src=images/squares/yellow.png><div class=""fixation"">+</div>","null","","","memory","exp","25","","","","","","","","","","","",""
"html-keyboard-response","218","685499","0.0-5.0-5.0-2.25","69808775dc84b90f4adafb2f","not_provided","desktop","0","0","0","","","","","","working_memory","","null","<div class=""fixation"">+</div>","null","","","","","","","","","","","","","","","","",""
"html-keyboard-response","219","686681","0.0-5.0-5.0-3.25","69808775dc84b90f4adafb2f","not_provided","desktop","0","0","0","","","","","","working_memory","","1181","<img class='l' src=images/squares/magenta.png><div class=""fixation"">+</div>","k","","","test_squares","exp","25","4","k","true","sk","d","","","","","","",""
"html-keyboard-response","220","687189","0.0-5.0-5.0-4.25","69808775dc84b90f4adafb2f","not_provided","desktop","0","0","0","","","","","","working_memory","","null","<div class=""fixation"">Correct</div>","null","","","","","","","","","","","","","","","","",""
"html-keyboard-response","221","688192","0.0-5.0-5.0-0.26","69808775dc84b90f4adafb2f","not_provided","desktop","0","0","0","","","","","","working_memory","","null","<div class=""fixation"">+</div>","null","","","","","","","","","","","","","","","","",""
"html-keyboard-response","222","688403","0.0-5.0-5.0-1.26","69808775dc84b90f4adafb2f","not_provided","desktop","0","0","0","","","","","","working_memory","","null","<img class='c' src=images/squares/cyan.png><img class='b' src=images/squares/magenta.png><img class='f' src=images/squares/orange.png><img class='e' src=images/squares/black.png><img class='i' src=images/squares/red.png><img class='g' src=images/squares/blue.png><img class='k' src=images/squares/green.png><img class='j' src=images/squares/yellow.png><div class=""fixation"">+</div>","null","","","memory","exp","26","","","","","","","","","","","",""
"html-keyboard-response","223","689315","0.0-5.0-5.0-2.26","69808775dc84b90f4adafb2f","not_provided","desktop","0","0","0","","","","","","working_memory","","null","<div class=""fixation"">+</div>","null","","","","","","","","","","","","","","","","",""
"html-keyboard-response","224","690945","0.0-5.0-5.0-3.26","69808775dc84b90f4adafb2f","not_provided","desktop","0","0","0","","","","","","working_memory","","1629","<img class='j' src=images/squares/yellow.png><div class=""fixation"">+</div>","k","","","test_squares","exp","26","8","s","false","sk","s","","","","","","",""
"html-keyboard-response","225","691459","0.0-5.0-5.0-4.26","69808775dc84b90f4adafb2f","not_provided","desktop","0","0","0","","","","","","working_memory","","null","<div class=""fixation"">Incorrect</div>","null","","","","","","","","","","","","","","","","",""
"html-keyboard-response","226","692480","0.0-5.0-5.0-0.27","69808775dc84b90f4adafb2f","not_provided","desktop","0","0","0","","","","","","working_memory","","null","<div class=""fixation"">+</div>","null","","","","","","","","","","","","","","","","",""
"html-keyboard-response","227","692686","0.0-5.0-5.0-1.27","69808775dc84b90f4adafb2f","not_provided","desktop","0","0","0","","","","","","working_memory","","null","<img class='c' src=images/squares/orange.png><img class='f' src=images/squares/brown.png><img class='i' src=images/squares/cyan.png><img class='j' src=images/squares/yellow.png><div class=""fixation"">+</div>","null","","","memory","exp","27","","","","","","","","","","","",""
"html-keyboard-response","228","693593","0.0-5.0-5.0-2.27","69808775dc84b90f4adafb2f","not_provided","desktop","0","0","0","","","","","","working_memory","","null","<div class=""fixation"">+</div>","null","","","","","","","","","","","","","","","","",""
"html-keyboard-response","229","694703","0.0-5.0-5.0-3.27","69808775dc84b90f4adafb2f","not_provided","desktop","0","0","0","","","","","","working_memory","","1109","<img class='j' src=images/squares/red.png><div class=""fixation"">+</div>","k","","","test_squares","exp","27","4","k","true","sk","d","","","","","","",""
"html-keyboard-response","230","695212","0.0-5.0-5.0-4.27","69808775dc84b90f4adafb2f","not_provided","desktop","0","0","0","","","","","","working_memory","","null","<div class=""fixation"">Correct</div>","null","","","","","","","","","","","","","","","","",""
"html-keyboard-response","231","696222","0.0-5.0-5.0-0.28","69808775dc84b90f4adafb2f","not_provided","desktop","0","0","0","","","","","","working_memory","","null","<div class=""fixation"">+</div>","null","","","","","","","","","","","","","","","","",""
"html-keyboard-response","232","696436","0.0-5.0-5.0-1.28","69808775dc84b90f4adafb2f","not_provided","desktop","0","0","0","","","","","","working_memory","","null","<img class='b' src=images/squares/brown.png><img class='d' src=images/squares/red.png><img class='i' src=images/squares/magenta.png><img class='j' src=images/squares/green.png><div class=""fixation"">+</div>","null","","","memory","exp","28","","","","","","","","","","","",""
"html-keyboard-response","233","697337","0.0-5.0-5.0-2.28","69808775dc84b90f4adafb2f","not_provided","desktop","0","0","0","","","","","","working_memory","","null","<div class=""fixation"">+</div>","null","","","","","","","","","","","","","","","","",""
"html-keyboard-response","234","698512","0.0-5.0-5.0-3.28","69808775dc84b90f4adafb2f","not_provided","desktop","0","0","0","","","","","","working_memory","","1173","<img class='j' src=images/squares/green.png><div class=""fixation"">+</div>","k","","","test_squares","exp","28","4","s","false","sk","s","","","","","","",""
"html-keyboard-response","235","699027","0.0-5.0-5.0-4.28","69808775dc84b90f4adafb2f","not_provided","desktop","0","0","0","","","","","","working_memory","","null","<div class=""fixation"">Incorrect</div>","null","","","","","","","","","","","","","","","","",""
"html-keyboard-response","236","700042","0.0-5.0-5.0-0.29","69808775dc84b90f4adafb2f","not_provided","desktop","0","0","0","","","","","","working_memory","","null","<div class=""fixation"">+</div>","null","","","","","","","","","","","","","","","","",""
"html-keyboard-response","237","700257","0.0-5.0-5.0-1.29","69808775dc84b90f4adafb2f","not_provided","desktop","0","0","0","","","","","","working_memory","","null","<img class='a' src=images/squares/blue.png><img class='e' src=images/squares/magenta.png><img class='h' src=images/squares/cyan.png><img class='l' src=images/squares/brown.png><div class=""fixation"">+</div>","null","","","memory","exp","29","","","","","","","","","","","",""
"html-keyboard-response","238","701158","0.0-5.0-5.0-2.29","69808775dc84b90f4adafb2f","not_provided","desktop","0","0","0","","","","","","working_memory","","null","<div class=""fixation"">+</div>","null","","","","","","","","","","","","","","","","",""
"html-keyboard-response","239","702252","0.0-5.0-5.0-3.29","69808775dc84b90f4adafb2f","not_provided","desktop","0","0","0","","","","","","working_memory","","1092","<img class='a' src=images/squares/blue.png><div class=""fixation"">+</div>","k","","","test_squares","exp","29","4","s","false","sk","s","","","","","","",""
"html-keyboard-response","240","702760","0.0-5.0-5.0-4.29","69808775dc84b90f4adafb2f","not_provided","desktop","0","0","0","","","","","","working_memory","","null","<div class=""fixation"">Incorrect</div>","null","","","","","","","","","","","","","","","","",""
"html-keyboard-response","241","703763","0.0-5.0-5.0-0.30","69808775dc84b90f4adafb2f","not_provided","desktop","0","0","0","","","","","","working_memory","","null","<div class=""fixation"">+</div>","null","","","","","","","","","","","","","","","","",""
"html-keyboard-response","242","703978","0.0-5.0-5.0-1.30","69808775dc84b90f4adafb2f","not_provided","desktop","0","0","0","","","","","","working_memory","","null","<img class='a' src=images/squares/blue.png><img class='c' src=images/squares/green.png><img class='f' src=images/squares/magenta.png><img class='e' src=images/squares/black.png><img class='g' src=images/squares/brown.png><img class='i' src=images/squares/orange.png><img class='l' src=images/squares/red.png><img class='k' src=images/squares/yellow.png><div class=""fixation"">+</div>","null","","","memory","exp","30","","","","","","","","","","","",""
"html-keyboard-response","243","704890","0.0-5.0-5.0-2.30","69808775dc84b90f4adafb2f","not_provided","desktop","0","0","0","","","","","","working_memory","","null","<div class=""fixation"">+</div>","null","","","","","","","","","","","","","","","","",""
"html-keyboard-response","244","706186","0.0-5.0-5.0-3.30","69808775dc84b90f4adafb2f","not_provided","desktop","0","0","0","","","","","","working_memory","","1295","<img class='f' src=images/squares/cyan.png><div class=""fixation"">+</div>","k","","","test_squares","exp","30","8","k","true","sk","d","","","","","","",""
"html-keyboard-response","245","706703","0.0-5.0-5.0-4.30","69808775dc84b90f4adafb2f","not_provided","desktop","0","0","0","","","","","","working_memory","","null","<div class=""fixation"">Correct</div>","null","","","","","","","","","","","","","","","","",""
"html-keyboard-response","246","707720","0.0-5.0-5.0-0.31","69808775dc84b90f4adafb2f","not_provided","desktop","0","0","0","","","","","","working_memory","","null","<div class=""fixation"">+</div>","null","","","","","","","","","","","","","","","","",""
"html-keyboard-response","247","707925","0.0-5.0-5.0-1.31","69808775dc84b90f4adafb2f","not_provided","desktop","0","0","0","","","","","","working_memory","","null","<img class='a' src=images/squares/magenta.png><img class='e' src=images/squares/red.png><img class='g' src=images/squares/brown.png><img class='k' src=images/squares/black.png><div class=""fixation"">+</div>","null","","","memory","exp","31","","","","","","","","","","","",""
"html-keyboard-response","248","708831","0.0-5.0-5.0-2.31","69808775dc84b90f4adafb2f","not_provided","desktop","0","0","0","","","","","","working_memory","","null","<div class=""fixation"">+</div>","null","","","","","","","","","","","","","","","","",""
"html-keyboard-response","249","710074","0.0-5.0-5.0-3.31","69808775dc84b90f4adafb2f","not_provided","desktop","0","0","0","","","","","","working_memory","","1242","<img class='e' src=images/squares/red.png><div class=""fixation"">+</div>","k","","","test_squares","exp","31","4","s","false","sk","s","","","","","","",""
"html-keyboard-response","250","710576","0.0-5.0-5.0-4.31","69808775dc84b90f4adafb2f","not_provided","desktop","0","0","0","","","","","","working_memory","","null","<div class=""fixation"">Incorrect</div>","null","","","","","","","","","","","","","","","","",""
"html-keyboard-response","251","711585","0.0-5.0-5.0-0.32","69808775dc84b90f4adafb2f","not_provided","desktop","0","0","0","","","","","","working_memory","","null","<div class=""fixation"">+</div>","null","","","","","","","","","","","","","","","","",""
"html-keyboard-response","252","711792","0.0-5.0-5.0-1.32","69808775dc84b90f4adafb2f","not_provided","desktop","0","0","0","","","","","","working_memory","","null","<img class='c' src=images/squares/black.png><img class='f' src=images/squares/cyan.png><img class='g' src=images/squares/red.png><img class='j' src=images/squares/green.png><div class=""fixation"">+</div>","null","","","memory","exp","32","","","","","","","","","","","",""
"html-keyboard-response","253","712702","0.0-5.0-5.0-2.32","69808775dc84b90f4adafb2f","not_provided","desktop","0","0","0","","","","","","working_memory","","null","<div class=""fixation"">+</div>","null","","","","","","","","","","","","","","","","",""
"html-keyboard-response","254","713676","0.0-5.0-5.0-3.32","69808775dc84b90f4adafb2f","not_provided","desktop","0","0","0","","","","","","working_memory","","973","<img class='g' src=images/squares/yellow.png><div class=""fixation"">+</div>","k","","","test_squares","exp","32","4","k","true","sk","d","","","","","","",""
"html-keyboard-response","255","714181","0.0-5.0-5.0-4.32","69808775dc84b90f4adafb2f","not_provided","desktop","0","0","0","","","","","","working_memory","","null","<div class=""fixation"">Correct</div>","null","","","","","","","","","","","","","","","","",""
"html-keyboard-response","256","715185","0.0-5.0-5.0-0.33","69808775dc84b90f4adafb2f","not_provided","desktop","0","0","0","","","","","","working_memory","","null","<div class=""fixation"">+</div>","null","","","","","","","","","","","","","","","","",""
"html-keyboard-response","257","715388","0.0-5.0-5.0-1.33","69808775dc84b90f4adafb2f","not_provided","desktop","0","0","0","","","","","","working_memory","","null","<img class='a' src=images/squares/blue.png><img class='e' src=images/squares/orange.png><img class='i' src=images/squares/green.png><img class='l' src=images/squares/magenta.png><div class=""fixation"">+</div>","null","","","memory","exp","33","","","","","","","","","","","",""
"html-keyboard-response","258","716300","0.0-5.0-5.0-2.33","69808775dc84b90f4adafb2f","not_provided","desktop","0","0","0","","","","","","working_memory","","null","<div class=""fixation"">+</div>","null","","","","","","","","","","","","","","","","",""
"html-keyboard-response","259","717512","0.0-5.0-5.0-3.33","69808775dc84b90f4adafb2f","not_provided","desktop","0","0","0","","","","","","working_memory","","1211","<img class='l' src=images/squares/magenta.png><div class=""fixation"">+</div>","s","","","test_squares","exp","33","4","s","true","sk","s","","","","","","",""
"html-keyboard-response","260","718015","0.0-5.0-5.0-4.33","69808775dc84b90f4adafb2f","not_provided","desktop","0","0","0","","","","","","working_memory","","null","<div class=""fixation"">Correct</div>","null","","","","","","","","","","","","","","","","",""
"html-keyboard-response","261","719016","0.0-5.0-5.0-0.34","69808775dc84b90f4adafb2f","not_provided","desktop","0","0","0","","","","","","working_memory","","null","<div class=""fixation"">+</div>","null","","","","","","","","","","","","","","","","",""
"html-keyboard-response","262","719230","0.0-5.0-5.0-1.34","69808775dc84b90f4adafb2f","not_provided","desktop","0","0","0","","","","","","working_memory","","null","<img class='b' src=images/squares/cyan.png><img class='d' src=images/squares/red.png><img class='g' src=images/squares/green.png><img class='j' src=images/squares/brown.png><div class=""fixation"">+</div>","null","","","memory","exp","34","","","","","","","","","","","",""
"html-keyboard-response","263","720146","0.0-5.0-5.0-2.34","69808775dc84b90f4adafb2f","not_provided","desktop","0","0","0","","","","","","working_memory","","null","<div class=""fixation"">+</div>","null","","","","","","","","","","","","","","","","",""
"html-keyboard-response","264","721134","0.0-5.0-5.0-3.34","69808775dc84b90f4adafb2f","not_provided","desktop","0","0","0","","","","","","working_memory","","986","<img class='j' src=images/squares/blue.png><div class=""fixation"">+</div>","k","","","test_squares","exp","34","4","k","true","sk","d","","","","","","",""
"html-keyboard-response","265","721638","0.0-5.0-5.0-4.34","69808775dc84b90f4adafb2f","not_provided","desktop","0","0","0","","","","","","working_memory","","null","<div class=""fixation"">Correct</div>","null","","","","","","","","","","","","","","","","",""
"html-keyboard-response","266","722654","0.0-5.0-5.0-0.35","69808775dc84b90f4adafb2f","not_provided","desktop","0","0","0","","","","","","working_memory","","null","<div class=""fixation"">+</div>","null","","","","","","","","","","","","","","","","",""
"html-keyboard-response","267","722863","0.0-5.0-5.0-1.35","69808775dc84b90f4adafb2f","not_provided","desktop","0","0","0","","","","","","working_memory","","null","<img class='c' src=images/squares/brown.png><img class='f' src=images/squares/green.png><img class='g' src=images/squares/magenta.png><img class='l' src=images/squares/cyan.png><div class=""fixation"">+</div>","null","","","memory","exp","35","","","","","","","","","","","",""
"html-keyboard-response","268","723777","0.0-5.0-5.0-2.35","69808775dc84b90f4adafb2f","not_provided","desktop","0","0","0","","","","","","working_memory","","null","<div class=""fixation"">+</div>","null","","","","","","","","","","","","","","","","",""
"html-keyboard-response","269","724982","0.0-5.0-5.0-3.35","69808775dc84b90f4adafb2f","not_provided","desktop","0","0","0","","","","","","working_memory","","1204","<img class='c' src=images/squares/brown.png><div class=""fixation"">+</div>","k","","","test_squares","exp","35","4","s","false","sk","s","","","","","","",""
"html-keyboard-response","270","725499","0.0-5.0-5.0-4.35","69808775dc84b90f4adafb2f","not_provided","desktop","0","0","0","","","","","","working_memory","","null","<div class=""fixation"">Incorrect</div>","null","","","","","","","","","","","","","","","","",""
"html-keyboard-response","271","726515","0.0-5.0-5.0-0.36","69808775dc84b90f4adafb2f","not_provided","desktop","0","0","0","","","","","","working_memory","","null","<div class=""fixation"">+</div>","null","","","","","","","","","","","","","","","","",""
"html-keyboard-response","272","726719","0.0-5.0-5.0-1.36","69808775dc84b90f4adafb2f","not_provided","desktop","0","0","0","","","","","","working_memory","","null","<img class='a' src=images/squares/brown.png><img class='f' src=images/squares/magenta.png><img class='i' src=images/squares/blue.png><img class='l' src=images/squares/black.png><div class=""fixation"">+</div>","null","","","memory","exp","36","","","","","","","","","","","",""
"html-keyboard-response","273","727627","0.0-5.0-5.0-2.36","69808775dc84b90f4adafb2f","not_provided","desktop","0","0","0","","","","","","working_memory","","null","<div class=""fixation"">+</div>","null","","","","","","","","","","","","","","","","",""
"html-keyboard-response","274","729700","0.0-5.0-5.0-3.36","69808775dc84b90f4adafb2f","not_provided","desktop","0","0","0","","","","","","working_memory","","2072","<img class='f' src=images/squares/red.png><div class=""fixation"">+</div>","k","","","test_squares","exp","36","4","k","true","sk","d","","","","","","",""
"html-keyboard-response","275","730202","0.0-5.0-5.0-4.36","69808775dc84b90f4adafb2f","not_provided","desktop","0","0","0","","","","","","working_memory","","null","<div class=""fixation"">Correct</div>","null","","","","","","","","","","","","","","","","",""
"html-keyboard-response","276","731217","0.0-5.0-5.0-0.37","69808775dc84b90f4adafb2f","not_provided","desktop","0","0","0","","","","","","working_memory","","null","<div class=""fixation"">+</div>","null","","","","","","","","","","","","","","","","",""
"html-keyboard-response","277","731428","0.0-5.0-5.0-1.37","69808775dc84b90f4adafb2f","not_provided","desktop","0","0","0","","","","","","working_memory","","null","<img class='a' src=images/squares/yellow.png><img class='e' src=images/squares/black.png><img class='g' src=images/squares/blue.png><img class='j' src=images/squares/red.png><div class=""fixation"">+</div>","null","","","memory","exp","37","","","","","","","","","","","",""
"html-keyboard-response","278","732330","0.0-5.0-5.0-2.37","69808775dc84b90f4adafb2f","not_provided","desktop","0","0","0","","","","","","working_memory","","null","<div class=""fixation"">+</div>","null","","","","","","","","","","","","","","","","",""
"html-keyboard-response","279","733708","0.0-5.0-5.0-3.37","69808775dc84b90f4adafb2f","not_provided","desktop","0","0","0","","","","","","working_memory","","1377","<img class='j' src=images/squares/orange.png><div class=""fixation"">+</div>","k","","","test_squares","exp","37","4","k","true","sk","d","","","","","","",""
"html-keyboard-response","280","734223","0.0-5.0-5.0-4.37","69808775dc84b90f4adafb2f","not_provided","desktop","0","0","0","","","","","","working_memory","","null","<div class=""fixation"">Correct</div>","null","","","","","","","","","","","","","","","","",""
"html-keyboard-response","281","735226","0.0-5.0-5.0-0.38","69808775dc84b90f4adafb2f","not_provided","desktop","0","0","0","","","","","","working_memory","","null","<div class=""fixation"">+</div>","null","","","","","","","","","","","","","","","","",""
"html-keyboard-response","282","735436","0.0-5.0-5.0-1.38","69808775dc84b90f4adafb2f","not_provided","desktop","0","0","0","","","","","","working_memory","","null","<img class='c' src=images/squares/orange.png><img class='a' src=images/squares/green.png><img class='d' src=images/squares/red.png><img class='e' src=images/squares/blue.png><img class='g' src=images/squares/brown.png><img class='h' src=images/squares/yellow.png><img class='l' src=images/squares/cyan.png><img class='k' src=images/squares/black.png><div class=""fixation"">+</div>","null","","","memory","exp","38","","","","","","","","","","","",""
"html-keyboard-response","283","736349","0.0-5.0-5.0-2.38","69808775dc84b90f4adafb2f","not_provided","desktop","0","0","0","","","","","","working_memory","","null","<div class=""fixation"">+</div>","null","","","","","","","","","","","","","","","","",""
"html-keyboard-response","284","737825","0.0-5.0-5.0-3.38","69808775dc84b90f4adafb2f","not_provided","desktop","0","0","0","","","","","","working_memory","","1474","<img class='c' src=images/squares/magenta.png><div class=""fixation"">+</div>","k","","","test_squares","exp","38","8","k","true","sk","d","","","","","","",""
"html-keyboard-response","285","738334","0.0-5.0-5.0-4.38","69808775dc84b90f4adafb2f","not_provided","desktop","0","0","0","","","","","","working_memory","","null","<div class=""fixation"">Correct</div>","null","","","","","","","","","","","","","","","","",""
"html-keyboard-response","286","739344","0.0-5.0-5.0-0.39","69808775dc84b90f4adafb2f","not_provided","desktop","0","0","0","","","","","","working_memory","","null","<div class=""fixation"">+</div>","null","","","","","","","","","","","","","","","","",""
"html-keyboard-response","287","739549","0.0-5.0-5.0-1.39","69808775dc84b90f4adafb2f","not_provided","desktop","0","0","0","","","","","","working_memory","","null","<img class='b' src=images/squares/magenta.png><img class='c' src=images/squares/black.png><img class='d' src=images/squares/yellow.png><img class='e' src=images/squares/red.png><img class='h' src=images/squares/blue.png><img class='i' src=images/squares/green.png><img class='j' src=images/squares/brown.png><img class='k' src=images/squares/orange.png><div class=""fixation"">+</div>","null","","","memory","exp","39","","","","","","","","","","","",""
"html-keyboard-response","288","740465","0.0-5.0-5.0-2.39","69808775dc84b90f4adafb2f","not_provided","desktop","0","0","0","","","","","","working_memory","","null","<div class=""fixation"">+</div>","null","","","","","","","","","","","","","","","","",""
"html-keyboard-response","289","741688","0.0-5.0-5.0-3.39","69808775dc84b90f4adafb2f","not_provided","desktop","0","0","0","","","","","","working_memory","","1222","<img class='k' src=images/squares/cyan.png><div class=""fixation"">+</div>","k","","","test_squares","exp","39","8","k","true","sk","d","","","","","","",""
"html-keyboard-response","290","742201","0.0-5.0-5.0-4.39","69808775dc84b90f4adafb2f","not_provided","desktop","0","0","0","","","","","","working_memory","","null","<div class=""fixation"">Correct</div>","null","","","","","","","","","","","","","","","","",""
"html-keyboard-response","291","743216","0.0-5.0-5.0-0.40","69808775dc84b90f4adafb2f","not_provided","desktop","0","0","0","","","","","","working_memory","","null","<div class=""fixation"">+</div>","null","","","","","","","","","","","","","","","","",""
"html-keyboard-response","292","743429","0.0-5.0-5.0-1.40","69808775dc84b90f4adafb2f","not_provided","desktop","0","0","0","","","","","","working_memory","","null","<img class='b' src=images/squares/yellow.png><img class='c' src=images/squares/green.png><img class='f' src=images/squares/blue.png><img class='e' src=images/squares/orange.png><img class='i' src=images/squares/magenta.png><img class='g' src=images/squares/black.png><img class='j' src=images/squares/red.png><img class='l' src=images/squares/brown.png><div class=""fixation"">+</div>","null","","","memory","exp","40","","","","","","","","","","","",""
"html-keyboard-response","293","744344","0.0-5.0-5.0-2.40","69808775dc84b90f4adafb2f","not_provided","desktop","0","0","0","","","","","","working_memory","","null","<div class=""fixation"">+</div>","null","","","","","","","","","","","","","","","","",""
"html-keyboard-response","294","745536","0.0-5.0-5.0-3.40","69808775dc84b90f4adafb2f","not_provided","desktop","0","0","0","","","","","","working_memory","","1191","<img class='c' src=images/squares/green.png><div class=""fixation"">+</div>","k","","","test_squares","exp","40","8","s","false","sk","s","","","","","","",""
"html-keyboard-response","295","746051","0.0-5.0-5.0-4.40","69808775dc84b90f4adafb2f","not_provided","desktop","0","0","0","","","","","","working_memory","","null","<div class=""fixation"">Incorrect</div>","null","","","","","","","","","","","","","","","","",""
"html-keyboard-response","296","747059","0.0-5.0-5.0-0.41","69808775dc84b90f4adafb2f","not_provided","desktop","0","0","0","","","","","","working_memory","","null","<div class=""fixation"">+</div>","null","","","","","","","","","","","","","","","","",""
"html-keyboard-response","297","747266","0.0-5.0-5.0-1.41","69808775dc84b90f4adafb2f","not_provided","desktop","0","0","0","","","","","","working_memory","","null","<img class='c' src=images/squares/orange.png><img class='a' src=images/squares/brown.png><img class='d' src=images/squares/black.png><img class='f' src=images/squares/yellow.png><img class='i' src=images/squares/magenta.png><img class='g' src=images/squares/cyan.png><img class='l' src=images/squares/blue.png><img class='k' src=images/squares/green.png><div class=""fixation"">+</div>","null","","","memory","exp","41","","","","","","","","","","","",""
"html-keyboard-response","298","748171","0.0-5.0-5.0-2.41","69808775dc84b90f4adafb2f","not_provided","desktop","0","0","0","","","","","","working_memory","","null","<div class=""fixation"">+</div>","null","","","","","","","","","","","","","","","","",""
"html-keyboard-response","299","749879","0.0-5.0-5.0-3.41","69808775dc84b90f4adafb2f","not_provided","desktop","0","0","0","","","","","","working_memory","","1707","<img class='k' src=images/squares/green.png><div class=""fixation"">+</div>","k","","","test_squares","exp","41","8","s","false","sk","s","","","","","","",""
"html-keyboard-response","300","750380","0.0-5.0-5.0-4.41","69808775dc84b90f4adafb2f","not_provided","desktop","0","0","0","","","","","","working_memory","","null","<div class=""fixation"">Incorrect</div>","null","","","","","","","","","","","","","","","","",""
"html-keyboard-response","301","751391","0.0-5.0-5.0-0.42","69808775dc84b90f4adafb2f","not_provided","desktop","0","0","0","","","","","","working_memory","","null","<div class=""fixation"">+</div>","null","","","","","","","","","","","","","","","","",""
