"trial_type","trial_index","time_elapsed","internal_node_id","subject_id","study_id","device_type","blur_count","fullscreen_exit_count","failed_attention_checks","success","timeout","failed_images","failed_audio","failed_video","phase","value","rt","stimulus","response","view_history","question_order","trial_name","block_type","trial_num","set_size","correct_response","accuracy","mapping","condition","prompt","flipped","attention","expected_answer","category","question_index","task"
"pavlovia","0","1407","0.0-0.0","69d5525ec7afcfce08d8608b","not_provided","desktop","0","0","1","","","","","","","","","","","","","","","","","","","","","","","","","","",""
"preload","1","2292","0.0-2.0","69d5525ec7afcfce08d8608b","not_provided","desktop","0","0","1","true","false","[]","[]","[]","","","","","","","","","","","","","","","","","","","","","",""
"html-keyboard-response","2","19193","0.0-3.0-0.0","69d5525ec7afcfce08d8608b","not_provided","desktop","0","0","1","","","","","","captcha","","","","","","","","","","","","","","","","","","","","",""
"fullscreen","3","31712","0.0-4.0","69d5525ec7afcfce08d8608b","not_provided","desktop","0","0","1","true","","","","","setup","","","","","","","","","","","","","","","","","","","","",""
"call-function","4","31715","0.0-5.0-0.0","69d5525ec7afcfce08d8608b","not_provided","desktop","0","0","1","","","","","","working_memory","","","","","","","","","","","","","","","","","","","","",""
"html-keyboard-response","5","49477","0.0-5.0-1.0","69d5525ec7afcfce08d8608b","not_provided","desktop","0","0","1","","","","","","working_memory","","17760","<div style=""text-align:center;font-family:sans-serif;""><p>Welcome to the luck game experiment!</p><p>This two-day experiment takes part in a study aimed at developing better clinical treatments.</p><p>We appreciate your participation and require your full concentration.</p><br><p>This is a two-day study. Payment (£6/hour) is only given upon completing both parts today and tomorrow.</p><p>You must finish the second part for compensation. After today, you'll receive an invitation for tomorrow's session.</p><p>Please ensure you can attend both sessions before proceeding. Otherwise, you may exit now.</p><p>If you have any questions, please contact us via prolific.</p><br><p>Please stay attentive and in fullscreen mode to ensure payment.</p><p>Thank you for participating!</p><br><p id=""continue-prompt"" style=""visibility:hidden;""><b>Press any key to continue.</b></p></div>","c","","","","","","","","","","","","","","","","",""
"instructions","6","152820","0.0-5.0-2.0-0.0","69d5525ec7afcfce08d8608b","not_provided","desktop","0","0","1","","","","","","working_memory","","103341","","","[{""page_index"":0,""viewing_time"":3407},{""page_index"":1,""viewing_time"":2104},{""page_index"":2,""viewing_time"":4483},{""page_index"":3,""viewing_time"":970},{""page_index"":4,""viewing_time"":8396},{""page_index"":5,""viewing_time"":48579},{""page_index"":6,""viewing_time"":18788},{""page_index"":7,""viewing_time"":6529},{""page_index"":8,""viewing_time"":10084}]","","","","","","","","","","","","","","","",""
"survey-multi-choice","7","195821","0.0-5.0-2.0-1.0","69d5525ec7afcfce08d8608b","not_provided","desktop","0","0","1","","","","","","working_memory","","42999","","{""set_size"":""4 or 8"",""steps"":""True"",""choose_square"":""Press the 's' or 'k' key."",""remember"":""The colors and locations of the 'memory' squares"",""task"":""To tell if the 'test' square is in the same color as the square previously appearing in this location""}","","[0,1,2,3,4]","test_squares_quiz","","","","","","","","","","","","","",""
"html-keyboard-response","8","208554","0.0-5.0-3.0-0.0","69d5525ec7afcfce08d8608b","not_provided","desktop","0","0","1","","","","","","working_memory","","12732","<p>We will now start some practice trials.<br><b>The practice trials will also include some trials in which you will need to remember only one square to make sure you understood the instructions.</b><br>You may already want to be ready with your fingers on '<b>s</b>' and '<b>k</b>'.<br><img class=""wm-example-img"" src=""images/examples/keyboard.png""><br><b style=""font-size:1.2em;"">&lsquo;S&rsquo; = SAME &nbsp;&nbsp;&nbsp; &lsquo;K&rsquo; = DIFFERENT</b><br><br><u>Please try to be as accurate as possible.</u><br><br><b>Press any key to begin</b></p>","k","","","","","","","","","","","","","","","","",""
"html-keyboard-response","9","210564","0.0-5.0-3.0-1.0-0.0","69d5525ec7afcfce08d8608b","not_provided","desktop","0","0","1","","","","","","working_memory","","null","<div class=""fixation"">+</div>","null","","","","","","","","","","","","","","","","",""
"html-keyboard-response","10","210779","0.0-5.0-3.0-1.0-1.0","69d5525ec7afcfce08d8608b","not_provided","desktop","0","0","1","","","","","","working_memory","","null","<img class='upper1' src=images/squares/magenta.png><div class=""fixation"">+</div>","null","","","memory","practice","0","1","","","","","","","","","","",""
"html-keyboard-response","11","211683","0.0-5.0-3.0-1.0-2.0","69d5525ec7afcfce08d8608b","not_provided","desktop","0","0","1","","","","","","working_memory","","null","<div class=""fixation"">+</div>","null","","","","","","","","","","","","","","","","",""
"html-keyboard-response","12","213338","0.0-5.0-3.0-1.0-3.0","69d5525ec7afcfce08d8608b","not_provided","desktop","0","0","1","","","","","","working_memory","","1653","<img class='upper1' src=images/squares/blue.png><div class=""fixation"">+</div>","k","","","test","practice","0","1","k","true","","","","","","","","",""
"html-keyboard-response","13","213844","0.0-5.0-3.0-1.0-4.0","69d5525ec7afcfce08d8608b","not_provided","desktop","0","0","1","","","","","","working_memory","","null","<div class=""fixation"">Correct</div>","null","","","","","","","","","","","","","","","","",""
"html-keyboard-response","14","214859","0.0-5.0-3.0-1.0-0.1","69d5525ec7afcfce08d8608b","not_provided","desktop","0","0","1","","","","","","working_memory","","null","<div class=""fixation"">+</div>","null","","","","","","","","","","","","","","","","",""
"html-keyboard-response","15","215062","0.0-5.0-3.0-1.0-1.1","69d5525ec7afcfce08d8608b","not_provided","desktop","0","0","1","","","","","","working_memory","","null","<img class='c' src=images/squares/brown.png><img class='d' src=images/squares/yellow.png><img class='h' src=images/squares/red.png><img class='j' src=images/squares/black.png><div class=""fixation"">+</div>","null","","","memory","practice","1","4","","","","","","","","","","",""
"html-keyboard-response","16","215965","0.0-5.0-3.0-1.0-2.1","69d5525ec7afcfce08d8608b","not_provided","desktop","0","0","1","","","","","","working_memory","","null","<div class=""fixation"">+</div>","null","","","","","","","","","","","","","","","","",""
"html-keyboard-response","17","217102","0.0-5.0-3.0-1.0-3.1","69d5525ec7afcfce08d8608b","not_provided","desktop","0","0","1","","","","","","working_memory","","1135","<img class='d' src=images/squares/cyan.png><div class=""fixation"">+</div>","k","","","test","practice","1","4","k","true","","","","","","","","",""
"html-keyboard-response","18","217615","0.0-5.0-3.0-1.0-4.1","69d5525ec7afcfce08d8608b","not_provided","desktop","0","0","1","","","","","","working_memory","","null","<div class=""fixation"">Correct</div>","null","","","","","","","","","","","","","","","","",""
"html-keyboard-response","19","218622","0.0-5.0-3.0-1.0-0.2","69d5525ec7afcfce08d8608b","not_provided","desktop","0","0","1","","","","","","working_memory","","null","<div class=""fixation"">+</div>","null","","","","","","","","","","","","","","","","",""
"html-keyboard-response","20","218829","0.0-5.0-3.0-1.0-1.2","69d5525ec7afcfce08d8608b","not_provided","desktop","0","0","1","","","","","","working_memory","","null","<img class='upper2' src=images/squares/magenta.png><div class=""fixation"">+</div>","null","","","memory","practice","2","1","","","","","","","","","","",""
"html-keyboard-response","21","219732","0.0-5.0-3.0-1.0-2.2","69d5525ec7afcfce08d8608b","not_provided","desktop","0","0","1","","","","","","working_memory","","null","<div class=""fixation"">+</div>","null","","","","","","","","","","","","","","","","",""
"html-keyboard-response","22","220790","0.0-5.0-3.0-1.0-3.2","69d5525ec7afcfce08d8608b","not_provided","desktop","0","0","1","","","","","","working_memory","","1057","<img class='upper2' src=images/squares/magenta.png><div class=""fixation"">+</div>","s","","","test","practice","2","1","s","true","","","","","","","","",""
"html-keyboard-response","23","221291","0.0-5.0-3.0-1.0-4.2","69d5525ec7afcfce08d8608b","not_provided","desktop","0","0","1","","","","","","working_memory","","null","<div class=""fixation"">Correct</div>","null","","","","","","","","","","","","","","","","",""
"html-keyboard-response","24","222307","0.0-5.0-3.0-1.0-0.3","69d5525ec7afcfce08d8608b","not_provided","desktop","0","0","1","","","","","","working_memory","","null","<div class=""fixation"">+</div>","null","","","","","","","","","","","","","","","","",""
"html-keyboard-response","25","222511","0.0-5.0-3.0-1.0-1.3","69d5525ec7afcfce08d8608b","not_provided","desktop","0","0","1","","","","","","working_memory","","null","<img class='b' src=images/squares/magenta.png><img class='d' src=images/squares/black.png><img class='h' src=images/squares/blue.png><img class='k' src=images/squares/orange.png><div class=""fixation"">+</div>","null","","","memory","practice","3","4","","","","","","","","","","",""
"html-keyboard-response","26","223413","0.0-5.0-3.0-1.0-2.3","69d5525ec7afcfce08d8608b","not_provided","desktop","0","0","1","","","","","","working_memory","","null","<div class=""fixation"">+</div>","null","","","","","","","","","","","","","","","","",""
"html-keyboard-response","27","224664","0.0-5.0-3.0-1.0-3.3","69d5525ec7afcfce08d8608b","not_provided","desktop","0","0","1","","","","","","working_memory","","1250","<img class='h' src=images/squares/blue.png><div class=""fixation"">+</div>","k","","","test","practice","3","4","s","false","","","","","","","","",""
"html-keyboard-response","28","225175","0.0-5.0-3.0-1.0-4.3","69d5525ec7afcfce08d8608b","not_provided","desktop","0","0","1","","","","","","working_memory","","null","<div class=""fixation"">Incorrect</div>","null","","","","","","","","","","","","","","","","",""
"html-keyboard-response","29","226190","0.0-5.0-3.0-1.0-0.4","69d5525ec7afcfce08d8608b","not_provided","desktop","0","0","1","","","","","","working_memory","","null","<div class=""fixation"">+</div>","null","","","","","","","","","","","","","","","","",""
"html-keyboard-response","30","226393","0.0-5.0-3.0-1.0-1.4","69d5525ec7afcfce08d8608b","not_provided","desktop","0","0","1","","","","","","working_memory","","null","<img class='b' src=images/squares/yellow.png><img class='f' src=images/squares/orange.png><img class='g' src=images/squares/green.png><img class='j' src=images/squares/magenta.png><div class=""fixation"">+</div>","null","","","memory","practice","4","4","","","","","","","","","","",""
"html-keyboard-response","31","227297","0.0-5.0-3.0-1.0-2.4","69d5525ec7afcfce08d8608b","not_provided","desktop","0","0","1","","","","","","working_memory","","null","<div class=""fixation"">+</div>","null","","","","","","","","","","","","","","","","",""
"html-keyboard-response","32","229165","0.0-5.0-3.0-1.0-3.4","69d5525ec7afcfce08d8608b","not_provided","desktop","0","0","1","","","","","","working_memory","","1867","<img class='g' src=images/squares/black.png><div class=""fixation"">+</div>","s","","","test","practice","4","4","k","false","","","","","","","","",""
"html-keyboard-response","33","229673","0.0-5.0-3.0-1.0-4.4","69d5525ec7afcfce08d8608b","not_provided","desktop","0","0","1","","","","","","working_memory","","null","<div class=""fixation"">Incorrect</div>","null","","","","","","","","","","","","","","","","",""
"html-keyboard-response","34","230688","0.0-5.0-3.0-1.0-0.5","69d5525ec7afcfce08d8608b","not_provided","desktop","0","0","1","","","","","","working_memory","","null","<div class=""fixation"">+</div>","null","","","","","","","","","","","","","","","","",""
"html-keyboard-response","35","230892","0.0-5.0-3.0-1.0-1.5","69d5525ec7afcfce08d8608b","not_provided","desktop","0","0","1","","","","","","working_memory","","null","<img class='b' src=images/squares/cyan.png><img class='c' src=images/squares/brown.png><img class='e' src=images/squares/green.png><img class='d' src=images/squares/blue.png><img class='h' src=images/squares/magenta.png><img class='g' src=images/squares/yellow.png><img class='k' src=images/squares/red.png><img class='l' src=images/squares/orange.png><div class=""fixation"">+</div>","null","","","memory","practice","5","8","","","","","","","","","","",""
"html-keyboard-response","36","231808","0.0-5.0-3.0-1.0-2.5","69d5525ec7afcfce08d8608b","not_provided","desktop","0","0","1","","","","","","working_memory","","null","<div class=""fixation"">+</div>","null","","","","","","","","","","","","","","","","",""
"html-keyboard-response","37","233634","0.0-5.0-3.0-1.0-3.5","69d5525ec7afcfce08d8608b","not_provided","desktop","0","0","1","","","","","","working_memory","","1825","<img class='c' src=images/squares/brown.png><div class=""fixation"">+</div>","k","","","test","practice","5","8","s","false","","","","","","","","",""
"html-keyboard-response","38","234141","0.0-5.0-3.0-1.0-4.5","69d5525ec7afcfce08d8608b","not_provided","desktop","0","0","1","","","","","","working_memory","","null","<div class=""fixation"">Incorrect</div>","null","","","","","","","","","","","","","","","","",""
"html-keyboard-response","39","235154","0.0-5.0-3.0-1.0-0.6","69d5525ec7afcfce08d8608b","not_provided","desktop","0","0","1","","","","","","working_memory","","null","<div class=""fixation"">+</div>","null","","","","","","","","","","","","","","","","",""
"html-keyboard-response","40","235358","0.0-5.0-3.0-1.0-1.6","69d5525ec7afcfce08d8608b","not_provided","desktop","0","0","1","","","","","","working_memory","","null","<img class='a' src=images/squares/green.png><img class='d' src=images/squares/brown.png><img class='h' src=images/squares/blue.png><img class='l' src=images/squares/cyan.png><div class=""fixation"">+</div>","null","","","memory","practice","6","4","","","","","","","","","","",""
"html-keyboard-response","41","236262","0.0-5.0-3.0-1.0-2.6","69d5525ec7afcfce08d8608b","not_provided","desktop","0","0","1","","","","","","working_memory","","null","<div class=""fixation"">+</div>","null","","","","","","","","","","","","","","","","",""
"html-keyboard-response","42","237901","0.0-5.0-3.0-1.0-3.6","69d5525ec7afcfce08d8608b","not_provided","desktop","0","0","1","","","","","","working_memory","","1638","<img class='d' src=images/squares/red.png><div class=""fixation"">+</div>","k","","","test","practice","6","4","k","true","","","","","","","","",""
"html-keyboard-response","43","238406","0.0-5.0-3.0-1.0-4.6","69d5525ec7afcfce08d8608b","not_provided","desktop","0","0","1","","","","","","working_memory","","null","<div class=""fixation"">Correct</div>","null","","","","","","","","","","","","","","","","",""
"html-keyboard-response","44","239420","0.0-5.0-3.0-1.0-0.7","69d5525ec7afcfce08d8608b","not_provided","desktop","0","0","1","","","","","","working_memory","","null","<div class=""fixation"">+</div>","null","","","","","","","","","","","","","","","","",""
"html-keyboard-response","45","239625","0.0-5.0-3.0-1.0-1.7","69d5525ec7afcfce08d8608b","not_provided","desktop","0","0","1","","","","","","working_memory","","null","<img class='c' src=images/squares/brown.png><img class='f' src=images/squares/green.png><img class='h' src=images/squares/orange.png><img class='k' src=images/squares/blue.png><div class=""fixation"">+</div>","null","","","memory","practice","7","4","","","","","","","","","","",""
"html-keyboard-response","46","240526","0.0-5.0-3.0-1.0-2.7","69d5525ec7afcfce08d8608b","not_provided","desktop","0","0","1","","","","","","working_memory","","null","<div class=""fixation"">+</div>","null","","","","","","","","","","","","","","","","",""
"html-keyboard-response","47","241870","0.0-5.0-3.0-1.0-3.7","69d5525ec7afcfce08d8608b","not_provided","desktop","0","0","1","","","","","","working_memory","","1343","<img class='h' src=images/squares/red.png><div class=""fixation"">+</div>","k","","","test","practice","7","4","k","true","","","","","","","","",""
"html-keyboard-response","48","242371","0.0-5.0-3.0-1.0-4.7","69d5525ec7afcfce08d8608b","not_provided","desktop","0","0","1","","","","","","working_memory","","null","<div class=""fixation"">Correct</div>","null","","","","","","","","","","","","","","","","",""
"html-keyboard-response","49","243387","0.0-5.0-3.0-1.0-0.8","69d5525ec7afcfce08d8608b","not_provided","desktop","0","0","1","","","","","","working_memory","","null","<div class=""fixation"">+</div>","null","","","","","","","","","","","","","","","","",""
"html-keyboard-response","50","243590","0.0-5.0-3.0-1.0-1.8","69d5525ec7afcfce08d8608b","not_provided","desktop","0","0","1","","","","","","working_memory","","null","<img class='upper3' src=images/squares/red.png><div class=""fixation"">+</div>","null","","","memory","practice","8","1","","","","","","","","","","",""
"html-keyboard-response","51","244501","0.0-5.0-3.0-1.0-2.8","69d5525ec7afcfce08d8608b","not_provided","desktop","0","0","1","","","","","","working_memory","","null","<div class=""fixation"">+</div>","null","","","","","","","","","","","","","","","","",""
"html-keyboard-response","52","245469","0.0-5.0-3.0-1.0-3.8","69d5525ec7afcfce08d8608b","not_provided","desktop","0","0","1","","","","","","working_memory","","967","<img class='upper3' src=images/squares/red.png><div class=""fixation"">+</div>","k","","","test","practice","8","1","s","false","","","","","","","","",""
"html-keyboard-response","53","245971","0.0-5.0-3.0-1.0-4.8","69d5525ec7afcfce08d8608b","not_provided","desktop","0","0","1","","","","","","working_memory","","null","<div class=""fixation"">Incorrect</div>","null","","","","","","","","","","","","","","","","",""
"html-keyboard-response","54","246985","0.0-5.0-3.0-1.0-0.9","69d5525ec7afcfce08d8608b","not_provided","desktop","0","0","1","","","","","","working_memory","","null","<div class=""fixation"">+</div>","null","","","","","","","","","","","","","","","","",""
"html-keyboard-response","55","247189","0.0-5.0-3.0-1.0-1.9","69d5525ec7afcfce08d8608b","not_provided","desktop","0","0","1","","","","","","working_memory","","null","<img class='a' src=images/squares/black.png><img class='d' src=images/squares/yellow.png><img class='h' src=images/squares/magenta.png><img class='k' src=images/squares/brown.png><div class=""fixation"">+</div>","null","","","memory","practice","9","4","","","","","","","","","","",""
"html-keyboard-response","56","248092","0.0-5.0-3.0-1.0-2.9","69d5525ec7afcfce08d8608b","not_provided","desktop","0","0","1","","","","","","working_memory","","null","<div class=""fixation"">+</div>","null","","","","","","","","","","","","","","","","",""
"html-keyboard-response","57","249291","0.0-5.0-3.0-1.0-3.9","69d5525ec7afcfce08d8608b","not_provided","desktop","0","0","1","","","","","","working_memory","","1198","<img class='d' src=images/squares/blue.png><div class=""fixation"">+</div>","k","","","test","practice","9","4","k","true","","","","","","","","",""
"html-keyboard-response","58","249801","0.0-5.0-3.0-1.0-4.9","69d5525ec7afcfce08d8608b","not_provided","desktop","0","0","1","","","","","","working_memory","","null","<div class=""fixation"">Correct</div>","null","","","","","","","","","","","","","","","","",""
"html-keyboard-response","59","250813","0.0-5.0-3.0-1.0-0.10","69d5525ec7afcfce08d8608b","not_provided","desktop","0","0","1","","","","","","working_memory","","null","<div class=""fixation"">+</div>","null","","","","","","","","","","","","","","","","",""
"html-keyboard-response","60","251022","0.0-5.0-3.0-1.0-1.10","69d5525ec7afcfce08d8608b","not_provided","desktop","0","0","1","","","","","","working_memory","","null","<img class='upper3' src=images/squares/black.png><div class=""fixation"">+</div>","null","","","memory","practice","10","1","","","","","","","","","","",""
"html-keyboard-response","61","251935","0.0-5.0-3.0-1.0-2.10","69d5525ec7afcfce08d8608b","not_provided","desktop","0","0","1","","","","","","working_memory","","null","<div class=""fixation"">+</div>","null","","","","","","","","","","","","","","","","",""
"html-keyboard-response","62","253324","0.0-5.0-3.0-1.0-3.10","69d5525ec7afcfce08d8608b","not_provided","desktop","0","0","1","","","","","","working_memory","","1387","<img class='upper3' src=images/squares/brown.png><div class=""fixation"">+</div>","k","","","test","practice","10","1","k","true","","","","","","","","",""
"html-keyboard-response","63","253835","0.0-5.0-3.0-1.0-4.10","69d5525ec7afcfce08d8608b","not_provided","desktop","0","0","1","","","","","","working_memory","","null","<div class=""fixation"">Correct</div>","null","","","","","","","","","","","","","","","","",""
"html-keyboard-response","64","254836","0.0-5.0-3.0-1.0-0.11","69d5525ec7afcfce08d8608b","not_provided","desktop","0","0","1","","","","","","working_memory","","null","<div class=""fixation"">+</div>","null","","","","","","","","","","","","","","","","",""
"html-keyboard-response","65","255048","0.0-5.0-3.0-1.0-1.11","69d5525ec7afcfce08d8608b","not_provided","desktop","0","0","1","","","","","","working_memory","","null","<img class='c' src=images/squares/cyan.png><img class='f' src=images/squares/magenta.png><img class='i' src=images/squares/green.png><img class='l' src=images/squares/red.png><div class=""fixation"">+</div>","null","","","memory","practice","11","4","","","","","","","","","","",""
"html-keyboard-response","66","255958","0.0-5.0-3.0-1.0-2.11","69d5525ec7afcfce08d8608b","not_provided","desktop","0","0","1","","","","","","working_memory","","null","<div class=""fixation"">+</div>","null","","","","","","","","","","","","","","","","",""
"html-keyboard-response","67","257372","0.0-5.0-3.0-1.0-3.11","69d5525ec7afcfce08d8608b","not_provided","desktop","0","0","1","","","","","","working_memory","","1413","<img class='f' src=images/squares/orange.png><div class=""fixation"">+</div>","k","","","test","practice","11","4","k","true","","","","","","","","",""
"html-keyboard-response","68","257883","0.0-5.0-3.0-1.0-4.11","69d5525ec7afcfce08d8608b","not_provided","desktop","0","0","1","","","","","","working_memory","","null","<div class=""fixation"">Correct</div>","null","","","","","","","","","","","","","","","","",""
"html-keyboard-response","69","258899","0.0-5.0-3.0-1.0-0.12","69d5525ec7afcfce08d8608b","not_provided","desktop","0","0","1","","","","","","working_memory","","null","<div class=""fixation"">+</div>","null","","","","","","","","","","","","","","","","",""
"html-keyboard-response","70","259104","0.0-5.0-3.0-1.0-1.12","69d5525ec7afcfce08d8608b","not_provided","desktop","0","0","1","","","","","","working_memory","","null","<img class='a' src=images/squares/blue.png><img class='e' src=images/squares/yellow.png><img class='g' src=images/squares/orange.png><img class='j' src=images/squares/red.png><div class=""fixation"">+</div>","null","","","memory","practice","12","4","","","","","","","","","","",""
"html-keyboard-response","71","260007","0.0-5.0-3.0-1.0-2.12","69d5525ec7afcfce08d8608b","not_provided","desktop","0","0","1","","","","","","working_memory","","null","<div class=""fixation"">+</div>","null","","","","","","","","","","","","","","","","",""
"html-keyboard-response","72","261251","0.0-5.0-3.0-1.0-3.12","69d5525ec7afcfce08d8608b","not_provided","desktop","0","0","1","","","","","","working_memory","","1243","<img class='g' src=images/squares/orange.png><div class=""fixation"">+</div>","k","","","test","practice","12","4","s","false","","","","","","","","",""
"html-keyboard-response","73","261766","0.0-5.0-3.0-1.0-4.12","69d5525ec7afcfce08d8608b","not_provided","desktop","0","0","1","","","","","","working_memory","","null","<div class=""fixation"">Incorrect</div>","null","","","","","","","","","","","","","","","","",""
"html-keyboard-response","74","262782","0.0-5.0-3.0-1.0-0.13","69d5525ec7afcfce08d8608b","not_provided","desktop","0","0","1","","","","","","working_memory","","null","<div class=""fixation"">+</div>","null","","","","","","","","","","","","","","","","",""
"html-keyboard-response","75","262987","0.0-5.0-3.0-1.0-1.13","69d5525ec7afcfce08d8608b","not_provided","desktop","0","0","1","","","","","","working_memory","","null","<img class='lower2' src=images/squares/yellow.png><div class=""fixation"">+</div>","null","","","memory","practice","13","1","","","","","","","","","","",""
"html-keyboard-response","76","263889","0.0-5.0-3.0-1.0-2.13","69d5525ec7afcfce08d8608b","not_provided","desktop","0","0","1","","","","","","working_memory","","null","<div class=""fixation"">+</div>","null","","","","","","","","","","","","","","","","",""
"html-keyboard-response","77","265207","0.0-5.0-3.0-1.0-3.13","69d5525ec7afcfce08d8608b","not_provided","desktop","0","0","1","","","","","","working_memory","","1316","<img class='lower2' src=images/squares/green.png><div class=""fixation"">+</div>","k","","","test","practice","13","1","k","true","","","","","","","","",""
"html-keyboard-response","78","265714","0.0-5.0-3.0-1.0-4.13","69d5525ec7afcfce08d8608b","not_provided","desktop","0","0","1","","","","","","working_memory","","null","<div class=""fixation"">Correct</div>","null","","","","","","","","","","","","","","","","",""
"html-keyboard-response","79","266716","0.0-5.0-3.0-1.0-0.14","69d5525ec7afcfce08d8608b","not_provided","desktop","0","0","1","","","","","","working_memory","","null","<div class=""fixation"">+</div>","null","","","","","","","","","","","","","","","","",""
"html-keyboard-response","80","266919","0.0-5.0-3.0-1.0-1.14","69d5525ec7afcfce08d8608b","not_provided","desktop","0","0","1","","","","","","working_memory","","null","<img class='b' src=images/squares/orange.png><img class='e' src=images/squares/brown.png><img class='h' src=images/squares/cyan.png><img class='j' src=images/squares/yellow.png><div class=""fixation"">+</div>","null","","","memory","practice","14","4","","","","","","","","","","",""
"html-keyboard-response","81","267823","0.0-5.0-3.0-1.0-2.14","69d5525ec7afcfce08d8608b","not_provided","desktop","0","0","1","","","","","","working_memory","","null","<div class=""fixation"">+</div>","null","","","","","","","","","","","","","","","","",""
"html-keyboard-response","82","268950","0.0-5.0-3.0-1.0-3.14","69d5525ec7afcfce08d8608b","not_provided","desktop","0","0","1","","","","","","working_memory","","1125","<img class='b' src=images/squares/orange.png><div class=""fixation"">+</div>","s","","","test","practice","14","4","s","true","","","","","","","","",""
"html-keyboard-response","83","269465","0.0-5.0-3.0-1.0-4.14","69d5525ec7afcfce08d8608b","not_provided","desktop","0","0","1","","","","","","working_memory","","null","<div class=""fixation"">Correct</div>","null","","","","","","","","","","","","","","","","",""
"html-keyboard-response","84","274307","0.0-5.0-3.0-2.0-0.0","69d5525ec7afcfce08d8608b","not_provided","desktop","0","0","1","","","","","","working_memory","","4839","<p>Sorry. You made too many mistakes.<br>Let's do the practice session once again.<br><br><b>Press any key to continue</b></p>"," ","","","","","","","","","","","","","","","","",""
"html-keyboard-response","85","275514","0.0-5.0-3.1-0.1","69d5525ec7afcfce08d8608b","not_provided","desktop","0","0","1","","","","","","working_memory","","1205","<p>We will now start some practice trials.<br><b>The practice trials will also include some trials in which you will need to remember only one square to make sure you understood the instructions.</b><br>You may already want to be ready with your fingers on '<b>s</b>' and '<b>k</b>'.<br><img class=""wm-example-img"" src=""images/examples/keyboard.png""><br><b style=""font-size:1.2em;"">&lsquo;S&rsquo; = SAME &nbsp;&nbsp;&nbsp; &lsquo;K&rsquo; = DIFFERENT</b><br><br><u>Please try to be as accurate as possible.</u><br><br><b>Press any key to begin</b></p>"," ","","","","","","","","","","","","","","","","",""
"html-keyboard-response","86","277530","0.0-5.0-3.1-1.1-0.15","69d5525ec7afcfce08d8608b","not_provided","desktop","0","0","1","","","","","","working_memory","","null","<div class=""fixation"">+</div>","null","","","","","","","","","","","","","","","","",""
"html-keyboard-response","87","277733","0.0-5.0-3.1-1.1-1.15","69d5525ec7afcfce08d8608b","not_provided","desktop","0","0","1","","","","","","working_memory","","null","<img class='b' src=images/squares/yellow.png><img class='a' src=images/squares/orange.png><img class='e' src=images/squares/green.png><img class='f' src=images/squares/brown.png><img class='g' src=images/squares/blue.png><img class='i' src=images/squares/cyan.png><img class='j' src=images/squares/magenta.png><img class='k' src=images/squares/black.png><div class=""fixation"">+</div>","null","","","memory","practice","15","8","","","","","","","","","","",""
"html-keyboard-response","88","278637","0.0-5.0-3.1-1.1-2.15","69d5525ec7afcfce08d8608b","not_provided","desktop","0","0","1","","","","","","working_memory","","null","<div class=""fixation"">+</div>","null","","","","","","","","","","","","","","","","",""
"html-keyboard-response","89","280044","0.0-5.0-3.1-1.1-3.15","69d5525ec7afcfce08d8608b","not_provided","desktop","0","0","1","","","","","","working_memory","","1406","<img class='i' src=images/squares/cyan.png><div class=""fixation"">+</div>","s","","","test","practice","15","8","s","true","","","","","","","","",""
"html-keyboard-response","90","280546","0.0-5.0-3.1-1.1-4.15","69d5525ec7afcfce08d8608b","not_provided","desktop","0","0","1","","","","","","working_memory","","null","<div class=""fixation"">Correct</div>","null","","","","","","","","","","","","","","","","",""
"html-keyboard-response","91","281561","0.0-5.0-3.1-1.1-0.16","69d5525ec7afcfce08d8608b","not_provided","desktop","0","0","1","","","","","","working_memory","","null","<div class=""fixation"">+</div>","null","","","","","","","","","","","","","","","","",""
"html-keyboard-response","92","281765","0.0-5.0-3.1-1.1-1.16","69d5525ec7afcfce08d8608b","not_provided","desktop","0","0","1","","","","","","working_memory","","null","<img class='c' src=images/squares/blue.png><img class='a' src=images/squares/black.png><img class='d' src=images/squares/magenta.png><img class='e' src=images/squares/red.png><img class='i' src=images/squares/brown.png><img class='g' src=images/squares/orange.png><img class='l' src=images/squares/cyan.png><img class='j' src=images/squares/yellow.png><div class=""fixation"">+</div>","null","","","memory","practice","16","8","","","","","","","","","","",""
"html-keyboard-response","93","282668","0.0-5.0-3.1-1.1-2.16","69d5525ec7afcfce08d8608b","not_provided","desktop","0","0","1","","","","","","working_memory","","null","<div class=""fixation"">+</div>","null","","","","","","","","","","","","","","","","",""
"html-keyboard-response","94","284126","0.0-5.0-3.1-1.1-3.16","69d5525ec7afcfce08d8608b","not_provided","desktop","0","0","1","","","","","","working_memory","","1456","<img class='d' src=images/squares/magenta.png><div class=""fixation"">+</div>","s","","","test","practice","16","8","s","true","","","","","","","","",""
"html-keyboard-response","95","284628","0.0-5.0-3.1-1.1-4.16","69d5525ec7afcfce08d8608b","not_provided","desktop","0","0","1","","","","","","working_memory","","null","<div class=""fixation"">Correct</div>","null","","","","","","","","","","","","","","","","",""
"html-keyboard-response","96","285630","0.0-5.0-3.1-1.1-0.17","69d5525ec7afcfce08d8608b","not_provided","desktop","0","0","1","","","","","","working_memory","","null","<div class=""fixation"">+</div>","null","","","","","","","","","","","","","","","","",""
"html-keyboard-response","97","285832","0.0-5.0-3.1-1.1-1.17","69d5525ec7afcfce08d8608b","not_provided","desktop","0","0","1","","","","","","working_memory","","null","<img class='upper3' src=images/squares/blue.png><div class=""fixation"">+</div>","null","","","memory","practice","17","1","","","","","","","","","","",""
"html-keyboard-response","98","286735","0.0-5.0-3.1-1.1-2.17","69d5525ec7afcfce08d8608b","not_provided","desktop","0","0","1","","","","","","working_memory","","null","<div class=""fixation"">+</div>","null","","","","","","","","","","","","","","","","",""
"html-keyboard-response","99","287695","0.0-5.0-3.1-1.1-3.17","69d5525ec7afcfce08d8608b","not_provided","desktop","0","0","1","","","","","","working_memory","","959","<img class='upper3' src=images/squares/blue.png><div class=""fixation"">+</div>","s","","","test","practice","17","1","s","true","","","","","","","","",""
"html-keyboard-response","100","288212","0.0-5.0-3.1-1.1-4.17","69d5525ec7afcfce08d8608b","not_provided","desktop","0","0","1","","","","","","working_memory","","null","<div class=""fixation"">Correct</div>","null","","","","","","","","","","","","","","","","",""
"html-keyboard-response","101","289228","0.0-5.0-3.1-1.1-0.18","69d5525ec7afcfce08d8608b","not_provided","desktop","0","0","1","","","","","","working_memory","","null","<div class=""fixation"">+</div>","null","","","","","","","","","","","","","","","","",""
"html-keyboard-response","102","289430","0.0-5.0-3.1-1.1-1.18","69d5525ec7afcfce08d8608b","not_provided","desktop","0","0","1","","","","","","working_memory","","null","<img class='a' src=images/squares/green.png><img class='f' src=images/squares/yellow.png><img class='h' src=images/squares/cyan.png><img class='l' src=images/squares/orange.png><div class=""fixation"">+</div>","null","","","memory","practice","18","4","","","","","","","","","","",""
"html-keyboard-response","103","290333","0.0-5.0-3.1-1.1-2.18","69d5525ec7afcfce08d8608b","not_provided","desktop","0","0","1","","","","","","working_memory","","null","<div class=""fixation"">+</div>","null","","","","","","","","","","","","","","","","",""
"html-keyboard-response","104","291101","0.0-5.0-3.1-1.1-3.18","69d5525ec7afcfce08d8608b","not_provided","desktop","0","0","1","","","","","","working_memory","","766","<img class='h' src=images/squares/cyan.png><div class=""fixation"">+</div>","s","","","test","practice","18","4","s","true","","","","","","","","",""
"html-keyboard-response","105","291609","0.0-5.0-3.1-1.1-4.18","69d5525ec7afcfce08d8608b","not_provided","desktop","0","0","1","","","","","","working_memory","","null","<div class=""fixation"">Correct</div>","null","","","","","","","","","","","","","","","","",""
"html-keyboard-response","106","292623","0.0-5.0-3.1-1.1-0.19","69d5525ec7afcfce08d8608b","not_provided","desktop","0","0","1","","","","","","working_memory","","null","<div class=""fixation"">+</div>","null","","","","","","","","","","","","","","","","",""
"html-keyboard-response","107","292830","0.0-5.0-3.1-1.1-1.19","69d5525ec7afcfce08d8608b","not_provided","desktop","0","0","1","","","","","","working_memory","","null","<img class='b' src=images/squares/yellow.png><img class='c' src=images/squares/brown.png><img class='e' src=images/squares/black.png><img class='f' src=images/squares/blue.png><img class='h' src=images/squares/magenta.png><img class='g' src=images/squares/cyan.png><img class='j' src=images/squares/orange.png><img class='l' src=images/squares/red.png><div class=""fixation"">+</div>","null","","","memory","practice","19","8","","","","","","","","","","",""
"html-keyboard-response","108","293733","0.0-5.0-3.1-1.1-2.19","69d5525ec7afcfce08d8608b","not_provided","desktop","0","0","1","","","","","","working_memory","","null","<div class=""fixation"">+</div>","null","","","","","","","","","","","","","","","","",""
"html-keyboard-response","109","294910","0.0-5.0-3.1-1.1-3.19","69d5525ec7afcfce08d8608b","not_provided","desktop","0","0","1","","","","","","working_memory","","1175","<img class='l' src=images/squares/red.png><div class=""fixation"">+</div>","s","","","test","practice","19","8","s","true","","","","","","","","",""
"html-keyboard-response","110","295426","0.0-5.0-3.1-1.1-4.19","69d5525ec7afcfce08d8608b","not_provided","desktop","0","0","1","","","","","","working_memory","","null","<div class=""fixation"">Correct</div>","null","","","","","","","","","","","","","","","","",""
"html-keyboard-response","111","296442","0.0-5.0-3.1-1.1-0.20","69d5525ec7afcfce08d8608b","not_provided","desktop","0","0","1","","","","","","working_memory","","null","<div class=""fixation"">+</div>","null","","","","","","","","","","","","","","","","",""
"html-keyboard-response","112","296646","0.0-5.0-3.1-1.1-1.20","69d5525ec7afcfce08d8608b","not_provided","desktop","0","0","1","","","","","","working_memory","","null","<img class='upper1' src=images/squares/magenta.png><div class=""fixation"">+</div>","null","","","memory","practice","20","1","","","","","","","","","","",""
"html-keyboard-response","113","297550","0.0-5.0-3.1-1.1-2.20","69d5525ec7afcfce08d8608b","not_provided","desktop","0","0","1","","","","","","working_memory","","null","<div class=""fixation"">+</div>","null","","","","","","","","","","","","","","","","",""
"html-keyboard-response","114","298451","0.0-5.0-3.1-1.1-3.20","69d5525ec7afcfce08d8608b","not_provided","desktop","0","0","1","","","","","","working_memory","","900","<img class='upper1' src=images/squares/magenta.png><div class=""fixation"">+</div>","s","","","test","practice","20","1","s","true","","","","","","","","",""
"html-keyboard-response","115","298960","0.0-5.0-3.1-1.1-4.20","69d5525ec7afcfce08d8608b","not_provided","desktop","0","0","1","","","","","","working_memory","","null","<div class=""fixation"">Correct</div>","null","","","","","","","","","","","","","","","","",""
"html-keyboard-response","116","299962","0.0-5.0-3.1-1.1-0.21","69d5525ec7afcfce08d8608b","not_provided","desktop","0","0","1","","","","","","working_memory","","null","<div class=""fixation"">+</div>","null","","","","","","","","","","","","","","","","",""
"html-keyboard-response","117","300177","0.0-5.0-3.1-1.1-1.21","69d5525ec7afcfce08d8608b","not_provided","desktop","0","0","1","","","","","","working_memory","","null","<img class='upper1' src=images/squares/blue.png><div class=""fixation"">+</div>","null","","","memory","practice","21","1","","","","","","","","","","",""
"html-keyboard-response","118","301082","0.0-5.0-3.1-1.1-2.21","69d5525ec7afcfce08d8608b","not_provided","desktop","0","0","1","","","","","","working_memory","","null","<div class=""fixation"">+</div>","null","","","","","","","","","","","","","","","","",""
"html-keyboard-response","119","302206","0.0-5.0-3.1-1.1-3.21","69d5525ec7afcfce08d8608b","not_provided","desktop","0","0","1","","","","","","working_memory","","1123","<img class='upper1' src=images/squares/green.png><div class=""fixation"">+</div>","k","","","test","practice","21","1","k","true","","","","","","","","",""
"html-keyboard-response","120","302709","0.0-5.0-3.1-1.1-4.21","69d5525ec7afcfce08d8608b","not_provided","desktop","0","0","1","","","","","","working_memory","","null","<div class=""fixation"">Correct</div>","null","","","","","","","","","","","","","","","","",""
"html-keyboard-response","121","303724","0.0-5.0-3.1-1.1-0.22","69d5525ec7afcfce08d8608b","not_provided","desktop","0","0","1","","","","","","working_memory","","null","<div class=""fixation"">+</div>","null","","","","","","","","","","","","","","","","",""
"html-keyboard-response","122","303927","0.0-5.0-3.1-1.1-1.22","69d5525ec7afcfce08d8608b","not_provided","desktop","0","0","1","","","","","","working_memory","","null","<img class='b' src=images/squares/cyan.png><img class='a' src=images/squares/green.png><img class='e' src=images/squares/brown.png><img class='d' src=images/squares/black.png><img class='h' src=images/squares/yellow.png><img class='i' src=images/squares/magenta.png><img class='l' src=images/squares/orange.png><img class='k' src=images/squares/red.png><div class=""fixation"">+</div>","null","","","memory","practice","22","8","","","","","","","","","","",""
"html-keyboard-response","123","304832","0.0-5.0-3.1-1.1-2.22","69d5525ec7afcfce08d8608b","not_provided","desktop","0","0","1","","","","","","working_memory","","null","<div class=""fixation"">+</div>","null","","","","","","","","","","","","","","","","",""
"html-keyboard-response","124","306391","0.0-5.0-3.1-1.1-3.22","69d5525ec7afcfce08d8608b","not_provided","desktop","0","0","1","","","","","","working_memory","","1558","<img class='b' src=images/squares/cyan.png><div class=""fixation"">+</div>","k","","","test","practice","22","8","s","false","","","","","","","","",""
"html-keyboard-response","125","306904","0.0-5.0-3.1-1.1-4.22","69d5525ec7afcfce08d8608b","not_provided","desktop","0","0","1","","","","","","working_memory","","null","<div class=""fixation"">Incorrect</div>","null","","","","","","","","","","","","","","","","",""
"html-keyboard-response","126","307917","0.0-5.0-3.1-1.1-0.23","69d5525ec7afcfce08d8608b","not_provided","desktop","0","0","1","","","","","","working_memory","","null","<div class=""fixation"">+</div>","null","","","","","","","","","","","","","","","","",""
"html-keyboard-response","127","308128","0.0-5.0-3.1-1.1-1.23","69d5525ec7afcfce08d8608b","not_provided","desktop","0","0","1","","","","","","working_memory","","null","<img class='a' src=images/squares/magenta.png><img class='f' src=images/squares/red.png><img class='g' src=images/squares/green.png><img class='k' src=images/squares/black.png><div class=""fixation"">+</div>","null","","","memory","practice","23","4","","","","","","","","","","",""
"html-keyboard-response","128","309031","0.0-5.0-3.1-1.1-2.23","69d5525ec7afcfce08d8608b","not_provided","desktop","0","0","1","","","","","","working_memory","","null","<div class=""fixation"">+</div>","null","","","","","","","","","","","","","","","","",""
"html-keyboard-response","129","310549","0.0-5.0-3.1-1.1-3.23","69d5525ec7afcfce08d8608b","not_provided","desktop","0","0","1","","","","","","working_memory","","1516","<img class='a' src=images/squares/yellow.png><div class=""fixation"">+</div>","k","","","test","practice","23","4","k","true","","","","","","","","",""
"html-keyboard-response","130","311056","0.0-5.0-3.1-1.1-4.23","69d5525ec7afcfce08d8608b","not_provided","desktop","0","0","1","","","","","","working_memory","","null","<div class=""fixation"">Correct</div>","null","","","","","","","","","","","","","","","","",""
"html-keyboard-response","131","312073","0.0-5.0-3.1-1.1-0.24","69d5525ec7afcfce08d8608b","not_provided","desktop","0","0","1","","","","","","working_memory","","null","<div class=""fixation"">+</div>","null","","","","","","","","","","","","","","","","",""
"html-keyboard-response","132","312276","0.0-5.0-3.1-1.1-1.24","69d5525ec7afcfce08d8608b","not_provided","desktop","0","0","1","","","","","","working_memory","","null","<img class='b' src=images/squares/cyan.png><img class='e' src=images/squares/magenta.png><img class='h' src=images/squares/orange.png><img class='l' src=images/squares/black.png><div class=""fixation"">+</div>","null","","","memory","practice","24","4","","","","","","","","","","",""
"html-keyboard-response","133","313179","0.0-5.0-3.1-1.1-2.24","69d5525ec7afcfce08d8608b","not_provided","desktop","0","0","1","","","","","","working_memory","","null","<div class=""fixation"">+</div>","null","","","","","","","","","","","","","","","","",""
"html-keyboard-response","134","314965","0.0-5.0-3.1-1.1-3.24","69d5525ec7afcfce08d8608b","not_provided","desktop","0","0","1","","","","","","working_memory","","1785","<img class='b' src=images/squares/yellow.png><div class=""fixation"">+</div>","k","","","test","practice","24","4","k","true","","","","","","","","",""
"html-keyboard-response","135","315472","0.0-5.0-3.1-1.1-4.24","69d5525ec7afcfce08d8608b","not_provided","desktop","0","0","1","","","","","","working_memory","","null","<div class=""fixation"">Correct</div>","null","","","","","","","","","","","","","","","","",""
"html-keyboard-response","136","316487","0.0-5.0-3.1-1.1-0.25","69d5525ec7afcfce08d8608b","not_provided","desktop","0","0","1","","","","","","working_memory","","null","<div class=""fixation"">+</div>","null","","","","","","","","","","","","","","","","",""
"html-keyboard-response","137","316692","0.0-5.0-3.1-1.1-1.25","69d5525ec7afcfce08d8608b","not_provided","desktop","0","0","1","","","","","","working_memory","","null","<img class='b' src=images/squares/blue.png><img class='a' src=images/squares/brown.png><img class='f' src=images/squares/black.png><img class='e' src=images/squares/orange.png><img class='h' src=images/squares/cyan.png><img class='g' src=images/squares/green.png><img class='j' src=images/squares/magenta.png><img class='k' src=images/squares/yellow.png><div class=""fixation"">+</div>","null","","","memory","practice","25","8","","","","","","","","","","",""
"html-keyboard-response","138","317595","0.0-5.0-3.1-1.1-2.25","69d5525ec7afcfce08d8608b","not_provided","desktop","0","0","1","","","","","","working_memory","","null","<div class=""fixation"">+</div>","null","","","","","","","","","","","","","","","","",""
"html-keyboard-response","139","319190","0.0-5.0-3.1-1.1-3.25","69d5525ec7afcfce08d8608b","not_provided","desktop","0","0","1","","","","","","working_memory","","1594","<img class='k' src=images/squares/red.png><div class=""fixation"">+</div>","k","","","test","practice","25","8","k","true","","","","","","","","",""
"html-keyboard-response","140","319704","0.0-5.0-3.1-1.1-4.25","69d5525ec7afcfce08d8608b","not_provided","desktop","0","0","1","","","","","","working_memory","","null","<div class=""fixation"">Correct</div>","null","","","","","","","","","","","","","","","","",""
"html-keyboard-response","141","320720","0.0-5.0-3.1-1.1-0.26","69d5525ec7afcfce08d8608b","not_provided","desktop","0","0","1","","","","","","working_memory","","null","<div class=""fixation"">+</div>","null","","","","","","","","","","","","","","","","",""
"html-keyboard-response","142","320925","0.0-5.0-3.1-1.1-1.26","69d5525ec7afcfce08d8608b","not_provided","desktop","0","0","1","","","","","","working_memory","","null","<img class='a' src=images/squares/green.png><img class='e' src=images/squares/black.png><img class='h' src=images/squares/brown.png><img class='j' src=images/squares/cyan.png><div class=""fixation"">+</div>","null","","","memory","practice","26","4","","","","","","","","","","",""
"html-keyboard-response","143","321839","0.0-5.0-3.1-1.1-2.26","69d5525ec7afcfce08d8608b","not_provided","desktop","0","0","1","","","","","","working_memory","","null","<div class=""fixation"">+</div>","null","","","","","","","","","","","","","","","","",""
"html-keyboard-response","144","323349","0.0-5.0-3.1-1.1-3.26","69d5525ec7afcfce08d8608b","not_provided","desktop","0","0","1","","","","","","working_memory","","1508","<img class='j' src=images/squares/cyan.png><div class=""fixation"">+</div>","k","","","test","practice","26","4","s","false","","","","","","","","",""
"html-keyboard-response","145","323854","0.0-5.0-3.1-1.1-4.26","69d5525ec7afcfce08d8608b","not_provided","desktop","0","0","1","","","","","","working_memory","","null","<div class=""fixation"">Incorrect</div>","null","","","","","","","","","","","","","","","","",""
"html-keyboard-response","146","324869","0.0-5.0-3.1-1.1-0.27","69d5525ec7afcfce08d8608b","not_provided","desktop","0","0","1","","","","","","working_memory","","null","<div class=""fixation"">+</div>","null","","","","","","","","","","","","","","","","",""
"html-keyboard-response","147","325073","0.0-5.0-3.1-1.1-1.27","69d5525ec7afcfce08d8608b","not_provided","desktop","0","0","1","","","","","","working_memory","","null","<img class='c' src=images/squares/brown.png><img class='a' src=images/squares/black.png><img class='f' src=images/squares/blue.png><img class='d' src=images/squares/green.png><img class='h' src=images/squares/red.png><img class='i' src=images/squares/cyan.png><img class='k' src=images/squares/yellow.png><img class='l' src=images/squares/orange.png><div class=""fixation"">+</div>","null","","","memory","practice","27","8","","","","","","","","","","",""
"html-keyboard-response","148","325976","0.0-5.0-3.1-1.1-2.27","69d5525ec7afcfce08d8608b","not_provided","desktop","0","0","1","","","","","","working_memory","","null","<div class=""fixation"">+</div>","null","","","","","","","","","","","","","","","","",""
"html-keyboard-response","149","328452","0.0-5.0-3.1-1.1-3.27","69d5525ec7afcfce08d8608b","not_provided","desktop","0","0","1","","","","","","working_memory","","2474","<img class='l' src=images/squares/orange.png><div class=""fixation"">+</div>","s","","","test","practice","27","8","s","true","","","","","","","","",""
"html-keyboard-response","150","328962","0.0-5.0-3.1-1.1-4.27","69d5525ec7afcfce08d8608b","not_provided","desktop","0","0","1","","","","","","working_memory","","null","<div class=""fixation"">Correct</div>","null","","","","","","","","","","","","","","","","",""
"html-keyboard-response","151","329967","0.0-5.0-3.1-1.1-0.28","69d5525ec7afcfce08d8608b","not_provided","desktop","0","0","1","","","","","","working_memory","","null","<div class=""fixation"">+</div>","null","","","","","","","","","","","","","","","","",""
"html-keyboard-response","152","330172","0.0-5.0-3.1-1.1-1.28","69d5525ec7afcfce08d8608b","not_provided","desktop","0","0","1","","","","","","working_memory","","null","<img class='b' src=images/squares/brown.png><img class='d' src=images/squares/cyan.png><img class='h' src=images/squares/magenta.png><img class='l' src=images/squares/black.png><div class=""fixation"">+</div>","null","","","memory","practice","28","4","","","","","","","","","","",""
"html-keyboard-response","153","331077","0.0-5.0-3.1-1.1-2.28","69d5525ec7afcfce08d8608b","not_provided","desktop","0","0","1","","","","","","working_memory","","null","<div class=""fixation"">+</div>","null","","","","","","","","","","","","","","","","",""
"html-keyboard-response","154","332411","0.0-5.0-3.1-1.1-3.28","69d5525ec7afcfce08d8608b","not_provided","desktop","0","0","1","","","","","","working_memory","","1333","<img class='d' src=images/squares/blue.png><div class=""fixation"">+</div>","k","","","test","practice","28","4","k","true","","","","","","","","",""
"html-keyboard-response","155","332920","0.0-5.0-3.1-1.1-4.28","69d5525ec7afcfce08d8608b","not_provided","desktop","0","0","1","","","","","","working_memory","","null","<div class=""fixation"">Correct</div>","null","","","","","","","","","","","","","","","","",""
"html-keyboard-response","156","333922","0.0-5.0-3.1-1.1-0.29","69d5525ec7afcfce08d8608b","not_provided","desktop","0","0","1","","","","","","working_memory","","null","<div class=""fixation"">+</div>","null","","","","","","","","","","","","","","","","",""
"html-keyboard-response","157","334137","0.0-5.0-3.1-1.1-1.29","69d5525ec7afcfce08d8608b","not_provided","desktop","0","0","1","","","","","","working_memory","","null","<img class='b' src=images/squares/red.png><img class='d' src=images/squares/magenta.png><img class='i' src=images/squares/brown.png><img class='j' src=images/squares/orange.png><div class=""fixation"">+</div>","null","","","memory","practice","29","4","","","","","","","","","","",""
"html-keyboard-response","158","335042","0.0-5.0-3.1-1.1-2.29","69d5525ec7afcfce08d8608b","not_provided","desktop","0","0","1","","","","","","working_memory","","null","<div class=""fixation"">+</div>","null","","","","","","","","","","","","","","","","",""
"html-keyboard-response","159","336982","0.0-5.0-3.1-1.1-3.29","69d5525ec7afcfce08d8608b","not_provided","desktop","0","0","1","","","","","","working_memory","","1939","<img class='b' src=images/squares/red.png><div class=""fixation"">+</div>","k","","","test","practice","29","4","s","false","","","","","","","","",""
"html-keyboard-response","160","337496","0.0-5.0-3.1-1.1-4.29","69d5525ec7afcfce08d8608b","not_provided","desktop","0","0","1","","","","","","working_memory","","null","<div class=""fixation"">Incorrect</div>","null","","","","","","","","","","","","","","","","",""
"html-keyboard-response","161","343704","0.0-5.0-4.0","69d5525ec7afcfce08d8608b","not_provided","desktop","0","0","1","","","","","","working_memory","","6207","<div style=""text-align:center;font-family:sans-serif;""><p>Good job! You have finished the practice.</p><p>We will now start the real experiment.</p><p>Please try to be as accurate as possible.</p><p><b><u>Note: random guessing may risk your payment.</u></b></p><br><p><b>Press any key to begin.</b></p></div>"," ","","","","","","","","","","","","","","","","",""
"html-keyboard-response","162","344715","0.0-5.0-5.0-0.0","69d5525ec7afcfce08d8608b","not_provided","desktop","0","0","1","","","","","","working_memory","","null","<div class=""fixation"">+</div>","null","","","","","","","","","","","","","","","","",""
"html-keyboard-response","163","344919","0.0-5.0-5.0-1.0","69d5525ec7afcfce08d8608b","not_provided","desktop","0","0","1","","","","","","working_memory","","null","<img class='c' src=images/squares/magenta.png><img class='a' src=images/squares/black.png><img class='e' src=images/squares/red.png><img class='d' src=images/squares/cyan.png><img class='i' src=images/squares/green.png><img class='h' src=images/squares/orange.png><img class='j' src=images/squares/blue.png><img class='k' src=images/squares/yellow.png><div class=""fixation"">+</div>","null","","","memory","exp","0","","","","","","","","","","","",""
"html-keyboard-response","164","345824","0.0-5.0-5.0-2.0","69d5525ec7afcfce08d8608b","not_provided","desktop","0","0","1","","","","","","working_memory","","null","<div class=""fixation"">+</div>","null","","","","","","","","","","","","","","","","",""
"html-keyboard-response","165","346691","0.0-5.0-5.0-3.0","69d5525ec7afcfce08d8608b","not_provided","desktop","0","0","1","","","","","","working_memory","","866","<img class='d' src=images/squares/brown.png><div class=""fixation"">+</div>","k","","","test_squares","exp","0","8","k","true","sk","d","","","","","","",""
"html-keyboard-response","166","347199","0.0-5.0-5.0-4.0","69d5525ec7afcfce08d8608b","not_provided","desktop","0","0","1","","","","","","working_memory","","null","<div class=""fixation"">Correct</div>","null","","","","","","","","","","","","","","","","",""
"html-keyboard-response","167","348214","0.0-5.0-5.0-0.1","69d5525ec7afcfce08d8608b","not_provided","desktop","0","0","1","","","","","","working_memory","","null","<div class=""fixation"">+</div>","null","","","","","","","","","","","","","","","","",""
"html-keyboard-response","168","348419","0.0-5.0-5.0-1.1","69d5525ec7afcfce08d8608b","not_provided","desktop","0","0","1","","","","","","working_memory","","null","<img class='b' src=images/squares/orange.png><img class='a' src=images/squares/brown.png><img class='f' src=images/squares/cyan.png><img class='e' src=images/squares/red.png><img class='i' src=images/squares/black.png><img class='h' src=images/squares/yellow.png><img class='j' src=images/squares/blue.png><img class='k' src=images/squares/green.png><div class=""fixation"">+</div>","null","","","memory","exp","1","","","","","","","","","","","",""
"html-keyboard-response","169","349322","0.0-5.0-5.0-2.1","69d5525ec7afcfce08d8608b","not_provided","desktop","0","0","1","","","","","","working_memory","","null","<div class=""fixation"">+</div>","null","","","","","","","","","","","","","","","","",""
"html-keyboard-response","170","350329","0.0-5.0-5.0-3.1","69d5525ec7afcfce08d8608b","not_provided","desktop","0","0","1","","","","","","working_memory","","1004","<img class='h' src=images/squares/magenta.png><div class=""fixation"">+</div>","k","","","test_squares","exp","1","8","k","true","sk","d","","","","","","",""
"html-keyboard-response","171","350832","0.0-5.0-5.0-4.1","69d5525ec7afcfce08d8608b","not_provided","desktop","0","0","1","","","","","","working_memory","","null","<div class=""fixation"">Correct</div>","null","","","","","","","","","","","","","","","","",""
"html-keyboard-response","172","351847","0.0-5.0-5.0-0.2","69d5525ec7afcfce08d8608b","not_provided","desktop","0","0","1","","","","","","working_memory","","null","<div class=""fixation"">+</div>","null","","","","","","","","","","","","","","","","",""
"html-keyboard-response","173","352051","0.0-5.0-5.0-1.2","69d5525ec7afcfce08d8608b","not_provided","desktop","0","0","1","","","","","","working_memory","","null","<img class='a' src=images/squares/black.png><img class='e' src=images/squares/yellow.png><img class='h' src=images/squares/brown.png><img class='l' src=images/squares/magenta.png><div class=""fixation"">+</div>","null","","","memory","exp","2","","","","","","","","","","","",""
"html-keyboard-response","174","352954","0.0-5.0-5.0-2.2","69d5525ec7afcfce08d8608b","not_provided","desktop","0","0","1","","","","","","working_memory","","null","<div class=""fixation"">+</div>","null","","","","","","","","","","","","","","","","",""
"html-keyboard-response","175","354351","0.0-5.0-5.0-3.2","69d5525ec7afcfce08d8608b","not_provided","desktop","0","0","1","","","","","","working_memory","","1395","<img class='h' src=images/squares/brown.png><div class=""fixation"">+</div>","k","","","test_squares","exp","2","4","s","false","sk","s","","","","","","",""
"html-keyboard-response","176","354863","0.0-5.0-5.0-4.2","69d5525ec7afcfce08d8608b","not_provided","desktop","0","0","1","","","","","","working_memory","","null","<div class=""fixation"">Incorrect</div>","null","","","","","","","","","","","","","","","","",""
"html-keyboard-response","177","355864","0.0-5.0-5.0-0.3","69d5525ec7afcfce08d8608b","not_provided","desktop","0","0","1","","","","","","working_memory","","null","<div class=""fixation"">+</div>","null","","","","","","","","","","","","","","","","",""
"html-keyboard-response","178","356067","0.0-5.0-5.0-1.3","69d5525ec7afcfce08d8608b","not_provided","desktop","0","0","1","","","","","","working_memory","","null","<img class='b' src=images/squares/cyan.png><img class='c' src=images/squares/green.png><img class='d' src=images/squares/yellow.png><img class='e' src=images/squares/brown.png><img class='g' src=images/squares/black.png><img class='i' src=images/squares/magenta.png><img class='j' src=images/squares/blue.png><img class='k' src=images/squares/orange.png><div class=""fixation"">+</div>","null","","","memory","exp","3","","","","","","","","","","","",""
"html-keyboard-response","179","356970","0.0-5.0-5.0-2.3","69d5525ec7afcfce08d8608b","not_provided","desktop","0","0","1","","","","","","working_memory","","null","<div class=""fixation"">+</div>","null","","","","","","","","","","","","","","","","",""
"html-keyboard-response","180","358236","0.0-5.0-5.0-3.3","69d5525ec7afcfce08d8608b","not_provided","desktop","0","0","1","","","","","","working_memory","","1265","<img class='e' src=images/squares/red.png><div class=""fixation"">+</div>","k","","","test_squares","exp","3","8","k","true","sk","d","","","","","","",""
"html-keyboard-response","181","358747","0.0-5.0-5.0-4.3","69d5525ec7afcfce08d8608b","not_provided","desktop","0","0","1","","","","","","working_memory","","null","<div class=""fixation"">Correct</div>","null","","","","","","","","","","","","","","","","",""
"html-keyboard-response","182","359762","0.0-5.0-5.0-0.4","69d5525ec7afcfce08d8608b","not_provided","desktop","0","0","1","","","","","","working_memory","","null","<div class=""fixation"">+</div>","null","","","","","","","","","","","","","","","","",""
"html-keyboard-response","183","359967","0.0-5.0-5.0-1.4","69d5525ec7afcfce08d8608b","not_provided","desktop","0","0","1","","","","","","working_memory","","null","<img class='b' src=images/squares/orange.png><img class='d' src=images/squares/cyan.png><img class='g' src=images/squares/black.png><img class='k' src=images/squares/brown.png><div class=""fixation"">+</div>","null","","","memory","exp","4","","","","","","","","","","","",""
"html-keyboard-response","184","360871","0.0-5.0-5.0-2.4","69d5525ec7afcfce08d8608b","not_provided","desktop","0","0","1","","","","","","working_memory","","null","<div class=""fixation"">+</div>","null","","","","","","","","","","","","","","","","",""
"html-keyboard-response","185","362275","0.0-5.0-5.0-3.4","69d5525ec7afcfce08d8608b","not_provided","desktop","0","0","1","","","","","","working_memory","","1402","<img class='k' src=images/squares/brown.png><div class=""fixation"">+</div>","s","","","test_squares","exp","4","4","s","true","sk","s","","","","","","",""
"html-keyboard-response","186","362780","0.0-5.0-5.0-4.4","69d5525ec7afcfce08d8608b","not_provided","desktop","0","0","1","","","","","","working_memory","","null","<div class=""fixation"">Correct</div>","null","","","","","","","","","","","","","","","","",""
"html-keyboard-response","187","363795","0.0-5.0-5.0-0.5","69d5525ec7afcfce08d8608b","not_provided","desktop","0","0","1","","","","","","working_memory","","null","<div class=""fixation"">+</div>","null","","","","","","","","","","","","","","","","",""
"html-keyboard-response","188","363999","0.0-5.0-5.0-1.5","69d5525ec7afcfce08d8608b","not_provided","desktop","0","0","1","","","","","","working_memory","","null","<img class='b' src=images/squares/green.png><img class='e' src=images/squares/yellow.png><img class='h' src=images/squares/black.png><img class='j' src=images/squares/cyan.png><div class=""fixation"">+</div>","null","","","memory","exp","5","","","","","","","","","","","",""
"html-keyboard-response","189","364902","0.0-5.0-5.0-2.5","69d5525ec7afcfce08d8608b","not_provided","desktop","0","0","1","","","","","","working_memory","","null","<div class=""fixation"">+</div>","null","","","","","","","","","","","","","","","","",""
"html-keyboard-response","190","366013","0.0-5.0-5.0-3.5","69d5525ec7afcfce08d8608b","not_provided","desktop","0","0","1","","","","","","working_memory","","1109","<img class='e' src=images/squares/yellow.png><div class=""fixation"">+</div>","k","","","test_squares","exp","5","4","s","false","sk","s","","","","","","",""
"html-keyboard-response","191","366528","0.0-5.0-5.0-4.5","69d5525ec7afcfce08d8608b","not_provided","desktop","0","0","1","","","","","","working_memory","","null","<div class=""fixation"">Incorrect</div>","null","","","","","","","","","","","","","","","","",""
"html-keyboard-response","192","367530","0.0-5.0-5.0-0.6","69d5525ec7afcfce08d8608b","not_provided","desktop","0","0","1","","","","","","working_memory","","null","<div class=""fixation"">+</div>","null","","","","","","","","","","","","","","","","",""
"html-keyboard-response","193","367747","0.0-5.0-5.0-1.6","69d5525ec7afcfce08d8608b","not_provided","desktop","0","0","1","","","","","","working_memory","","null","<img class='c' src=images/squares/orange.png><img class='b' src=images/squares/black.png><img class='e' src=images/squares/cyan.png><img class='f' src=images/squares/red.png><img class='g' src=images/squares/green.png><img class='h' src=images/squares/yellow.png><img class='k' src=images/squares/magenta.png><img class='l' src=images/squares/brown.png><div class=""fixation"">+</div>","null","","","memory","exp","6","","","","","","","","","","","",""
"html-keyboard-response","194","368652","0.0-5.0-5.0-2.6","69d5525ec7afcfce08d8608b","not_provided","desktop","0","0","1","","","","","","working_memory","","null","<div class=""fixation"">+</div>","null","","","","","","","","","","","","","","","","",""
"html-keyboard-response","195","370380","0.0-5.0-5.0-3.6","69d5525ec7afcfce08d8608b","not_provided","desktop","0","0","1","","","","","","working_memory","","1727","<img class='h' src=images/squares/yellow.png><div class=""fixation"">+</div>","s","","","test_squares","exp","6","8","s","true","sk","s","","","","","","",""
"html-keyboard-response","196","370887","0.0-5.0-5.0-4.6","69d5525ec7afcfce08d8608b","not_provided","desktop","0","0","1","","","","","","working_memory","","null","<div class=""fixation"">Correct</div>","null","","","","","","","","","","","","","","","","",""
"html-keyboard-response","197","371894","0.0-5.0-5.0-0.7","69d5525ec7afcfce08d8608b","not_provided","desktop","0","0","1","","","","","","working_memory","","null","<div class=""fixation"">+</div>","null","","","","","","","","","","","","","","","","",""
"html-keyboard-response","198","372099","0.0-5.0-5.0-1.7","69d5525ec7afcfce08d8608b","not_provided","desktop","0","0","1","","","","","","working_memory","","null","<img class='c' src=images/squares/black.png><img class='a' src=images/squares/yellow.png><img class='e' src=images/squares/magenta.png><img class='f' src=images/squares/blue.png><img class='h' src=images/squares/green.png><img class='i' src=images/squares/cyan.png><img class='k' src=images/squares/brown.png><img class='l' src=images/squares/orange.png><div class=""fixation"">+</div>","null","","","memory","exp","7","","","","","","","","","","","",""
"html-keyboard-response","199","373000","0.0-5.0-5.0-2.7","69d5525ec7afcfce08d8608b","not_provided","desktop","0","0","1","","","","","","working_memory","","null","<div class=""fixation"">+</div>","null","","","","","","","","","","","","","","","","",""
"html-keyboard-response","200","374341","0.0-5.0-5.0-3.7","69d5525ec7afcfce08d8608b","not_provided","desktop","0","0","1","","","","","","working_memory","","1339","<img class='h' src=images/squares/red.png><div class=""fixation"">+</div>","k","","","test_squares","exp","7","8","k","true","sk","d","","","","","","",""
"html-keyboard-response","201","374844","0.0-5.0-5.0-4.7","69d5525ec7afcfce08d8608b","not_provided","desktop","0","0","1","","","","","","working_memory","","null","<div class=""fixation"">Correct</div>","null","","","","","","","","","","","","","","","","",""
"html-keyboard-response","202","375860","0.0-5.0-5.0-0.8","69d5525ec7afcfce08d8608b","not_provided","desktop","0","0","1","","","","","","working_memory","","null","<div class=""fixation"">+</div>","null","","","","","","","","","","","","","","","","",""
"html-keyboard-response","203","376063","0.0-5.0-5.0-1.8","69d5525ec7afcfce08d8608b","not_provided","desktop","0","0","1","","","","","","working_memory","","null","<img class='b' src=images/squares/brown.png><img class='a' src=images/squares/orange.png><img class='d' src=images/squares/magenta.png><img class='e' src=images/squares/black.png><img class='h' src=images/squares/yellow.png><img class='i' src=images/squares/blue.png><img class='l' src=images/squares/green.png><img class='j' src=images/squares/red.png><div class=""fixation"">+</div>","null","","","memory","exp","8","","","","","","","","","","","",""
"html-keyboard-response","204","376967","0.0-5.0-5.0-2.8","69d5525ec7afcfce08d8608b","not_provided","desktop","0","0","1","","","","","","working_memory","","null","<div class=""fixation"">+</div>","null","","","","","","","","","","","","","","","","",""
"html-keyboard-response","205","378497","0.0-5.0-5.0-3.8","69d5525ec7afcfce08d8608b","not_provided","desktop","0","0","1","","","","","","working_memory","","1528","<img class='e' src=images/squares/black.png><div class=""fixation"">+</div>","k","","","test_squares","exp","8","8","s","false","sk","s","","","","","","",""
"html-keyboard-response","206","379008","0.0-5.0-5.0-4.8","69d5525ec7afcfce08d8608b","not_provided","desktop","0","0","1","","","","","","working_memory","","null","<div class=""fixation"">Incorrect</div>","null","","","","","","","","","","","","","","","","",""
"html-keyboard-response","207","380025","0.0-5.0-5.0-0.9","69d5525ec7afcfce08d8608b","not_provided","desktop","0","0","1","","","","","","working_memory","","null","<div class=""fixation"">+</div>","null","","","","","","","","","","","","","","","","",""
"html-keyboard-response","208","380229","0.0-5.0-5.0-1.9","69d5525ec7afcfce08d8608b","not_provided","desktop","0","0","1","","","","","","working_memory","","null","<img class='b' src=images/squares/yellow.png><img class='d' src=images/squares/red.png><img class='h' src=images/squares/orange.png><img class='l' src=images/squares/cyan.png><div class=""fixation"">+</div>","null","","","memory","exp","9","","","","","","","","","","","",""
"html-keyboard-response","209","381133","0.0-5.0-5.0-2.9","69d5525ec7afcfce08d8608b","not_provided","desktop","0","0","1","","","","","","working_memory","","null","<div class=""fixation"">+</div>","null","","","","","","","","","","","","","","","","",""
"html-keyboard-response","210","382094","0.0-5.0-5.0-3.9","69d5525ec7afcfce08d8608b","not_provided","desktop","0","0","1","","","","","","working_memory","","960","<img class='l' src=images/squares/brown.png><div class=""fixation"">+</div>","k","","","test_squares","exp","9","4","k","true","sk","d","","","","","","",""
"html-keyboard-response","211","382607","0.0-5.0-5.0-4.9","69d5525ec7afcfce08d8608b","not_provided","desktop","0","0","1","","","","","","working_memory","","null","<div class=""fixation"">Correct</div>","null","","","","","","","","","","","","","","","","",""
"html-keyboard-response","212","383620","0.0-5.0-5.0-0.10","69d5525ec7afcfce08d8608b","not_provided","desktop","0","0","1","","","","","","working_memory","","null","<div class=""fixation"">+</div>","null","","","","","","","","","","","","","","","","",""
"html-keyboard-response","213","383829","0.0-5.0-5.0-1.10","69d5525ec7afcfce08d8608b","not_provided","desktop","0","0","1","","","","","","working_memory","","null","<img class='c' src=images/squares/orange.png><img class='e' src=images/squares/brown.png><img class='i' src=images/squares/green.png><img class='j' src=images/squares/blue.png><div class=""fixation"">+</div>","null","","","memory","exp","10","","","","","","","","","","","",""
"html-keyboard-response","214","384733","0.0-5.0-5.0-2.10","69d5525ec7afcfce08d8608b","not_provided","desktop","0","0","1","","","","","","working_memory","","null","<div class=""fixation"">+</div>","null","","","","","","","","","","","","","","","","",""
"html-keyboard-response","215","385716","0.0-5.0-5.0-3.10","69d5525ec7afcfce08d8608b","not_provided","desktop","0","0","1","","","","","","working_memory","","982","<img class='c' src=images/squares/black.png><div class=""fixation"">+</div>","k","","","test_squares","exp","10","4","k","true","sk","d","","","","","","",""
"html-keyboard-response","216","386224","0.0-5.0-5.0-4.10","69d5525ec7afcfce08d8608b","not_provided","desktop","0","0","1","","","","","","working_memory","","null","<div class=""fixation"">Correct</div>","null","","","","","","","","","","","","","","","","",""
"html-keyboard-response","217","387240","0.0-5.0-5.0-0.11","69d5525ec7afcfce08d8608b","not_provided","desktop","0","0","1","","","","","","working_memory","","null","<div class=""fixation"">+</div>","null","","","","","","","","","","","","","","","","",""
"html-keyboard-response","218","387444","0.0-5.0-5.0-1.11","69d5525ec7afcfce08d8608b","not_provided","desktop","0","0","1","","","","","","working_memory","","null","<img class='b' src=images/squares/orange.png><img class='d' src=images/squares/black.png><img class='h' src=images/squares/cyan.png><img class='k' src=images/squares/magenta.png><div class=""fixation"">+</div>","null","","","memory","exp","11","","","","","","","","","","","",""
"html-keyboard-response","219","388347","0.0-5.0-5.0-2.11","69d5525ec7afcfce08d8608b","not_provided","desktop","0","0","1","","","","","","working_memory","","null","<div class=""fixation"">+</div>","null","","","","","","","","","","","","","","","","",""
"html-keyboard-response","220","389506","0.0-5.0-5.0-3.11","69d5525ec7afcfce08d8608b","not_provided","desktop","0","0","1","","","","","","working_memory","","1158","<img class='b' src=images/squares/blue.png><div class=""fixation"">+</div>","k","","","test_squares","exp","11","4","k","true","sk","d","","","","","","",""
"html-keyboard-response","221","390007","0.0-5.0-5.0-4.11","69d5525ec7afcfce08d8608b","not_provided","desktop","0","0","1","","","","","","working_memory","","null","<div class=""fixation"">Correct</div>","null","","","","","","","","","","","","","","","","",""
"html-keyboard-response","222","391023","0.0-5.0-5.0-0.12","69d5525ec7afcfce08d8608b","not_provided","desktop","0","0","1","","","","","","working_memory","","null","<div class=""fixation"">+</div>","null","","","","","","","","","","","","","","","","",""
"html-keyboard-response","223","391226","0.0-5.0-5.0-1.12","69d5525ec7afcfce08d8608b","not_provided","desktop","0","0","1","","","","","","working_memory","","null","<img class='b' src=images/squares/black.png><img class='c' src=images/squares/cyan.png><img class='d' src=images/squares/blue.png><img class='f' src=images/squares/orange.png><img class='i' src=images/squares/yellow.png><img class='h' src=images/squares/red.png><img class='k' src=images/squares/green.png><img class='j' src=images/squares/brown.png><div class=""fixation"">+</div>","null","","","memory","exp","12","","","","","","","","","","","",""
"html-keyboard-response","224","392142","0.0-5.0-5.0-2.12","69d5525ec7afcfce08d8608b","not_provided","desktop","0","0","1","","","","","","working_memory","","null","<div class=""fixation"">+</div>","null","","","","","","","","","","","","","","","","",""
"html-keyboard-response","225","393826","0.0-5.0-5.0-3.12","69d5525ec7afcfce08d8608b","not_provided","desktop","0","0","1","","","","","","working_memory","","1683","<img class='h' src=images/squares/red.png><div class=""fixation"">+</div>","s","","","test_squares","exp","12","8","s","true","sk","s","","","","","","",""
"html-keyboard-response","226","394339","0.0-5.0-5.0-4.12","69d5525ec7afcfce08d8608b","not_provided","desktop","0","0","1","","","","","","working_memory","","null","<div class=""fixation"">Correct</div>","null","","","","","","","","","","","","","","","","",""
"html-keyboard-response","227","395355","0.0-5.0-5.0-0.13","69d5525ec7afcfce08d8608b","not_provided","desktop","0","0","1","","","","","","working_memory","","null","<div class=""fixation"">+</div>","null","","","","","","","","","","","","","","","","",""
"html-keyboard-response","228","395564","0.0-5.0-5.0-1.13","69d5525ec7afcfce08d8608b","not_provided","desktop","0","0","1","","","","","","working_memory","","null","<img class='b' src=images/squares/black.png><img class='d' src=images/squares/yellow.png><img class='h' src=images/squares/orange.png><img class='k' src=images/squares/blue.png><div class=""fixation"">+</div>","null","","","memory","exp","13","","","","","","","","","","","",""
"html-keyboard-response","229","396467","0.0-5.0-5.0-2.13","69d5525ec7afcfce08d8608b","not_provided","desktop","0","0","1","","","","","","working_memory","","null","<div class=""fixation"">+</div>","null","","","","","","","","","","","","","","","","",""
"html-keyboard-response","230","398074","0.0-5.0-5.0-3.13","69d5525ec7afcfce08d8608b","not_provided","desktop","0","0","1","","","","","","working_memory","","1606","<img class='d' src=images/squares/yellow.png><div class=""fixation"">+</div>","s","","","test_squares","exp","13","4","s","true","sk","s","","","","","","",""
"html-keyboard-response","231","398588","0.0-5.0-5.0-4.13","69d5525ec7afcfce08d8608b","not_provided","desktop","0","0","1","","","","","","working_memory","","null","<div class=""fixation"">Correct</div>","null","","","","","","","","","","","","","","","","",""
"html-keyboard-response","232","399593","0.0-5.0-5.0-0.14","69d5525ec7afcfce08d8608b","not_provided","desktop","0","0","1","","","","","","working_memory","","null","<div class=""fixation"">+</div>","null","","","","","","","","","","","","","","","","",""
"html-keyboard-response","233","399808","0.0-5.0-5.0-1.14","69d5525ec7afcfce08d8608b","not_provided","desktop","0","0","1","","","","","","working_memory","","null","<img class='c' src=images/squares/cyan.png><img class='d' src=images/squares/blue.png><img class='g' src=images/squares/black.png><img class='l' src=images/squares/magenta.png><div class=""fixation"">+</div>","null","","","memory","exp","14","","","","","","","","","","","",""
"html-keyboard-response","234","400712","0.0-5.0-5.0-2.14","69d5525ec7afcfce08d8608b","not_provided","desktop","0","0","1","","","","","","working_memory","","null","<div class=""fixation"">+</div>","null","","","","","","","","","","","","","","","","",""
"html-keyboard-response","235","402151","0.0-5.0-5.0-3.14","69d5525ec7afcfce08d8608b","not_provided","desktop","0","0","1","","","","","","working_memory","","1438","<img class='g' src=images/squares/orange.png><div class=""fixation"">+</div>","k","","","test_squares","exp","14","4","k","true","sk","d","","","","","","",""
"html-keyboard-response","236","402655","0.0-5.0-5.0-4.14","69d5525ec7afcfce08d8608b","not_provided","desktop","0","0","1","","","","","","working_memory","","null","<div class=""fixation"">Correct</div>","null","","","","","","","","","","","","","","","","",""
"html-keyboard-response","237","403670","0.0-5.0-5.0-0.15","69d5525ec7afcfce08d8608b","not_provided","desktop","0","0","1","","","","","","working_memory","","null","<div class=""fixation"">+</div>","null","","","","","","","","","","","","","","","","",""
"html-keyboard-response","238","403874","0.0-5.0-5.0-1.15","69d5525ec7afcfce08d8608b","not_provided","desktop","0","0","1","","","","","","working_memory","","null","<img class='a' src=images/squares/magenta.png><img class='d' src=images/squares/green.png><img class='h' src=images/squares/blue.png><img class='l' src=images/squares/black.png><div class=""fixation"">+</div>","null","","","memory","exp","15","","","","","","","","","","","",""
"html-keyboard-response","239","404777","0.0-5.0-5.0-2.15","69d5525ec7afcfce08d8608b","not_provided","desktop","0","0","1","","","","","","working_memory","","null","<div class=""fixation"">+</div>","null","","","","","","","","","","","","","","","","",""
"html-keyboard-response","240","406090","0.0-5.0-5.0-3.15","69d5525ec7afcfce08d8608b","not_provided","desktop","0","0","1","","","","","","working_memory","","1312","<img class='l' src=images/squares/black.png><div class=""fixation"">+</div>","s","","","test_squares","exp","15","4","s","true","sk","s","","","","","","",""
"html-keyboard-response","241","406604","0.0-5.0-5.0-4.15","69d5525ec7afcfce08d8608b","not_provided","desktop","0","0","1","","","","","","working_memory","","null","<div class=""fixation"">Correct</div>","null","","","","","","","","","","","","","","","","",""
"html-keyboard-response","242","407620","0.0-5.0-5.0-0.16","69d5525ec7afcfce08d8608b","not_provided","desktop","0","0","1","","","","","","working_memory","","null","<div class=""fixation"">+</div>","null","","","","","","","","","","","","","","","","",""
"html-keyboard-response","243","407823","0.0-5.0-5.0-1.16","69d5525ec7afcfce08d8608b","not_provided","desktop","0","0","1","","","","","","working_memory","","null","<img class='a' src=images/squares/brown.png><img class='b' src=images/squares/magenta.png><img class='f' src=images/squares/cyan.png><img class='e' src=images/squares/green.png><img class='h' src=images/squares/blue.png><img class='g' src=images/squares/red.png><img class='l' src=images/squares/orange.png><img class='k' src=images/squares/black.png><div class=""fixation"">+</div>","null","","","memory","exp","16","","","","","","","","","","","",""
"html-keyboard-response","244","408726","0.0-5.0-5.0-2.16","69d5525ec7afcfce08d8608b","not_provided","desktop","0","0","1","","","","","","working_memory","","null","<div class=""fixation"">+</div>","null","","","","","","","","","","","","","","","","",""
"html-keyboard-response","245","410069","0.0-5.0-5.0-3.16","69d5525ec7afcfce08d8608b","not_provided","desktop","0","0","1","","","","","","working_memory","","1342","<img class='g' src=images/squares/red.png><div class=""fixation"">+</div>","k","","","test_squares","exp","16","8","s","false","sk","s","","","","","","",""
"html-keyboard-response","246","410584","0.0-5.0-5.0-4.16","69d5525ec7afcfce08d8608b","not_provided","desktop","0","0","1","","","","","","working_memory","","null","<div class=""fixation"">Incorrect</div>","null","","","","","","","","","","","","","","","","",""
"html-keyboard-response","247","411586","0.0-5.0-5.0-0.17","69d5525ec7afcfce08d8608b","not_provided","desktop","0","0","1","","","","","","working_memory","","null","<div class=""fixation"">+</div>","null","","","","","","","","","","","","","","","","",""
"html-keyboard-response","248","411790","0.0-5.0-5.0-1.17","69d5525ec7afcfce08d8608b","not_provided","desktop","0","0","1","","","","","","working_memory","","null","<img class='b' src=images/squares/black.png><img class='e' src=images/squares/blue.png><img class='h' src=images/squares/yellow.png><img class='k' src=images/squares/orange.png><div class=""fixation"">+</div>","null","","","memory","exp","17","","","","","","","","","","","",""
"html-keyboard-response","249","412692","0.0-5.0-5.0-2.17","69d5525ec7afcfce08d8608b","not_provided","desktop","0","0","1","","","","","","working_memory","","null","<div class=""fixation"">+</div>","null","","","","","","","","","","","","","","","","",""
"html-keyboard-response","250","414040","0.0-5.0-5.0-3.17","69d5525ec7afcfce08d8608b","not_provided","desktop","0","0","1","","","","","","working_memory","","1346","<img class='e' src=images/squares/brown.png><div class=""fixation"">+</div>","k","","","test_squares","exp","17","4","k","true","sk","d","","","","","","",""
"html-keyboard-response","251","414551","0.0-5.0-5.0-4.17","69d5525ec7afcfce08d8608b","not_provided","desktop","0","0","1","","","","","","working_memory","","null","<div class=""fixation"">Correct</div>","null","","","","","","","","","","","","","","","","",""
"html-keyboard-response","252","415552","0.0-5.0-5.0-0.18","69d5525ec7afcfce08d8608b","not_provided","desktop","0","0","1","","","","","","working_memory","","null","<div class=""fixation"">+</div>","null","","","","","","","","","","","","","","","","",""
"html-keyboard-response","253","415755","0.0-5.0-5.0-1.18","69d5525ec7afcfce08d8608b","not_provided","desktop","0","0","1","","","","","","working_memory","","null","<img class='b' src=images/squares/cyan.png><img class='e' src=images/squares/black.png><img class='i' src=images/squares/orange.png><img class='j' src=images/squares/magenta.png><div class=""fixation"">+</div>","null","","","memory","exp","18","","","","","","","","","","","",""
"html-keyboard-response","254","416658","0.0-5.0-5.0-2.18","69d5525ec7afcfce08d8608b","not_provided","desktop","0","0","1","","","","","","working_memory","","null","<div class=""fixation"">+</div>","null","","","","","","","","","","","","","","","","",""
"html-keyboard-response","255","418114","0.0-5.0-5.0-3.18","69d5525ec7afcfce08d8608b","not_provided","desktop","0","0","1","","","","","","working_memory","","1455","<img class='b' src=images/squares/blue.png><div class=""fixation"">+</div>","k","","","test_squares","exp","18","4","k","true","sk","d","","","","","","",""
"html-keyboard-response","256","418618","0.0-5.0-5.0-4.18","69d5525ec7afcfce08d8608b","not_provided","desktop","0","0","1","","","","","","working_memory","","null","<div class=""fixation"">Correct</div>","null","","","","","","","","","","","","","","","","",""
"html-keyboard-response","257","419634","0.0-5.0-5.0-0.19","69d5525ec7afcfce08d8608b","not_provided","desktop","0","0","1","","","","","","working_memory","","null","<div class=""fixation"">+</div>","null","","","","","","","","","","","","","","","","",""
"html-keyboard-response","258","419837","0.0-5.0-5.0-1.19","69d5525ec7afcfce08d8608b","not_provided","desktop","0","0","1","","","","","","working_memory","","null","<img class='c' src=images/squares/blue.png><img class='b' src=images/squares/cyan.png><img class='d' src=images/squares/green.png><img class='f' src=images/squares/orange.png><img class='g' src=images/squares/red.png><img class='i' src=images/squares/black.png><img class='k' src=images/squares/magenta.png><img class='l' src=images/squares/yellow.png><div class=""fixation"">+</div>","null","","","memory","exp","19","","","","","","","","","","","",""
"html-keyboard-response","259","420742","0.0-5.0-5.0-2.19","69d5525ec7afcfce08d8608b","not_provided","desktop","0","0","1","","","","","","working_memory","","null","<div class=""fixation"">+</div>","null","","","","","","","","","","","","","","","","",""
"html-keyboard-response","260","422673","0.0-5.0-5.0-3.19","69d5525ec7afcfce08d8608b","not_provided","desktop","0","0","1","","","","","","working_memory","","1931","<img class='f' src=images/squares/orange.png><div class=""fixation"">+</div>","s","","","test_squares","exp","19","8","s","true","sk","s","","","","","","",""
"html-keyboard-response","261","423182","0.0-5.0-5.0-4.19","69d5525ec7afcfce08d8608b","not_provided","desktop","0","0","1","","","","","","working_memory","","null","<div class=""fixation"">Correct</div>","null","","","","","","","","","","","","","","","","",""
"html-keyboard-response","262","424199","0.0-5.0-5.0-0.20","69d5525ec7afcfce08d8608b","not_provided","desktop","0","0","1","","","","","","working_memory","","null","<div class=""fixation"">+</div>","null","","","","","","","","","","","","","","","","",""
"html-keyboard-response","263","424403","0.0-5.0-5.0-1.20","69d5525ec7afcfce08d8608b","not_provided","desktop","0","0","1","","","","","","working_memory","","null","<img class='a' src=images/squares/blue.png><img class='f' src=images/squares/brown.png><img class='h' src=images/squares/red.png><img class='j' src=images/squares/green.png><div class=""fixation"">+</div>","null","","","memory","exp","20","","","","","","","","","","","",""
"html-keyboard-response","264","425307","0.0-5.0-5.0-2.20","69d5525ec7afcfce08d8608b","not_provided","desktop","0","0","1","","","","","","working_memory","","null","<div class=""fixation"">+</div>","null","","","","","","","","","","","","","","","","",""
"html-keyboard-response","265","426598","0.0-5.0-5.0-3.20","69d5525ec7afcfce08d8608b","not_provided","desktop","0","0","1","","","","","","working_memory","","1290","<img class='a' src=images/squares/orange.png><div class=""fixation"">+</div>","k","","","test_squares","exp","20","4","k","true","sk","d","","","","","","",""
"html-keyboard-response","266","427100","0.0-5.0-5.0-4.20","69d5525ec7afcfce08d8608b","not_provided","desktop","0","0","1","","","","","","working_memory","","null","<div class=""fixation"">Correct</div>","null","","","","","","","","","","","","","","","","",""
"html-keyboard-response","267","428115","0.0-5.0-5.0-0.21","69d5525ec7afcfce08d8608b","not_provided","desktop","0","0","1","","","","","","working_memory","","null","<div class=""fixation"">+</div>","null","","","","","","","","","","","","","","","","",""
"html-keyboard-response","268","428320","0.0-5.0-5.0-1.21","69d5525ec7afcfce08d8608b","not_provided","desktop","0","0","1","","","","","","working_memory","","null","<img class='b' src=images/squares/red.png><img class='a' src=images/squares/green.png><img class='f' src=images/squares/yellow.png><img class='d' src=images/squares/brown.png><img class='g' src=images/squares/magenta.png><img class='h' src=images/squares/blue.png><img class='k' src=images/squares/black.png><img class='j' src=images/squares/cyan.png><div class=""fixation"">+</div>","null","","","memory","exp","21","","","","","","","","","","","",""
"html-keyboard-response","269","429222","0.0-5.0-5.0-2.21","69d5525ec7afcfce08d8608b","not_provided","desktop","0","0","1","","","","","","working_memory","","null","<div class=""fixation"">+</div>","null","","","","","","","","","","","","","","","","",""
"html-keyboard-response","270","430974","0.0-5.0-5.0-3.21","69d5525ec7afcfce08d8608b","not_provided","desktop","0","0","1","","","","","","working_memory","","1750","<img class='d' src=images/squares/orange.png><div class=""fixation"">+</div>","s","","","test_squares","exp","21","8","k","false","sk","d","","","","","","",""
"html-keyboard-response","271","431483","0.0-5.0-5.0-4.21","69d5525ec7afcfce08d8608b","not_provided","desktop","0","0","1","","","","","","working_memory","","null","<div class=""fixation"">Incorrect</div>","null","","","","","","","","","","","","","","","","",""
"html-keyboard-response","272","432497","0.0-5.0-5.0-0.22","69d5525ec7afcfce08d8608b","not_provided","desktop","0","0","1","","","","","","working_memory","","null","<div class=""fixation"">+</div>","null","","","","","","","","","","","","","","","","",""
"html-keyboard-response","273","432702","0.0-5.0-5.0-1.22","69d5525ec7afcfce08d8608b","not_provided","desktop","0","0","1","","","","","","working_memory","","null","<img class='c' src=images/squares/blue.png><img class='b' src=images/squares/red.png><img class='f' src=images/squares/black.png><img class='d' src=images/squares/brown.png><img class='i' src=images/squares/green.png><img class='g' src=images/squares/magenta.png><img class='l' src=images/squares/orange.png><img class='j' src=images/squares/cyan.png><div class=""fixation"">+</div>","null","","","memory","exp","22","","","","","","","","","","","",""
"html-keyboard-response","274","433605","0.0-5.0-5.0-2.22","69d5525ec7afcfce08d8608b","not_provided","desktop","0","0","1","","","","","","working_memory","","null","<div class=""fixation"">+</div>","null","","","","","","","","","","","","","","","","",""
"html-keyboard-response","275","434734","0.0-5.0-5.0-3.22","69d5525ec7afcfce08d8608b","not_provided","desktop","0","0","1","","","","","","working_memory","","1128","<img class='j' src=images/squares/cyan.png><div class=""fixation"">+</div>","k","","","test_squares","exp","22","8","s","false","sk","s","","","","","","",""
"html-keyboard-response","276","435248","0.0-5.0-5.0-4.22","69d5525ec7afcfce08d8608b","not_provided","desktop","0","0","1","","","","","","working_memory","","null","<div class=""fixation"">Incorrect</div>","null","","","","","","","","","","","","","","","","",""
"html-keyboard-response","277","436249","0.0-5.0-5.0-0.23","69d5525ec7afcfce08d8608b","not_provided","desktop","0","0","1","","","","","","working_memory","","null","<div class=""fixation"">+</div>","null","","","","","","","","","","","","","","","","",""
"html-keyboard-response","278","436451","0.0-5.0-5.0-1.23","69d5525ec7afcfce08d8608b","not_provided","desktop","0","0","1","","","","","","working_memory","","null","<img class='c' src=images/squares/green.png><img class='a' src=images/squares/red.png><img class='d' src=images/squares/blue.png><img class='e' src=images/squares/orange.png><img class='i' src=images/squares/brown.png><img class='h' src=images/squares/cyan.png><img class='k' src=images/squares/yellow.png><img class='l' src=images/squares/black.png><div class=""fixation"">+</div>","null","","","memory","exp","23","","","","","","","","","","","",""
"html-keyboard-response","279","437354","0.0-5.0-5.0-2.23","69d5525ec7afcfce08d8608b","not_provided","desktop","0","0","1","","","","","","working_memory","","null","<div class=""fixation"">+</div>","null","","","","","","","","","","","","","","","","",""
"html-keyboard-response","280","438501","0.0-5.0-5.0-3.23","69d5525ec7afcfce08d8608b","not_provided","desktop","0","0","1","","","","","","working_memory","","1145","<img class='e' src=images/squares/magenta.png><div class=""fixation"">+</div>","s","","","test_squares","exp","23","8","k","false","sk","d","","","","","","",""
"html-keyboard-response","281","439013","0.0-5.0-5.0-4.23","69d5525ec7afcfce08d8608b","not_provided","desktop","0","0","1","","","","","","working_memory","","null","<div class=""fixation"">Incorrect</div>","null","","","","","","","","","","","","","","","","",""
"html-keyboard-response","282","440015","0.0-5.0-5.0-0.24","69d5525ec7afcfce08d8608b","not_provided","desktop","0","0","1","","","","","","working_memory","","null","<div class=""fixation"">+</div>","null","","","","","","","","","","","","","","","","",""
"html-keyboard-response","283","440217","0.0-5.0-5.0-1.24","69d5525ec7afcfce08d8608b","not_provided","desktop","0","0","1","","","","","","working_memory","","null","<img class='a' src=images/squares/magenta.png><img class='c' src=images/squares/blue.png><img class='f' src=images/squares/brown.png><img class='e' src=images/squares/yellow.png><img class='h' src=images/squares/orange.png><img class='g' src=images/squares/red.png><img class='j' src=images/squares/cyan.png><img class='k' src=images/squares/black.png><div class=""fixation"">+</div>","null","","","memory","exp","24","","","","","","","","","","","",""
"html-keyboard-response","284","441120","0.0-5.0-5.0-2.24","69d5525ec7afcfce08d8608b","not_provided","desktop","0","0","1","","","","","","working_memory","","null","<div class=""fixation"">+</div>","null","","","","","","","","","","","","","","","","",""
"html-keyboard-response","285","442130","0.0-5.0-5.0-3.24","69d5525ec7afcfce08d8608b","not_provided","desktop","0","0","1","","","","","","working_memory","","1008","<img class='f' src=images/squares/green.png><div class=""fixation"">+</div>","k","","","test_squares","exp","24","8","k","true","sk","d","","","","","","",""
"html-keyboard-response","286","442645","0.0-5.0-5.0-4.24","69d5525ec7afcfce08d8608b","not_provided","desktop","0","0","1","","","","","","working_memory","","null","<div class=""fixation"">Correct</div>","null","","","","","","","","","","","","","","","","",""
"html-keyboard-response","287","443646","0.0-5.0-5.0-0.25","69d5525ec7afcfce08d8608b","not_provided","desktop","0","0","1","","","","","","working_memory","","null","<div class=""fixation"">+</div>","null","","","","","","","","","","","","","","","","",""
"html-keyboard-response","288","443849","0.0-5.0-5.0-1.25","69d5525ec7afcfce08d8608b","not_provided","desktop","0","0","1","","","","","","working_memory","","null","<img class='b' src=images/squares/orange.png><img class='e' src=images/squares/red.png><img class='h' src=images/squares/brown.png><img class='j' src=images/squares/magenta.png><div class=""fixation"">+</div>","null","","","memory","exp","25","","","","","","","","","","","",""
"html-keyboard-response","289","444752","0.0-5.0-5.0-2.25","69d5525ec7afcfce08d8608b","not_provided","desktop","0","0","1","","","","","","working_memory","","null","<div class=""fixation"">+</div>","null","","","","","","","","","","","","","","","","",""
"html-keyboard-response","290","446193","0.0-5.0-5.0-3.25","69d5525ec7afcfce08d8608b","not_provided","desktop","0","0","1","","","","","","working_memory","","1439","<img class='b' src=images/squares/cyan.png><div class=""fixation"">+</div>","k","","","test_squares","exp","25","4","k","true","sk","d","","","","","","",""
"html-keyboard-response","291","446695","0.0-5.0-5.0-4.25","69d5525ec7afcfce08d8608b","not_provided","desktop","0","0","1","","","","","","working_memory","","null","<div class=""fixation"">Correct</div>","null","","","","","","","","","","","","","","","","",""
"html-keyboard-response","292","447697","0.0-5.0-5.0-0.26","69d5525ec7afcfce08d8608b","not_provided","desktop","0","0","1","","","","","","working_memory","","null","<div class=""fixation"">+</div>","null","","","","","","","","","","","","","","","","",""
"html-keyboard-response","293","447899","0.0-5.0-5.0-1.26","69d5525ec7afcfce08d8608b","not_provided","desktop","0","0","1","","","","","","working_memory","","null","<img class='c' src=images/squares/cyan.png><img class='e' src=images/squares/brown.png><img class='i' src=images/squares/black.png><img class='l' src=images/squares/yellow.png><div class=""fixation"">+</div>","null","","","memory","exp","26","","","","","","","","","","","",""
"html-keyboard-response","294","448802","0.0-5.0-5.0-2.26","69d5525ec7afcfce08d8608b","not_provided","desktop","0","0","1","","","","","","working_memory","","null","<div class=""fixation"">+</div>","null","","","","","","","","","","","","","","","","",""
"html-keyboard-response","295","449949","0.0-5.0-5.0-3.26","69d5525ec7afcfce08d8608b","not_provided","desktop","0","0","1","","","","","","working_memory","","1146","<img class='e' src=images/squares/green.png><div class=""fixation"">+</div>","k","","","test_squares","exp","26","4","k","true","sk","d","","","","","","",""
"html-keyboard-response","296","450461","0.0-5.0-5.0-4.26","69d5525ec7afcfce08d8608b","not_provided","desktop","0","0","1","","","","","","working_memory","","null","<div class=""fixation"">Correct</div>","null","","","","","","","","","","","","","","","","",""
"html-keyboard-response","297","451462","0.0-5.0-5.0-0.27","69d5525ec7afcfce08d8608b","not_provided","desktop","0","0","1","","","","","","working_memory","","null","<div class=""fixation"">+</div>","null","","","","","","","","","","","","","","","","",""
"html-keyboard-response","298","451680","0.0-5.0-5.0-1.27","69d5525ec7afcfce08d8608b","not_provided","desktop","0","0","1","","","","","","working_memory","","null","<img class='b' src=images/squares/yellow.png><img class='c' src=images/squares/green.png><img class='e' src=images/squares/blue.png><img class='d' src=images/squares/brown.png><img class='i' src=images/squares/orange.png><img class='g' src=images/squares/cyan.png><img class='l' src=images/squares/black.png><img class='k' src=images/squares/red.png><div class=""fixation"">+</div>","null","","","memory","exp","27","","","","","","","","","","","",""
"html-keyboard-response","299","452585","0.0-5.0-5.0-2.27","69d5525ec7afcfce08d8608b","not_provided","desktop","0","0","1","","","","","","working_memory","","null","<div class=""fixation"">+</div>","null","","","","","","","","","","","","","","","","",""
"html-keyboard-response","300","454314","0.0-5.0-5.0-3.27","69d5525ec7afcfce08d8608b","not_provided","desktop","0","0","1","","","","","","working_memory","","1727","<img class='k' src=images/squares/magenta.png><div class=""fixation"">+</div>","k","","","test_squares","exp","27","8","k","true","sk","d","","","","","","",""
"html-keyboard-response","301","454826","0.0-5.0-5.0-4.27","69d5525ec7afcfce08d8608b","not_provided","desktop","0","0","1","","","","","","working_memory","","null","<div class=""fixation"">Correct</div>","null","","","","","","","","","","","","","","","","",""
"html-keyboard-response","302","455827","0.0-5.0-5.0-0.28","69d5525ec7afcfce08d8608b","not_provided","desktop","0","0","1","","","","","","working_memory","","null","<div class=""fixation"">+</div>","null","","","","","","","","","","","","","","","","",""
"html-keyboard-response","303","456031","0.0-5.0-5.0-1.28","69d5525ec7afcfce08d8608b","not_provided","desktop","0","0","1","","","","","","working_memory","","null","<img class='b' src=images/squares/magenta.png><img class='a' src=images/squares/black.png><img class='d' src=images/squares/blue.png><img class='e' src=images/squares/red.png><img class='h' src=images/squares/cyan.png><img class='i' src=images/squares/brown.png><img class='l' src=images/squares/orange.png><img class='j' src=images/squares/yellow.png><div class=""fixation"">+</div>","null","","","memory","exp","28","","","","","","","","","","","",""
"html-keyboard-response","304","456933","0.0-5.0-5.0-2.28","69d5525ec7afcfce08d8608b","not_provided","desktop","0","0","1","","","","","","working_memory","","null","<div class=""fixation"">+</div>","null","","","","","","","","","","","","","","","","",""
