"trial_type","trial_index","time_elapsed","internal_node_id","subject_id","study_id","device_type","blur_count","fullscreen_exit_count","failed_attention_checks","success","timeout","failed_images","failed_audio","failed_video","phase","value","rt","stimulus","response","view_history","question_order","trial_name","block_type","trial_num","set_size","correct_response","accuracy","mapping","condition","prompt","flipped","attention","expected_answer","category","question_index","task"
"pavlovia","0","1814","0.0-0.0","69b3f02d28568b807f25aac7","not_provided","desktop","0","0","0","","","","","","","","","","","","","","","","","","","","","","","","","","",""
"preload","1","2245","0.0-2.0","69b3f02d28568b807f25aac7","not_provided","desktop","0","0","0","true","false","[]","[]","[]","","","","","","","","","","","","","","","","","","","","","",""
"html-keyboard-response","2","24571","0.0-3.0-0.0","69b3f02d28568b807f25aac7","not_provided","desktop","0","0","0","","","","","","captcha","","","","","","","","","","","","","","","","","","","","",""
"fullscreen","3","36654","0.0-4.0","69b3f02d28568b807f25aac7","not_provided","desktop","0","0","0","true","","","","","setup","","","","","","","","","","","","","","","","","","","","",""
"call-function","4","36655","0.0-5.0-0.0","69b3f02d28568b807f25aac7","not_provided","desktop","0","0","0","","","","","","working_memory","","","","","","","","","","","","","","","","","","","","",""
"html-keyboard-response","5","55029","0.0-5.0-1.0","69b3f02d28568b807f25aac7","not_provided","desktop","1","1","0","","","","","","working_memory","","18374","<div style=""text-align:center;font-family:sans-serif;""><p>Welcome to the luck game experiment!</p><p>This two-day experiment takes part in a study aimed at developing better clinical treatments.</p><p>We appreciate your participation and require your full concentration.</p><br><p>This is a two-day study. Payment (£6/hour) is only given upon completing both parts today and tomorrow.</p><p>You must finish the second part for compensation. After today, you'll receive an invitation for tomorrow's session.</p><p>Please ensure you can attend both sessions before proceeding. Otherwise, you may exit now.</p><p>If you have any questions, please contact us via prolific.</p><br><p>Please stay attentive and in fullscreen mode to ensure payment.</p><p>Thank you for participating!</p><br><p id=""continue-prompt"" style=""visibility:hidden;""><b>Press any key to continue.</b></p></div>","f11","","","","","","","","","","","","","","","","",""
"instructions","6","219304","0.0-5.0-2.0-0.0","69b3f02d28568b807f25aac7","not_provided","desktop","7","1","0","","","","","","working_memory","","164274","","","[{""page_index"":0,""viewing_time"":2525},{""page_index"":1,""viewing_time"":2637},{""page_index"":2,""viewing_time"":59222},{""page_index"":3,""viewing_time"":6802},{""page_index"":4,""viewing_time"":8419},{""page_index"":5,""viewing_time"":18673},{""page_index"":6,""viewing_time"":31673},{""page_index"":7,""viewing_time"":12737},{""page_index"":8,""viewing_time"":15059},{""page_index"":7,""viewing_time"":1528},{""page_index"":6,""viewing_time"":2170},{""page_index"":7,""viewing_time"":555},{""page_index"":8,""viewing_time"":2277}]","","","","","","","","","","","","","","","",""
"survey-multi-choice","7","277866","0.0-5.0-2.0-1.0","69b3f02d28568b807f25aac7","not_provided","desktop","7","1","0","","","","","","working_memory","","58560","","{""set_size"":""2 or 4"",""steps"":""True"",""choose_square"":""Press the 's' or 'k' key."",""remember"":""The colors and locations of the 'memory' squares"",""task"":""To tell if the 'test' square is in the same color as the square previously appearing in this location""}","","[0,1,2,3,4]","test_squares_quiz","","","","","","","","","","","","","",""
"html-button-response","8","282267","0.0-5.0-2.0-2.0-0.0","69b3f02d28568b807f25aac7","not_provided","desktop","7","1","0","","","","","","working_memory","","4399","<p>Sorry, you made a mistake on the quiz.<br>Let's go back to the instructions &mdash; please read carefully before submitting again.<br>Thank you!</p>","0","","","","","","","","","","","","","","","","",""
"instructions","9","350256","0.0-5.0-2.1-0.1","69b3f02d28568b807f25aac7","not_provided","desktop","7","1","0","","","","","","working_memory","","67989","","","[{""page_index"":0,""viewing_time"":2703},{""page_index"":1,""viewing_time"":2108},{""page_index"":2,""viewing_time"":20355},{""page_index"":3,""viewing_time"":2562},{""page_index"":4,""viewing_time"":7972},{""page_index"":5,""viewing_time"":16751},{""page_index"":6,""viewing_time"":13138},{""page_index"":7,""viewing_time"":1421},{""page_index"":8,""viewing_time"":980}]","","","","","","","","","","","","","","","",""
"survey-multi-choice","10","375482","0.0-5.0-2.1-1.1","69b3f02d28568b807f25aac7","not_provided","desktop","7","1","0","","","","","","working_memory","","25223","","{""set_size"":""4 or 8"",""steps"":""True"",""choose_square"":""Press the 's' or 'k' key."",""remember"":""The color and location of the single 'test' square"",""task"":""To tell if the 'test' square is in the same color as the square previously appearing in this location""}","","[0,1,2,3,4]","test_squares_quiz","","","","","","","","","","","","","",""
"html-button-response","11","377014","0.0-5.0-2.1-2.1-0.1","69b3f02d28568b807f25aac7","not_provided","desktop","7","1","0","","","","","","working_memory","","1530","<p>Sorry, you made a mistake on the quiz.<br>Let's go back to the instructions &mdash; please read carefully before submitting again.<br>Thank you!</p>","0","","","","","","","","","","","","","","","","",""
"instructions","12","381509","0.0-5.0-2.2-0.2","69b3f02d28568b807f25aac7","not_provided","desktop","7","1","0","","","","","","working_memory","","4494","","","[{""page_index"":0,""viewing_time"":671},{""page_index"":1,""viewing_time"":450},{""page_index"":2,""viewing_time"":420},{""page_index"":3,""viewing_time"":393},{""page_index"":4,""viewing_time"":948},{""page_index"":5,""viewing_time"":274},{""page_index"":6,""viewing_time"":164},{""page_index"":7,""viewing_time"":446},{""page_index"":8,""viewing_time"":728}]","","","","","","","","","","","","","","","",""
"survey-multi-choice","13","393968","0.0-5.0-2.2-1.2","69b3f02d28568b807f25aac7","not_provided","desktop","7","1","0","","","","","","working_memory","","12457","","{""set_size"":""4 or 8"",""steps"":""False"",""choose_square"":""Press the 's' or 'k' key."",""remember"":""The colors and locations of the 'memory' squares"",""task"":""To tell if the 'test' square is in the same color as the square previously appearing in this location""}","","[0,1,2,3,4]","test_squares_quiz","","","","","","","","","","","","","",""
"html-button-response","14","394936","0.0-5.0-2.2-2.2-0.2","69b3f02d28568b807f25aac7","not_provided","desktop","7","1","0","","","","","","working_memory","","966","<p>Sorry, you made a mistake on the quiz.<br>Let's go back to the instructions &mdash; please read carefully before submitting again.<br>Thank you!</p>","0","","","","","","","","","","","","","","","","",""
"instructions","15","420539","0.0-5.0-2.3-0.3","69b3f02d28568b807f25aac7","not_provided","desktop","7","1","0","","","","","","working_memory","","25603","","","[{""page_index"":0,""viewing_time"":732},{""page_index"":1,""viewing_time"":681},{""page_index"":2,""viewing_time"":931},{""page_index"":3,""viewing_time"":861},{""page_index"":4,""viewing_time"":3099},{""page_index"":5,""viewing_time"":3936},{""page_index"":6,""viewing_time"":13250},{""page_index"":7,""viewing_time"":861},{""page_index"":8,""viewing_time"":1252}]","","","","","","","","","","","","","","","",""
"survey-multi-choice","16","457283","0.0-5.0-2.3-1.3","69b3f02d28568b807f25aac7","not_provided","desktop","7","1","0","","","","","","working_memory","","36742","","{""set_size"":""4 or 8"",""steps"":""True"",""choose_square"":""Press the 's' or 'k' key."",""remember"":""The colors and locations of the 'memory' squares"",""task"":""To tell if the 'test' square is in the same color as the square previously appearing in this location""}","","[0,1,2,3,4]","test_squares_quiz","","","","","","","","","","","","","",""
"html-keyboard-response","17","470404","0.0-5.0-3.0-0.0","69b3f02d28568b807f25aac7","not_provided","desktop","7","1","0","","","","","","working_memory","","13121","<p>We will now start some practice trials.<br><b>The practice trials will also include some trials in which you will need to remember only one square to make sure you understood the instructions.</b><br>You may already want to be ready with your fingers on '<b>s</b>' and '<b>k</b>'.<br><img class=""wm-example-img"" src=""images/examples/keyboard.png""><br><b style=""font-size:1.2em;"">&lsquo;S&rsquo; = SAME &nbsp;&nbsp;&nbsp; &lsquo;K&rsquo; = DIFFERENT</b><br><br><u>Please try to be as accurate as possible.</u><br><br><b>Press any key to begin</b></p>","enter","","","","","","","","","","","","","","","","",""
"html-keyboard-response","18","472409","0.0-5.0-3.0-1.0-0.0","69b3f02d28568b807f25aac7","not_provided","desktop","7","1","0","","","","","","working_memory","","null","<div class=""fixation"">+</div>","null","","","","","","","","","","","","","","","","",""
"html-keyboard-response","19","472611","0.0-5.0-3.0-1.0-1.0","69b3f02d28568b807f25aac7","not_provided","desktop","7","1","0","","","","","","working_memory","","null","<img class='lower1' src=images/squares/brown.png><div class=""fixation"">+</div>","null","","","memory","practice","0","1","","","","","","","","","","",""
"html-keyboard-response","20","473513","0.0-5.0-3.0-1.0-2.0","69b3f02d28568b807f25aac7","not_provided","desktop","7","1","0","","","","","","working_memory","","null","<div class=""fixation"">+</div>","null","","","","","","","","","","","","","","","","",""
"html-keyboard-response","21","476828","0.0-5.0-3.0-1.0-3.0","69b3f02d28568b807f25aac7","not_provided","desktop","7","1","0","","","","","","working_memory","","3314","<img class='lower1' src=images/squares/orange.png><div class=""fixation"">+</div>","k","","","test","practice","0","1","k","true","","","","","","","","",""
"html-keyboard-response","22","477329","0.0-5.0-3.0-1.0-4.0","69b3f02d28568b807f25aac7","not_provided","desktop","7","1","0","","","","","","working_memory","","null","<div class=""fixation"">Correct</div>","null","","","","","","","","","","","","","","","","",""
"html-keyboard-response","23","478331","0.0-5.0-3.0-1.0-0.1","69b3f02d28568b807f25aac7","not_provided","desktop","7","1","0","","","","","","working_memory","","null","<div class=""fixation"">+</div>","null","","","","","","","","","","","","","","","","",""
"html-keyboard-response","24","478533","0.0-5.0-3.0-1.0-1.1","69b3f02d28568b807f25aac7","not_provided","desktop","7","1","0","","","","","","working_memory","","null","<img class='c' src=images/squares/cyan.png><img class='a' src=images/squares/blue.png><img class='e' src=images/squares/yellow.png><img class='f' src=images/squares/black.png><img class='h' src=images/squares/brown.png><img class='i' src=images/squares/orange.png><img class='k' src=images/squares/green.png><img class='l' src=images/squares/magenta.png><div class=""fixation"">+</div>","null","","","memory","practice","1","8","","","","","","","","","","",""
"html-keyboard-response","25","479435","0.0-5.0-3.0-1.0-2.1","69b3f02d28568b807f25aac7","not_provided","desktop","7","1","0","","","","","","working_memory","","null","<div class=""fixation"">+</div>","null","","","","","","","","","","","","","","","","",""
"html-keyboard-response","26","482267","0.0-5.0-3.0-1.0-3.1","69b3f02d28568b807f25aac7","not_provided","desktop","7","1","0","","","","","","working_memory","","2832","<img class='e' src=images/squares/red.png><div class=""fixation"">+</div>","k","","","test","practice","1","8","k","true","","","","","","","","",""
"html-keyboard-response","27","482769","0.0-5.0-3.0-1.0-4.1","69b3f02d28568b807f25aac7","not_provided","desktop","7","1","0","","","","","","working_memory","","null","<div class=""fixation"">Correct</div>","null","","","","","","","","","","","","","","","","",""
"html-keyboard-response","28","483771","0.0-5.0-3.0-1.0-0.2","69b3f02d28568b807f25aac7","not_provided","desktop","7","1","0","","","","","","working_memory","","null","<div class=""fixation"">+</div>","null","","","","","","","","","","","","","","","","",""
"html-keyboard-response","29","483973","0.0-5.0-3.0-1.0-1.2","69b3f02d28568b807f25aac7","not_provided","desktop","7","1","0","","","","","","working_memory","","null","<img class='lower1' src=images/squares/brown.png><div class=""fixation"">+</div>","null","","","memory","practice","2","1","","","","","","","","","","",""
"html-keyboard-response","30","484875","0.0-5.0-3.0-1.0-2.2","69b3f02d28568b807f25aac7","not_provided","desktop","7","1","0","","","","","","working_memory","","null","<div class=""fixation"">+</div>","null","","","","","","","","","","","","","","","","",""
"html-keyboard-response","31","490876","0.0-5.0-3.0-1.0-3.2","69b3f02d28568b807f25aac7","not_provided","desktop","7","1","0","","","","","","working_memory","","null","<img class='lower1' src=images/squares/brown.png><div class=""fixation"">+</div>","null","","","test","practice","2","1","s","null","","","","","","","","",""
"html-keyboard-response","32","491378","0.0-5.0-3.0-1.0-4.2","69b3f02d28568b807f25aac7","not_provided","desktop","7","1","0","","","","","","working_memory","","null","<div class=""fixation"">Please respond faster</div>","null","","","","","","","","","","","","","","","","",""
"html-keyboard-response","33","492380","0.0-5.0-3.0-1.0-0.3","69b3f02d28568b807f25aac7","not_provided","desktop","7","1","0","","","","","","working_memory","","null","<div class=""fixation"">+</div>","null","","","","","","","","","","","","","","","","",""
"html-keyboard-response","34","492581","0.0-5.0-3.0-1.0-1.3","69b3f02d28568b807f25aac7","not_provided","desktop","7","1","0","","","","","","working_memory","","null","<img class='upper3' src=images/squares/black.png><div class=""fixation"">+</div>","null","","","memory","practice","3","1","","","","","","","","","","",""
"html-keyboard-response","35","493482","0.0-5.0-3.0-1.0-2.3","69b3f02d28568b807f25aac7","not_provided","desktop","7","1","0","","","","","","working_memory","","null","<div class=""fixation"">+</div>","null","","","","","","","","","","","","","","","","",""
"html-keyboard-response","36","494676","0.0-5.0-3.0-1.0-3.3","69b3f02d28568b807f25aac7","not_provided","desktop","7","1","0","","","","","","working_memory","","1193","<img class='upper3' src=images/squares/blue.png><div class=""fixation"">+</div>","k","","","test","practice","3","1","k","true","","","","","","","","",""
"html-keyboard-response","37","495176","0.0-5.0-3.0-1.0-4.3","69b3f02d28568b807f25aac7","not_provided","desktop","7","1","0","","","","","","working_memory","","null","<div class=""fixation"">Correct</div>","null","","","","","","","","","","","","","","","","",""
"html-keyboard-response","38","496177","0.0-5.0-3.0-1.0-0.4","69b3f02d28568b807f25aac7","not_provided","desktop","7","1","0","","","","","","working_memory","","null","<div class=""fixation"">+</div>","null","","","","","","","","","","","","","","","","",""
"html-keyboard-response","39","496379","0.0-5.0-3.0-1.0-1.4","69b3f02d28568b807f25aac7","not_provided","desktop","7","1","0","","","","","","working_memory","","null","<img class='a' src=images/squares/orange.png><img class='b' src=images/squares/cyan.png><img class='d' src=images/squares/red.png><img class='f' src=images/squares/black.png><img class='h' src=images/squares/green.png><img class='i' src=images/squares/blue.png><img class='j' src=images/squares/yellow.png><img class='l' src=images/squares/brown.png><div class=""fixation"">+</div>","null","","","memory","practice","4","8","","","","","","","","","","",""
"html-keyboard-response","40","497280","0.0-5.0-3.0-1.0-2.4","69b3f02d28568b807f25aac7","not_provided","desktop","7","1","0","","","","","","working_memory","","null","<div class=""fixation"">+</div>","null","","","","","","","","","","","","","","","","",""
"html-keyboard-response","41","499014","0.0-5.0-3.0-1.0-3.4","69b3f02d28568b807f25aac7","not_provided","desktop","7","1","0","","","","","","working_memory","","1733","<img class='l' src=images/squares/brown.png><div class=""fixation"">+</div>","k","","","test","practice","4","8","s","false","","","","","","","","",""
"html-keyboard-response","42","499515","0.0-5.0-3.0-1.0-4.4","69b3f02d28568b807f25aac7","not_provided","desktop","7","1","0","","","","","","working_memory","","null","<div class=""fixation"">Incorrect</div>","null","","","","","","","","","","","","","","","","",""
"html-keyboard-response","43","500516","0.0-5.0-3.0-1.0-0.5","69b3f02d28568b807f25aac7","not_provided","desktop","7","1","0","","","","","","working_memory","","null","<div class=""fixation"">+</div>","null","","","","","","","","","","","","","","","","",""
"html-keyboard-response","44","500718","0.0-5.0-3.0-1.0-1.5","69b3f02d28568b807f25aac7","not_provided","desktop","7","1","0","","","","","","working_memory","","null","<img class='upper3' src=images/squares/orange.png><div class=""fixation"">+</div>","null","","","memory","practice","5","1","","","","","","","","","","",""
"html-keyboard-response","45","501619","0.0-5.0-3.0-1.0-2.5","69b3f02d28568b807f25aac7","not_provided","desktop","7","1","0","","","","","","working_memory","","null","<div class=""fixation"">+</div>","null","","","","","","","","","","","","","","","","",""
"html-keyboard-response","46","502564","0.0-5.0-3.0-1.0-3.5","69b3f02d28568b807f25aac7","not_provided","desktop","7","1","0","","","","","","working_memory","","944","<img class='upper3' src=images/squares/orange.png><div class=""fixation"">+</div>","s","","","test","practice","5","1","s","true","","","","","","","","",""
"html-keyboard-response","47","503065","0.0-5.0-3.0-1.0-4.5","69b3f02d28568b807f25aac7","not_provided","desktop","7","1","0","","","","","","working_memory","","null","<div class=""fixation"">Correct</div>","null","","","","","","","","","","","","","","","","",""
"html-keyboard-response","48","504066","0.0-5.0-3.0-1.0-0.6","69b3f02d28568b807f25aac7","not_provided","desktop","7","1","0","","","","","","working_memory","","null","<div class=""fixation"">+</div>","null","","","","","","","","","","","","","","","","",""
"html-keyboard-response","49","504267","0.0-5.0-3.0-1.0-1.6","69b3f02d28568b807f25aac7","not_provided","desktop","7","1","0","","","","","","working_memory","","null","<img class='c' src=images/squares/magenta.png><img class='a' src=images/squares/yellow.png><img class='d' src=images/squares/red.png><img class='e' src=images/squares/cyan.png><img class='i' src=images/squares/green.png><img class='h' src=images/squares/orange.png><img class='j' src=images/squares/black.png><img class='l' src=images/squares/brown.png><div class=""fixation"">+</div>","null","","","memory","practice","6","8","","","","","","","","","","",""
"html-keyboard-response","50","505169","0.0-5.0-3.0-1.0-2.6","69b3f02d28568b807f25aac7","not_provided","desktop","7","1","0","","","","","","working_memory","","null","<div class=""fixation"">+</div>","null","","","","","","","","","","","","","","","","",""
"html-keyboard-response","51","506373","0.0-5.0-3.0-1.0-3.6","69b3f02d28568b807f25aac7","not_provided","desktop","7","1","0","","","","","","working_memory","","1204","<img class='a' src=images/squares/blue.png><div class=""fixation"">+</div>","k","","","test","practice","6","8","k","true","","","","","","","","",""
"html-keyboard-response","52","506874","0.0-5.0-3.0-1.0-4.6","69b3f02d28568b807f25aac7","not_provided","desktop","7","1","0","","","","","","working_memory","","null","<div class=""fixation"">Correct</div>","null","","","","","","","","","","","","","","","","",""
"html-keyboard-response","53","507876","0.0-5.0-3.0-1.0-0.7","69b3f02d28568b807f25aac7","not_provided","desktop","7","1","0","","","","","","working_memory","","null","<div class=""fixation"">+</div>","null","","","","","","","","","","","","","","","","",""
"html-keyboard-response","54","508078","0.0-5.0-3.0-1.0-1.7","69b3f02d28568b807f25aac7","not_provided","desktop","7","1","0","","","","","","working_memory","","null","<img class='upper3' src=images/squares/blue.png><div class=""fixation"">+</div>","null","","","memory","practice","7","1","","","","","","","","","","",""
"html-keyboard-response","55","508979","0.0-5.0-3.0-1.0-2.7","69b3f02d28568b807f25aac7","not_provided","desktop","7","1","0","","","","","","working_memory","","null","<div class=""fixation"">+</div>","null","","","","","","","","","","","","","","","","",""
"html-keyboard-response","56","510620","0.0-5.0-3.0-1.0-3.7","69b3f02d28568b807f25aac7","not_provided","desktop","7","1","0","","","","","","working_memory","","1641","<img class='upper3' src=images/squares/blue.png><div class=""fixation"">+</div>","s","","","test","practice","7","1","s","true","","","","","","","","",""
"html-keyboard-response","57","511122","0.0-5.0-3.0-1.0-4.7","69b3f02d28568b807f25aac7","not_provided","desktop","7","1","0","","","","","","working_memory","","null","<div class=""fixation"">Correct</div>","null","","","","","","","","","","","","","","","","",""
"html-keyboard-response","58","512123","0.0-5.0-3.0-1.0-0.8","69b3f02d28568b807f25aac7","not_provided","desktop","7","1","0","","","","","","working_memory","","null","<div class=""fixation"">+</div>","null","","","","","","","","","","","","","","","","",""
"html-keyboard-response","59","512325","0.0-5.0-3.0-1.0-1.8","69b3f02d28568b807f25aac7","not_provided","desktop","7","1","0","","","","","","working_memory","","null","<img class='b' src=images/squares/green.png><img class='e' src=images/squares/black.png><img class='i' src=images/squares/yellow.png><img class='l' src=images/squares/magenta.png><div class=""fixation"">+</div>","null","","","memory","practice","8","4","","","","","","","","","","",""
"html-keyboard-response","60","513226","0.0-5.0-3.0-1.0-2.8","69b3f02d28568b807f25aac7","not_provided","desktop","7","1","0","","","","","","working_memory","","null","<div class=""fixation"">+</div>","null","","","","","","","","","","","","","","","","",""
"html-keyboard-response","61","515339","0.0-5.0-3.0-1.0-3.8","69b3f02d28568b807f25aac7","not_provided","desktop","7","1","0","","","","","","working_memory","","2112","<img class='l' src=images/squares/magenta.png><div class=""fixation"">+</div>","k","","","test","practice","8","4","s","false","","","","","","","","",""
"html-keyboard-response","62","515841","0.0-5.0-3.0-1.0-4.8","69b3f02d28568b807f25aac7","not_provided","desktop","7","1","0","","","","","","working_memory","","null","<div class=""fixation"">Incorrect</div>","null","","","","","","","","","","","","","","","","",""
"html-keyboard-response","63","516842","0.0-5.0-3.0-1.0-0.9","69b3f02d28568b807f25aac7","not_provided","desktop","7","1","0","","","","","","working_memory","","null","<div class=""fixation"">+</div>","null","","","","","","","","","","","","","","","","",""
"html-keyboard-response","64","517044","0.0-5.0-3.0-1.0-1.9","69b3f02d28568b807f25aac7","not_provided","desktop","7","1","0","","","","","","working_memory","","null","<img class='c' src=images/squares/red.png><img class='b' src=images/squares/green.png><img class='d' src=images/squares/black.png><img class='e' src=images/squares/cyan.png><img class='h' src=images/squares/blue.png><img class='i' src=images/squares/magenta.png><img class='j' src=images/squares/brown.png><img class='l' src=images/squares/orange.png><div class=""fixation"">+</div>","null","","","memory","practice","9","8","","","","","","","","","","",""
"html-keyboard-response","65","517945","0.0-5.0-3.0-1.0-2.9","69b3f02d28568b807f25aac7","not_provided","desktop","7","1","0","","","","","","working_memory","","null","<div class=""fixation"">+</div>","null","","","","","","","","","","","","","","","","",""
"html-keyboard-response","66","519005","0.0-5.0-3.0-1.0-3.9","69b3f02d28568b807f25aac7","not_provided","desktop","7","1","0","","","","","","working_memory","","1059","<img class='l' src=images/squares/yellow.png><div class=""fixation"">+</div>","k","","","test","practice","9","8","k","true","","","","","","","","",""
"html-keyboard-response","67","519506","0.0-5.0-3.0-1.0-4.9","69b3f02d28568b807f25aac7","not_provided","desktop","7","1","0","","","","","","working_memory","","null","<div class=""fixation"">Correct</div>","null","","","","","","","","","","","","","","","","",""
"html-keyboard-response","68","520507","0.0-5.0-3.0-1.0-0.10","69b3f02d28568b807f25aac7","not_provided","desktop","7","1","0","","","","","","working_memory","","null","<div class=""fixation"">+</div>","null","","","","","","","","","","","","","","","","",""
"html-keyboard-response","69","520709","0.0-5.0-3.0-1.0-1.10","69b3f02d28568b807f25aac7","not_provided","desktop","7","1","0","","","","","","working_memory","","null","<img class='b' src=images/squares/black.png><img class='d' src=images/squares/brown.png><img class='i' src=images/squares/yellow.png><img class='l' src=images/squares/green.png><div class=""fixation"">+</div>","null","","","memory","practice","10","4","","","","","","","","","","",""
"html-keyboard-response","70","521611","0.0-5.0-3.0-1.0-2.10","69b3f02d28568b807f25aac7","not_provided","desktop","7","1","0","","","","","","working_memory","","null","<div class=""fixation"">+</div>","null","","","","","","","","","","","","","","","","",""
"html-keyboard-response","71","523179","0.0-5.0-3.0-1.0-3.10","69b3f02d28568b807f25aac7","not_provided","desktop","7","1","0","","","","","","working_memory","","1568","<img class='d' src=images/squares/brown.png><div class=""fixation"">+</div>","s","","","test","practice","10","4","s","true","","","","","","","","",""
"html-keyboard-response","72","523680","0.0-5.0-3.0-1.0-4.10","69b3f02d28568b807f25aac7","not_provided","desktop","7","1","0","","","","","","working_memory","","null","<div class=""fixation"">Correct</div>","null","","","","","","","","","","","","","","","","",""
"html-keyboard-response","73","524682","0.0-5.0-3.0-1.0-0.11","69b3f02d28568b807f25aac7","not_provided","desktop","7","1","0","","","","","","working_memory","","null","<div class=""fixation"">+</div>","null","","","","","","","","","","","","","","","","",""
"html-keyboard-response","74","524883","0.0-5.0-3.0-1.0-1.11","69b3f02d28568b807f25aac7","not_provided","desktop","7","1","0","","","","","","working_memory","","null","<img class='c' src=images/squares/cyan.png><img class='b' src=images/squares/orange.png><img class='e' src=images/squares/green.png><img class='f' src=images/squares/magenta.png><img class='g' src=images/squares/blue.png><img class='i' src=images/squares/black.png><img class='k' src=images/squares/brown.png><img class='j' src=images/squares/yellow.png><div class=""fixation"">+</div>","null","","","memory","practice","11","8","","","","","","","","","","",""
"html-keyboard-response","75","525785","0.0-5.0-3.0-1.0-2.11","69b3f02d28568b807f25aac7","not_provided","desktop","7","1","0","","","","","","working_memory","","null","<div class=""fixation"">+</div>","null","","","","","","","","","","","","","","","","",""
"html-keyboard-response","76","526508","0.0-5.0-3.0-1.0-3.11","69b3f02d28568b807f25aac7","not_provided","desktop","7","1","0","","","","","","working_memory","","722","<img class='i' src=images/squares/red.png><div class=""fixation"">+</div>","k","","","test","practice","11","8","k","true","","","","","","","","",""
"html-keyboard-response","77","527008","0.0-5.0-3.0-1.0-4.11","69b3f02d28568b807f25aac7","not_provided","desktop","7","1","0","","","","","","working_memory","","null","<div class=""fixation"">Correct</div>","null","","","","","","","","","","","","","","","","",""
"html-keyboard-response","78","528010","0.0-5.0-3.0-1.0-0.12","69b3f02d28568b807f25aac7","not_provided","desktop","7","1","0","","","","","","working_memory","","null","<div class=""fixation"">+</div>","null","","","","","","","","","","","","","","","","",""
"html-keyboard-response","79","528212","0.0-5.0-3.0-1.0-1.12","69b3f02d28568b807f25aac7","not_provided","desktop","7","1","0","","","","","","working_memory","","null","<img class='lower2' src=images/squares/black.png><div class=""fixation"">+</div>","null","","","memory","practice","12","1","","","","","","","","","","",""
"html-keyboard-response","80","529114","0.0-5.0-3.0-1.0-2.12","69b3f02d28568b807f25aac7","not_provided","desktop","7","1","0","","","","","","working_memory","","null","<div class=""fixation"">+</div>","null","","","","","","","","","","","","","","","","",""
"html-keyboard-response","81","529623","0.0-5.0-3.0-1.0-3.12","69b3f02d28568b807f25aac7","not_provided","desktop","7","1","0","","","","","","working_memory","","508","<img class='lower2' src=images/squares/brown.png><div class=""fixation"">+</div>","k","","","test","practice","12","1","k","true","","","","","","","","",""
"html-keyboard-response","82","530124","0.0-5.0-3.0-1.0-4.12","69b3f02d28568b807f25aac7","not_provided","desktop","7","1","0","","","","","","working_memory","","null","<div class=""fixation"">Correct</div>","null","","","","","","","","","","","","","","","","",""
"html-keyboard-response","83","531126","0.0-5.0-3.0-1.0-0.13","69b3f02d28568b807f25aac7","not_provided","desktop","7","1","0","","","","","","working_memory","","null","<div class=""fixation"">+</div>","null","","","","","","","","","","","","","","","","",""
"html-keyboard-response","84","531328","0.0-5.0-3.0-1.0-1.13","69b3f02d28568b807f25aac7","not_provided","desktop","7","1","0","","","","","","working_memory","","null","<img class='upper3' src=images/squares/green.png><div class=""fixation"">+</div>","null","","","memory","practice","13","1","","","","","","","","","","",""
"html-keyboard-response","85","532229","0.0-5.0-3.0-1.0-2.13","69b3f02d28568b807f25aac7","not_provided","desktop","7","1","0","","","","","","working_memory","","null","<div class=""fixation"">+</div>","null","","","","","","","","","","","","","","","","",""
"html-keyboard-response","86","532660","0.0-5.0-3.0-1.0-3.13","69b3f02d28568b807f25aac7","not_provided","desktop","7","1","0","","","","","","working_memory","","430","<img class='upper3' src=images/squares/green.png><div class=""fixation"">+</div>","k","","","test","practice","13","1","s","false","","","","","","","","",""
"html-keyboard-response","87","533161","0.0-5.0-3.0-1.0-4.13","69b3f02d28568b807f25aac7","not_provided","desktop","7","1","0","","","","","","working_memory","","null","<div class=""fixation"">Incorrect</div>","null","","","","","","","","","","","","","","","","",""
"html-keyboard-response","88","534162","0.0-5.0-3.0-1.0-0.14","69b3f02d28568b807f25aac7","not_provided","desktop","7","1","0","","","","","","working_memory","","null","<div class=""fixation"">+</div>","null","","","","","","","","","","","","","","","","",""
"html-keyboard-response","89","534363","0.0-5.0-3.0-1.0-1.14","69b3f02d28568b807f25aac7","not_provided","desktop","7","1","0","","","","","","working_memory","","null","<img class='upper3' src=images/squares/green.png><div class=""fixation"">+</div>","null","","","memory","practice","14","1","","","","","","","","","","",""
"html-keyboard-response","90","535264","0.0-5.0-3.0-1.0-2.14","69b3f02d28568b807f25aac7","not_provided","desktop","7","1","0","","","","","","working_memory","","null","<div class=""fixation"">+</div>","null","","","","","","","","","","","","","","","","",""
"html-keyboard-response","91","536276","0.0-5.0-3.0-1.0-3.14","69b3f02d28568b807f25aac7","not_provided","desktop","7","1","0","","","","","","working_memory","","1011","<img class='upper3' src=images/squares/brown.png><div class=""fixation"">+</div>","k","","","test","practice","14","1","k","true","","","","","","","","",""
"html-keyboard-response","92","536777","0.0-5.0-3.0-1.0-4.14","69b3f02d28568b807f25aac7","not_provided","desktop","7","1","0","","","","","","working_memory","","null","<div class=""fixation"">Correct</div>","null","","","","","","","","","","","","","","","","",""
"html-keyboard-response","93","541588","0.0-5.0-3.0-2.0-0.0","69b3f02d28568b807f25aac7","not_provided","desktop","7","1","0","","","","","","working_memory","","4810","<p>Sorry. You made too many mistakes.<br>Let's do the practice session once again.<br><br><b>Press any key to continue</b></p>"," ","","","","","","","","","","","","","","","","",""
"html-keyboard-response","94","542902","0.0-5.0-3.1-0.1","69b3f02d28568b807f25aac7","not_provided","desktop","7","1","0","","","","","","working_memory","","1313","<p>We will now start some practice trials.<br><b>The practice trials will also include some trials in which you will need to remember only one square to make sure you understood the instructions.</b><br>You may already want to be ready with your fingers on '<b>s</b>' and '<b>k</b>'.<br><img class=""wm-example-img"" src=""images/examples/keyboard.png""><br><b style=""font-size:1.2em;"">&lsquo;S&rsquo; = SAME &nbsp;&nbsp;&nbsp; &lsquo;K&rsquo; = DIFFERENT</b><br><br><u>Please try to be as accurate as possible.</u><br><br><b>Press any key to begin</b></p>"," ","","","","","","","","","","","","","","","","",""
"html-keyboard-response","95","544905","0.0-5.0-3.1-1.1-0.15","69b3f02d28568b807f25aac7","not_provided","desktop","7","1","0","","","","","","working_memory","","null","<div class=""fixation"">+</div>","null","","","","","","","","","","","","","","","","",""
"html-keyboard-response","96","545106","0.0-5.0-3.1-1.1-1.15","69b3f02d28568b807f25aac7","not_provided","desktop","7","1","0","","","","","","working_memory","","null","<img class='upper1' src=images/squares/green.png><div class=""fixation"">+</div>","null","","","memory","practice","15","1","","","","","","","","","","",""
"html-keyboard-response","97","546007","0.0-5.0-3.1-1.1-2.15","69b3f02d28568b807f25aac7","not_provided","desktop","7","1","0","","","","","","working_memory","","null","<div class=""fixation"">+</div>","null","","","","","","","","","","","","","","","","",""
"html-keyboard-response","98","547099","0.0-5.0-3.1-1.1-3.15","69b3f02d28568b807f25aac7","not_provided","desktop","7","1","0","","","","","","working_memory","","1092","<img class='upper1' src=images/squares/green.png><div class=""fixation"">+</div>","s","","","test","practice","15","1","s","true","","","","","","","","",""
"html-keyboard-response","99","547601","0.0-5.0-3.1-1.1-4.15","69b3f02d28568b807f25aac7","not_provided","desktop","7","1","0","","","","","","working_memory","","null","<div class=""fixation"">Correct</div>","null","","","","","","","","","","","","","","","","",""
"html-keyboard-response","100","548603","0.0-5.0-3.1-1.1-0.16","69b3f02d28568b807f25aac7","not_provided","desktop","7","1","0","","","","","","working_memory","","null","<div class=""fixation"">+</div>","null","","","","","","","","","","","","","","","","",""
"html-keyboard-response","101","548804","0.0-5.0-3.1-1.1-1.16","69b3f02d28568b807f25aac7","not_provided","desktop","7","1","0","","","","","","working_memory","","null","<img class='lower3' src=images/squares/blue.png><div class=""fixation"">+</div>","null","","","memory","practice","16","1","","","","","","","","","","",""
"html-keyboard-response","102","549706","0.0-5.0-3.1-1.1-2.16","69b3f02d28568b807f25aac7","not_provided","desktop","7","1","0","","","","","","working_memory","","null","<div class=""fixation"">+</div>","null","","","","","","","","","","","","","","","","",""
"html-keyboard-response","103","550686","0.0-5.0-3.1-1.1-3.16","69b3f02d28568b807f25aac7","not_provided","desktop","7","1","0","","","","","","working_memory","","980","<img class='lower3' src=images/squares/cyan.png><div class=""fixation"">+</div>","k","","","test","practice","16","1","k","true","","","","","","","","",""
"html-keyboard-response","104","551188","0.0-5.0-3.1-1.1-4.16","69b3f02d28568b807f25aac7","not_provided","desktop","7","1","0","","","","","","working_memory","","null","<div class=""fixation"">Correct</div>","null","","","","","","","","","","","","","","","","",""
"html-keyboard-response","105","552190","0.0-5.0-3.1-1.1-0.17","69b3f02d28568b807f25aac7","not_provided","desktop","7","1","0","","","","","","working_memory","","null","<div class=""fixation"">+</div>","null","","","","","","","","","","","","","","","","",""
"html-keyboard-response","106","552391","0.0-5.0-3.1-1.1-1.17","69b3f02d28568b807f25aac7","not_provided","desktop","7","1","0","","","","","","working_memory","","null","<img class='a' src=images/squares/black.png><img class='d' src=images/squares/brown.png><img class='i' src=images/squares/orange.png><img class='k' src=images/squares/cyan.png><div class=""fixation"">+</div>","null","","","memory","practice","17","4","","","","","","","","","","",""
"html-keyboard-response","107","553292","0.0-5.0-3.1-1.1-2.17","69b3f02d28568b807f25aac7","not_provided","desktop","7","1","0","","","","","","working_memory","","null","<div class=""fixation"">+</div>","null","","","","","","","","","","","","","","","","",""
"html-keyboard-response","108","554539","0.0-5.0-3.1-1.1-3.17","69b3f02d28568b807f25aac7","not_provided","desktop","7","1","0","","","","","","working_memory","","1247","<img class='k' src=images/squares/cyan.png><div class=""fixation"">+</div>","k","","","test","practice","17","4","s","false","","","","","","","","",""
"html-keyboard-response","109","555041","0.0-5.0-3.1-1.1-4.17","69b3f02d28568b807f25aac7","not_provided","desktop","7","1","0","","","","","","working_memory","","null","<div class=""fixation"">Incorrect</div>","null","","","","","","","","","","","","","","","","",""
"html-keyboard-response","110","556042","0.0-5.0-3.1-1.1-0.18","69b3f02d28568b807f25aac7","not_provided","desktop","7","1","0","","","","","","working_memory","","null","<div class=""fixation"">+</div>","null","","","","","","","","","","","","","","","","",""
"html-keyboard-response","111","556243","0.0-5.0-3.1-1.1-1.18","69b3f02d28568b807f25aac7","not_provided","desktop","7","1","0","","","","","","working_memory","","null","<img class='b' src=images/squares/red.png><img class='e' src=images/squares/black.png><img class='g' src=images/squares/brown.png><img class='l' src=images/squares/green.png><div class=""fixation"">+</div>","null","","","memory","practice","18","4","","","","","","","","","","",""
"html-keyboard-response","112","557144","0.0-5.0-3.1-1.1-2.18","69b3f02d28568b807f25aac7","not_provided","desktop","7","1","0","","","","","","working_memory","","null","<div class=""fixation"">+</div>","null","","","","","","","","","","","","","","","","",""
"html-keyboard-response","113","558429","0.0-5.0-3.1-1.1-3.18","69b3f02d28568b807f25aac7","not_provided","desktop","7","1","0","","","","","","working_memory","","1285","<img class='l' src=images/squares/blue.png><div class=""fixation"">+</div>","k","","","test","practice","18","4","k","true","","","","","","","","",""
"html-keyboard-response","114","558930","0.0-5.0-3.1-1.1-4.18","69b3f02d28568b807f25aac7","not_provided","desktop","7","1","0","","","","","","working_memory","","null","<div class=""fixation"">Correct</div>","null","","","","","","","","","","","","","","","","",""
"html-keyboard-response","115","559932","0.0-5.0-3.1-1.1-0.19","69b3f02d28568b807f25aac7","not_provided","desktop","7","1","0","","","","","","working_memory","","null","<div class=""fixation"">+</div>","null","","","","","","","","","","","","","","","","",""
"html-keyboard-response","116","560133","0.0-5.0-3.1-1.1-1.19","69b3f02d28568b807f25aac7","not_provided","desktop","7","1","0","","","","","","working_memory","","null","<img class='upper3' src=images/squares/cyan.png><div class=""fixation"">+</div>","null","","","memory","practice","19","1","","","","","","","","","","",""
"html-keyboard-response","117","561035","0.0-5.0-3.1-1.1-2.19","69b3f02d28568b807f25aac7","not_provided","desktop","7","1","0","","","","","","working_memory","","null","<div class=""fixation"">+</div>","null","","","","","","","","","","","","","","","","",""
"html-keyboard-response","118","561643","0.0-5.0-3.1-1.1-3.19","69b3f02d28568b807f25aac7","not_provided","desktop","7","1","0","","","","","","working_memory","","608","<img class='upper3' src=images/squares/cyan.png><div class=""fixation"">+</div>","s","","","test","practice","19","1","s","true","","","","","","","","",""
"html-keyboard-response","119","562144","0.0-5.0-3.1-1.1-4.19","69b3f02d28568b807f25aac7","not_provided","desktop","7","1","0","","","","","","working_memory","","null","<div class=""fixation"">Correct</div>","null","","","","","","","","","","","","","","","","",""
"html-keyboard-response","120","563146","0.0-5.0-3.1-1.1-0.20","69b3f02d28568b807f25aac7","not_provided","desktop","7","1","0","","","","","","working_memory","","null","<div class=""fixation"">+</div>","null","","","","","","","","","","","","","","","","",""
"html-keyboard-response","121","563348","0.0-5.0-3.1-1.1-1.20","69b3f02d28568b807f25aac7","not_provided","desktop","7","1","0","","","","","","working_memory","","null","<img class='upper1' src=images/squares/red.png><div class=""fixation"">+</div>","null","","","memory","practice","20","1","","","","","","","","","","",""
"html-keyboard-response","122","564249","0.0-5.0-3.1-1.1-2.20","69b3f02d28568b807f25aac7","not_provided","desktop","7","1","0","","","","","","working_memory","","null","<div class=""fixation"">+</div>","null","","","","","","","","","","","","","","","","",""
"html-keyboard-response","123","565084","0.0-5.0-3.1-1.1-3.20","69b3f02d28568b807f25aac7","not_provided","desktop","7","1","0","","","","","","working_memory","","835","<img class='upper1' src=images/squares/red.png><div class=""fixation"">+</div>","s","","","test","practice","20","1","s","true","","","","","","","","",""
"html-keyboard-response","124","565585","0.0-5.0-3.1-1.1-4.20","69b3f02d28568b807f25aac7","not_provided","desktop","7","1","0","","","","","","working_memory","","null","<div class=""fixation"">Correct</div>","null","","","","","","","","","","","","","","","","",""
"html-keyboard-response","125","566586","0.0-5.0-3.1-1.1-0.21","69b3f02d28568b807f25aac7","not_provided","desktop","7","1","0","","","","","","working_memory","","null","<div class=""fixation"">+</div>","null","","","","","","","","","","","","","","","","",""
"html-keyboard-response","126","566787","0.0-5.0-3.1-1.1-1.21","69b3f02d28568b807f25aac7","not_provided","desktop","7","1","0","","","","","","working_memory","","null","<img class='c' src=images/squares/magenta.png><img class='b' src=images/squares/cyan.png><img class='f' src=images/squares/yellow.png><img class='e' src=images/squares/black.png><img class='g' src=images/squares/red.png><img class='i' src=images/squares/blue.png><img class='l' src=images/squares/brown.png><img class='k' src=images/squares/green.png><div class=""fixation"">+</div>","null","","","memory","practice","21","8","","","","","","","","","","",""
"html-keyboard-response","127","567689","0.0-5.0-3.1-1.1-2.21","69b3f02d28568b807f25aac7","not_provided","desktop","7","1","0","","","","","","working_memory","","null","<div class=""fixation"">+</div>","null","","","","","","","","","","","","","","","","",""
"html-keyboard-response","128","568708","0.0-5.0-3.1-1.1-3.21","69b3f02d28568b807f25aac7","not_provided","desktop","7","1","0","","","","","","working_memory","","1019","<img class='c' src=images/squares/magenta.png><div class=""fixation"">+</div>","s","","","test","practice","21","8","s","true","","","","","","","","",""
"html-keyboard-response","129","569210","0.0-5.0-3.1-1.1-4.21","69b3f02d28568b807f25aac7","not_provided","desktop","7","1","0","","","","","","working_memory","","null","<div class=""fixation"">Correct</div>","null","","","","","","","","","","","","","","","","",""
"html-keyboard-response","130","570211","0.0-5.0-3.1-1.1-0.22","69b3f02d28568b807f25aac7","not_provided","desktop","7","1","0","","","","","","working_memory","","null","<div class=""fixation"">+</div>","null","","","","","","","","","","","","","","","","",""
"html-keyboard-response","131","570413","0.0-5.0-3.1-1.1-1.22","69b3f02d28568b807f25aac7","not_provided","desktop","7","1","0","","","","","","working_memory","","null","<img class='upper3' src=images/squares/red.png><div class=""fixation"">+</div>","null","","","memory","practice","22","1","","","","","","","","","","",""
"html-keyboard-response","132","571315","0.0-5.0-3.1-1.1-2.22","69b3f02d28568b807f25aac7","not_provided","desktop","7","1","0","","","","","","working_memory","","null","<div class=""fixation"">+</div>","null","","","","","","","","","","","","","","","","",""
"html-keyboard-response","133","571838","0.0-5.0-3.1-1.1-3.22","69b3f02d28568b807f25aac7","not_provided","desktop","7","1","0","","","","","","working_memory","","523","<img class='upper3' src=images/squares/cyan.png><div class=""fixation"">+</div>","k","","","test","practice","22","1","k","true","","","","","","","","",""
"html-keyboard-response","134","572339","0.0-5.0-3.1-1.1-4.22","69b3f02d28568b807f25aac7","not_provided","desktop","7","1","0","","","","","","working_memory","","null","<div class=""fixation"">Correct</div>","null","","","","","","","","","","","","","","","","",""
"html-keyboard-response","135","573340","0.0-5.0-3.1-1.1-0.23","69b3f02d28568b807f25aac7","not_provided","desktop","7","1","0","","","","","","working_memory","","null","<div class=""fixation"">+</div>","null","","","","","","","","","","","","","","","","",""
"html-keyboard-response","136","573542","0.0-5.0-3.1-1.1-1.23","69b3f02d28568b807f25aac7","not_provided","desktop","7","1","0","","","","","","working_memory","","null","<img class='b' src=images/squares/brown.png><img class='a' src=images/squares/cyan.png><img class='f' src=images/squares/magenta.png><img class='e' src=images/squares/blue.png><img class='g' src=images/squares/black.png><img class='i' src=images/squares/orange.png><img class='j' src=images/squares/green.png><img class='k' src=images/squares/red.png><div class=""fixation"">+</div>","null","","","memory","practice","23","8","","","","","","","","","","",""
"html-keyboard-response","137","574443","0.0-5.0-3.1-1.1-2.23","69b3f02d28568b807f25aac7","not_provided","desktop","7","1","0","","","","","","working_memory","","null","<div class=""fixation"">+</div>","null","","","","","","","","","","","","","","","","",""
"html-keyboard-response","138","575444","0.0-5.0-3.1-1.1-3.23","69b3f02d28568b807f25aac7","not_provided","desktop","7","1","0","","","","","","working_memory","","1001","<img class='b' src=images/squares/yellow.png><div class=""fixation"">+</div>","k","","","test","practice","23","8","k","true","","","","","","","","",""
"html-keyboard-response","139","575945","0.0-5.0-3.1-1.1-4.23","69b3f02d28568b807f25aac7","not_provided","desktop","7","1","0","","","","","","working_memory","","null","<div class=""fixation"">Correct</div>","null","","","","","","","","","","","","","","","","",""
"html-keyboard-response","140","576947","0.0-5.0-3.1-1.1-0.24","69b3f02d28568b807f25aac7","not_provided","desktop","7","1","0","","","","","","working_memory","","null","<div class=""fixation"">+</div>","null","","","","","","","","","","","","","","","","",""
"html-keyboard-response","141","577149","0.0-5.0-3.1-1.1-1.24","69b3f02d28568b807f25aac7","not_provided","desktop","7","1","0","","","","","","working_memory","","null","<img class='upper3' src=images/squares/orange.png><div class=""fixation"">+</div>","null","","","memory","practice","24","1","","","","","","","","","","",""
"html-keyboard-response","142","578051","0.0-5.0-3.1-1.1-2.24","69b3f02d28568b807f25aac7","not_provided","desktop","7","1","0","","","","","","working_memory","","null","<div class=""fixation"">+</div>","null","","","","","","","","","","","","","","","","",""
"html-keyboard-response","143","578676","0.0-5.0-3.1-1.1-3.24","69b3f02d28568b807f25aac7","not_provided","desktop","7","1","0","","","","","","working_memory","","624","<img class='upper3' src=images/squares/orange.png><div class=""fixation"">+</div>","s","","","test","practice","24","1","s","true","","","","","","","","",""
"html-keyboard-response","144","579177","0.0-5.0-3.1-1.1-4.24","69b3f02d28568b807f25aac7","not_provided","desktop","7","1","0","","","","","","working_memory","","null","<div class=""fixation"">Correct</div>","null","","","","","","","","","","","","","","","","",""
"html-keyboard-response","145","580178","0.0-5.0-3.1-1.1-0.25","69b3f02d28568b807f25aac7","not_provided","desktop","7","1","0","","","","","","working_memory","","null","<div class=""fixation"">+</div>","null","","","","","","","","","","","","","","","","",""
"html-keyboard-response","146","580380","0.0-5.0-3.1-1.1-1.25","69b3f02d28568b807f25aac7","not_provided","desktop","7","1","0","","","","","","working_memory","","null","<img class='lower1' src=images/squares/red.png><div class=""fixation"">+</div>","null","","","memory","practice","25","1","","","","","","","","","","",""
"html-keyboard-response","147","581282","0.0-5.0-3.1-1.1-2.25","69b3f02d28568b807f25aac7","not_provided","desktop","7","1","0","","","","","","working_memory","","null","<div class=""fixation"">+</div>","null","","","","","","","","","","","","","","","","",""
"html-keyboard-response","148","582100","0.0-5.0-3.1-1.1-3.25","69b3f02d28568b807f25aac7","not_provided","desktop","7","1","0","","","","","","working_memory","","818","<img class='lower1' src=images/squares/black.png><div class=""fixation"">+</div>","k","","","test","practice","25","1","k","true","","","","","","","","",""
"html-keyboard-response","149","582602","0.0-5.0-3.1-1.1-4.25","69b3f02d28568b807f25aac7","not_provided","desktop","7","1","0","","","","","","working_memory","","null","<div class=""fixation"">Correct</div>","null","","","","","","","","","","","","","","","","",""
"html-keyboard-response","150","583604","0.0-5.0-3.1-1.1-0.26","69b3f02d28568b807f25aac7","not_provided","desktop","7","1","0","","","","","","working_memory","","null","<div class=""fixation"">+</div>","null","","","","","","","","","","","","","","","","",""
"html-keyboard-response","151","583805","0.0-5.0-3.1-1.1-1.26","69b3f02d28568b807f25aac7","not_provided","desktop","7","1","0","","","","","","working_memory","","null","<img class='lower2' src=images/squares/green.png><div class=""fixation"">+</div>","null","","","memory","practice","26","1","","","","","","","","","","",""
"html-keyboard-response","152","584706","0.0-5.0-3.1-1.1-2.26","69b3f02d28568b807f25aac7","not_provided","desktop","7","1","0","","","","","","working_memory","","null","<div class=""fixation"">+</div>","null","","","","","","","","","","","","","","","","",""
"html-keyboard-response","153","585500","0.0-5.0-3.1-1.1-3.26","69b3f02d28568b807f25aac7","not_provided","desktop","7","1","0","","","","","","working_memory","","793","<img class='lower2' src=images/squares/green.png><div class=""fixation"">+</div>","s","","","test","practice","26","1","s","true","","","","","","","","",""
"html-keyboard-response","154","586000","0.0-5.0-3.1-1.1-4.26","69b3f02d28568b807f25aac7","not_provided","desktop","7","1","0","","","","","","working_memory","","null","<div class=""fixation"">Correct</div>","null","","","","","","","","","","","","","","","","",""
"html-keyboard-response","155","587002","0.0-5.0-3.1-1.1-0.27","69b3f02d28568b807f25aac7","not_provided","desktop","7","1","0","","","","","","working_memory","","null","<div class=""fixation"">+</div>","null","","","","","","","","","","","","","","","","",""
"html-keyboard-response","156","587204","0.0-5.0-3.1-1.1-1.27","69b3f02d28568b807f25aac7","not_provided","desktop","7","1","0","","","","","","working_memory","","null","<img class='a' src=images/squares/blue.png><img class='c' src=images/squares/magenta.png><img class='f' src=images/squares/cyan.png><img class='d' src=images/squares/green.png><img class='g' src=images/squares/yellow.png><img class='i' src=images/squares/brown.png><img class='j' src=images/squares/red.png><img class='l' src=images/squares/orange.png><div class=""fixation"">+</div>","null","","","memory","practice","27","8","","","","","","","","","","",""
"html-keyboard-response","157","588106","0.0-5.0-3.1-1.1-2.27","69b3f02d28568b807f25aac7","not_provided","desktop","7","1","0","","","","","","working_memory","","null","<div class=""fixation"">+</div>","null","","","","","","","","","","","","","","","","",""
"html-keyboard-response","158","589580","0.0-5.0-3.1-1.1-3.27","69b3f02d28568b807f25aac7","not_provided","desktop","7","1","0","","","","","","working_memory","","1473","<img class='i' src=images/squares/brown.png><div class=""fixation"">+</div>","s","","","test","practice","27","8","s","true","","","","","","","","",""
"html-keyboard-response","159","590081","0.0-5.0-3.1-1.1-4.27","69b3f02d28568b807f25aac7","not_provided","desktop","7","1","0","","","","","","working_memory","","null","<div class=""fixation"">Correct</div>","null","","","","","","","","","","","","","","","","",""
"html-keyboard-response","160","591082","0.0-5.0-3.1-1.1-0.28","69b3f02d28568b807f25aac7","not_provided","desktop","7","1","0","","","","","","working_memory","","null","<div class=""fixation"">+</div>","null","","","","","","","","","","","","","","","","",""
"html-keyboard-response","161","591283","0.0-5.0-3.1-1.1-1.28","69b3f02d28568b807f25aac7","not_provided","desktop","7","1","0","","","","","","working_memory","","null","<img class='a' src=images/squares/cyan.png><img class='e' src=images/squares/blue.png><img class='h' src=images/squares/yellow.png><img class='l' src=images/squares/red.png><div class=""fixation"">+</div>","null","","","memory","practice","28","4","","","","","","","","","","",""
"html-keyboard-response","162","592185","0.0-5.0-3.1-1.1-2.28","69b3f02d28568b807f25aac7","not_provided","desktop","7","1","0","","","","","","working_memory","","null","<div class=""fixation"">+</div>","null","","","","","","","","","","","","","","","","",""
"html-keyboard-response","163","593092","0.0-5.0-3.1-1.1-3.28","69b3f02d28568b807f25aac7","not_provided","desktop","7","1","0","","","","","","working_memory","","906","<img class='e' src=images/squares/blue.png><div class=""fixation"">+</div>","s","","","test","practice","28","4","s","true","","","","","","","","",""
"html-keyboard-response","164","593593","0.0-5.0-3.1-1.1-4.28","69b3f02d28568b807f25aac7","not_provided","desktop","7","1","0","","","","","","working_memory","","null","<div class=""fixation"">Correct</div>","null","","","","","","","","","","","","","","","","",""
"html-keyboard-response","165","594595","0.0-5.0-3.1-1.1-0.29","69b3f02d28568b807f25aac7","not_provided","desktop","7","1","0","","","","","","working_memory","","null","<div class=""fixation"">+</div>","null","","","","","","","","","","","","","","","","",""
"html-keyboard-response","166","594796","0.0-5.0-3.1-1.1-1.29","69b3f02d28568b807f25aac7","not_provided","desktop","7","1","0","","","","","","working_memory","","null","<img class='c' src=images/squares/green.png><img class='a' src=images/squares/yellow.png><img class='d' src=images/squares/black.png><img class='f' src=images/squares/magenta.png><img class='i' src=images/squares/orange.png><img class='g' src=images/squares/brown.png><img class='j' src=images/squares/blue.png><img class='l' src=images/squares/cyan.png><div class=""fixation"">+</div>","null","","","memory","practice","29","8","","","","","","","","","","",""
"html-keyboard-response","167","595698","0.0-5.0-3.1-1.1-2.29","69b3f02d28568b807f25aac7","not_provided","desktop","7","1","0","","","","","","working_memory","","null","<div class=""fixation"">+</div>","null","","","","","","","","","","","","","","","","",""
"html-keyboard-response","168","596604","0.0-5.0-3.1-1.1-3.29","69b3f02d28568b807f25aac7","not_provided","desktop","7","1","0","","","","","","working_memory","","906","<img class='g' src=images/squares/brown.png><div class=""fixation"">+</div>","k","","","test","practice","29","8","s","false","","","","","","","","",""
"html-keyboard-response","169","597105","0.0-5.0-3.1-1.1-4.29","69b3f02d28568b807f25aac7","not_provided","desktop","7","1","0","","","","","","working_memory","","null","<div class=""fixation"">Incorrect</div>","null","","","","","","","","","","","","","","","","",""
"html-keyboard-response","170","617567","0.0-5.0-4.0","69b3f02d28568b807f25aac7","not_provided","desktop","7","1","0","","","","","","working_memory","","20461","<div style=""text-align:center;font-family:sans-serif;""><p>Good job! You have finished the practice.</p><p>We will now start the real experiment.</p><p>Please try to be as accurate as possible.</p><p><b><u>Note: random guessing may risk your payment.</u></b></p><br><p><b>Press any key to begin.</b></p></div>","enter","","","","","","","","","","","","","","","","",""
"html-keyboard-response","171","618568","0.0-5.0-5.0-0.0","69b3f02d28568b807f25aac7","not_provided","desktop","7","1","0","","","","","","working_memory","","null","<div class=""fixation"">+</div>","null","","","","","","","","","","","","","","","","",""
"html-keyboard-response","172","618770","0.0-5.0-5.0-1.0","69b3f02d28568b807f25aac7","not_provided","desktop","7","1","0","","","","","","working_memory","","null","<img class='b' src=images/squares/blue.png><img class='c' src=images/squares/red.png><img class='e' src=images/squares/magenta.png><img class='d' src=images/squares/green.png><img class='i' src=images/squares/yellow.png><img class='h' src=images/squares/black.png><img class='j' src=images/squares/orange.png><img class='k' src=images/squares/cyan.png><div class=""fixation"">+</div>","null","","","memory","exp","0","","","","","","","","","","","",""
"html-keyboard-response","173","619672","0.0-5.0-5.0-2.0","69b3f02d28568b807f25aac7","not_provided","desktop","7","1","0","","","","","","working_memory","","null","<div class=""fixation"">+</div>","null","","","","","","","","","","","","","","","","",""
"html-keyboard-response","174","625674","0.0-5.0-5.0-3.0","69b3f02d28568b807f25aac7","not_provided","desktop","7","1","0","","","","","","working_memory","","null","<img class='k' src=images/squares/brown.png><div class=""fixation"">+</div>","null","","","test_squares","exp","0","8","k","null","sk","d","","","","","","",""
"html-keyboard-response","175","626176","0.0-5.0-5.0-4.0","69b3f02d28568b807f25aac7","not_provided","desktop","7","1","0","","","","","","working_memory","","null","<div class=""fixation"">Please respond faster</div>","null","","","","","","","","","","","","","","","","",""
"html-keyboard-response","176","627177","0.0-5.0-5.0-0.1","69b3f02d28568b807f25aac7","not_provided","desktop","7","1","0","","","","","","working_memory","","null","<div class=""fixation"">+</div>","null","","","","","","","","","","","","","","","","",""
"html-keyboard-response","177","627378","0.0-5.0-5.0-1.1","69b3f02d28568b807f25aac7","not_provided","desktop","7","1","0","","","","","","working_memory","","null","<img class='c' src=images/squares/yellow.png><img class='a' src=images/squares/red.png><img class='d' src=images/squares/magenta.png><img class='e' src=images/squares/black.png><img class='i' src=images/squares/orange.png><img class='h' src=images/squares/brown.png><img class='l' src=images/squares/blue.png><img class='k' src=images/squares/cyan.png><div class=""fixation"">+</div>","null","","","memory","exp","1","","","","","","","","","","","",""
"html-keyboard-response","178","628279","0.0-5.0-5.0-2.1","69b3f02d28568b807f25aac7","not_provided","desktop","7","1","0","","","","","","working_memory","","null","<div class=""fixation"">+</div>","null","","","","","","","","","","","","","","","","",""
"html-keyboard-response","179","629700","0.0-5.0-5.0-3.1","69b3f02d28568b807f25aac7","not_provided","desktop","7","1","0","","","","","","working_memory","","1420","<img class='e' src=images/squares/green.png><div class=""fixation"">+</div>","k","","","test_squares","exp","1","8","k","true","sk","d","","","","","","",""
"html-keyboard-response","180","630201","0.0-5.0-5.0-4.1","69b3f02d28568b807f25aac7","not_provided","desktop","7","1","0","","","","","","working_memory","","null","<div class=""fixation"">Correct</div>","null","","","","","","","","","","","","","","","","",""
"html-keyboard-response","181","631203","0.0-5.0-5.0-0.2","69b3f02d28568b807f25aac7","not_provided","desktop","7","1","0","","","","","","working_memory","","null","<div class=""fixation"">+</div>","null","","","","","","","","","","","","","","","","",""
"html-keyboard-response","182","631406","0.0-5.0-5.0-1.2","69b3f02d28568b807f25aac7","not_provided","desktop","7","1","0","","","","","","working_memory","","null","<img class='c' src=images/squares/blue.png><img class='b' src=images/squares/yellow.png><img class='e' src=images/squares/magenta.png><img class='f' src=images/squares/green.png><img class='g' src=images/squares/orange.png><img class='h' src=images/squares/cyan.png><img class='l' src=images/squares/brown.png><img class='j' src=images/squares/red.png><div class=""fixation"">+</div>","null","","","memory","exp","2","","","","","","","","","","","",""
"html-keyboard-response","183","632306","0.0-5.0-5.0-2.2","69b3f02d28568b807f25aac7","not_provided","desktop","7","1","0","","","","","","working_memory","","null","<div class=""fixation"">+</div>","null","","","","","","","","","","","","","","","","",""
"html-keyboard-response","184","633876","0.0-5.0-5.0-3.2","69b3f02d28568b807f25aac7","not_provided","desktop","7","1","0","","","","","","working_memory","","1569","<img class='f' src=images/squares/green.png><div class=""fixation"">+</div>","s","","","test_squares","exp","2","8","s","true","sk","s","","","","","","",""
"html-keyboard-response","185","634376","0.0-5.0-5.0-4.2","69b3f02d28568b807f25aac7","not_provided","desktop","7","1","0","","","","","","working_memory","","null","<div class=""fixation"">Correct</div>","null","","","","","","","","","","","","","","","","",""
"html-keyboard-response","186","635378","0.0-5.0-5.0-0.3","69b3f02d28568b807f25aac7","not_provided","desktop","7","1","0","","","","","","working_memory","","null","<div class=""fixation"">+</div>","null","","","","","","","","","","","","","","","","",""
"html-keyboard-response","187","635580","0.0-5.0-5.0-1.3","69b3f02d28568b807f25aac7","not_provided","desktop","7","1","0","","","","","","working_memory","","null","<img class='a' src=images/squares/magenta.png><img class='b' src=images/squares/cyan.png><img class='e' src=images/squares/green.png><img class='d' src=images/squares/red.png><img class='h' src=images/squares/brown.png><img class='i' src=images/squares/blue.png><img class='k' src=images/squares/black.png><img class='j' src=images/squares/orange.png><div class=""fixation"">+</div>","null","","","memory","exp","3","","","","","","","","","","","",""
"html-keyboard-response","188","636481","0.0-5.0-5.0-2.3","69b3f02d28568b807f25aac7","not_provided","desktop","7","1","0","","","","","","working_memory","","null","<div class=""fixation"">+</div>","null","","","","","","","","","","","","","","","","",""
"html-keyboard-response","189","637574","0.0-5.0-5.0-3.3","69b3f02d28568b807f25aac7","not_provided","desktop","7","1","0","","","","","","working_memory","","1092","<img class='k' src=images/squares/yellow.png><div class=""fixation"">+</div>","k","","","test_squares","exp","3","8","k","true","sk","d","","","","","","",""
"html-keyboard-response","190","638075","0.0-5.0-5.0-4.3","69b3f02d28568b807f25aac7","not_provided","desktop","7","1","0","","","","","","working_memory","","null","<div class=""fixation"">Correct</div>","null","","","","","","","","","","","","","","","","",""
"html-keyboard-response","191","639076","0.0-5.0-5.0-0.4","69b3f02d28568b807f25aac7","not_provided","desktop","7","1","0","","","","","","working_memory","","null","<div class=""fixation"">+</div>","null","","","","","","","","","","","","","","","","",""
"html-keyboard-response","192","639277","0.0-5.0-5.0-1.4","69b3f02d28568b807f25aac7","not_provided","desktop","7","1","0","","","","","","working_memory","","null","<img class='b' src=images/squares/black.png><img class='e' src=images/squares/brown.png><img class='i' src=images/squares/cyan.png><img class='j' src=images/squares/magenta.png><div class=""fixation"">+</div>","null","","","memory","exp","4","","","","","","","","","","","",""
"html-keyboard-response","193","640179","0.0-5.0-5.0-2.4","69b3f02d28568b807f25aac7","not_provided","desktop","7","1","0","","","","","","working_memory","","null","<div class=""fixation"">+</div>","null","","","","","","","","","","","","","","","","",""
"html-keyboard-response","194","641485","0.0-5.0-5.0-3.4","69b3f02d28568b807f25aac7","not_provided","desktop","7","1","0","","","","","","working_memory","","1305","<img class='i' src=images/squares/green.png><div class=""fixation"">+</div>","k","","","test_squares","exp","4","4","k","true","sk","d","","","","","","",""
"html-keyboard-response","195","641986","0.0-5.0-5.0-4.4","69b3f02d28568b807f25aac7","not_provided","desktop","7","1","0","","","","","","working_memory","","null","<div class=""fixation"">Correct</div>","null","","","","","","","","","","","","","","","","",""
"html-keyboard-response","196","642988","0.0-5.0-5.0-0.5","69b3f02d28568b807f25aac7","not_provided","desktop","7","1","0","","","","","","working_memory","","null","<div class=""fixation"">+</div>","null","","","","","","","","","","","","","","","","",""
"html-keyboard-response","197","643190","0.0-5.0-5.0-1.5","69b3f02d28568b807f25aac7","not_provided","desktop","7","1","0","","","","","","working_memory","","null","<img class='b' src=images/squares/yellow.png><img class='c' src=images/squares/brown.png><img class='d' src=images/squares/cyan.png><img class='f' src=images/squares/orange.png><img class='g' src=images/squares/black.png><img class='h' src=images/squares/green.png><img class='j' src=images/squares/red.png><img class='k' src=images/squares/blue.png><div class=""fixation"">+</div>","null","","","memory","exp","5","","","","","","","","","","","",""
"html-keyboard-response","198","644092","0.0-5.0-5.0-2.5","69b3f02d28568b807f25aac7","not_provided","desktop","7","1","0","","","","","","working_memory","","null","<div class=""fixation"">+</div>","null","","","","","","","","","","","","","","","","",""
"html-keyboard-response","199","644892","0.0-5.0-5.0-3.5","69b3f02d28568b807f25aac7","not_provided","desktop","7","1","0","","","","","","working_memory","","799","<img class='k' src=images/squares/blue.png><div class=""fixation"">+</div>","s","","","test_squares","exp","5","8","s","true","sk","s","","","","","","",""
"html-keyboard-response","200","645393","0.0-5.0-5.0-4.5","69b3f02d28568b807f25aac7","not_provided","desktop","7","1","0","","","","","","working_memory","","null","<div class=""fixation"">Correct</div>","null","","","","","","","","","","","","","","","","",""
"html-keyboard-response","201","646394","0.0-5.0-5.0-0.6","69b3f02d28568b807f25aac7","not_provided","desktop","7","1","0","","","","","","working_memory","","null","<div class=""fixation"">+</div>","null","","","","","","","","","","","","","","","","",""
"html-keyboard-response","202","646595","0.0-5.0-5.0-1.6","69b3f02d28568b807f25aac7","not_provided","desktop","7","1","0","","","","","","working_memory","","null","<img class='c' src=images/squares/brown.png><img class='a' src=images/squares/blue.png><img class='e' src=images/squares/yellow.png><img class='d' src=images/squares/red.png><img class='i' src=images/squares/orange.png><img class='h' src=images/squares/green.png><img class='k' src=images/squares/black.png><img class='j' src=images/squares/magenta.png><div class=""fixation"">+</div>","null","","","memory","exp","6","","","","","","","","","","","",""
"html-keyboard-response","203","647496","0.0-5.0-5.0-2.6","69b3f02d28568b807f25aac7","not_provided","desktop","7","1","0","","","","","","working_memory","","null","<div class=""fixation"">+</div>","null","","","","","","","","","","","","","","","","",""
"html-keyboard-response","204","648595","0.0-5.0-5.0-3.6","69b3f02d28568b807f25aac7","not_provided","desktop","7","1","0","","","","","","working_memory","","1099","<img class='d' src=images/squares/cyan.png><div class=""fixation"">+</div>","k","","","test_squares","exp","6","8","k","true","sk","d","","","","","","",""
"html-keyboard-response","205","649096","0.0-5.0-5.0-4.6","69b3f02d28568b807f25aac7","not_provided","desktop","7","1","0","","","","","","working_memory","","null","<div class=""fixation"">Correct</div>","null","","","","","","","","","","","","","","","","",""
"html-keyboard-response","206","650097","0.0-5.0-5.0-0.7","69b3f02d28568b807f25aac7","not_provided","desktop","7","1","0","","","","","","working_memory","","null","<div class=""fixation"">+</div>","null","","","","","","","","","","","","","","","","",""
"html-keyboard-response","207","650298","0.0-5.0-5.0-1.7","69b3f02d28568b807f25aac7","not_provided","desktop","7","1","0","","","","","","working_memory","","null","<img class='a' src=images/squares/yellow.png><img class='d' src=images/squares/orange.png><img class='i' src=images/squares/green.png><img class='k' src=images/squares/blue.png><div class=""fixation"">+</div>","null","","","memory","exp","7","","","","","","","","","","","",""
"html-keyboard-response","208","651199","0.0-5.0-5.0-2.7","69b3f02d28568b807f25aac7","not_provided","desktop","7","1","0","","","","","","working_memory","","null","<div class=""fixation"">+</div>","null","","","","","","","","","","","","","","","","",""
"html-keyboard-response","209","652148","0.0-5.0-5.0-3.7","69b3f02d28568b807f25aac7","not_provided","desktop","7","1","0","","","","","","working_memory","","948","<img class='a' src=images/squares/yellow.png><div class=""fixation"">+</div>","s","","","test_squares","exp","7","4","s","true","sk","s","","","","","","",""
"html-keyboard-response","210","652649","0.0-5.0-5.0-4.7","69b3f02d28568b807f25aac7","not_provided","desktop","7","1","0","","","","","","working_memory","","null","<div class=""fixation"">Correct</div>","null","","","","","","","","","","","","","","","","",""
"html-keyboard-response","211","653649","0.0-5.0-5.0-0.8","69b3f02d28568b807f25aac7","not_provided","desktop","7","1","0","","","","","","working_memory","","null","<div class=""fixation"">+</div>","null","","","","","","","","","","","","","","","","",""
"html-keyboard-response","212","653851","0.0-5.0-5.0-1.8","69b3f02d28568b807f25aac7","not_provided","desktop","7","1","0","","","","","","working_memory","","null","<img class='a' src=images/squares/magenta.png><img class='f' src=images/squares/brown.png><img class='g' src=images/squares/cyan.png><img class='k' src=images/squares/red.png><div class=""fixation"">+</div>","null","","","memory","exp","8","","","","","","","","","","","",""
"html-keyboard-response","213","654753","0.0-5.0-5.0-2.8","69b3f02d28568b807f25aac7","not_provided","desktop","7","1","0","","","","","","working_memory","","null","<div class=""fixation"">+</div>","null","","","","","","","","","","","","","","","","",""
"html-keyboard-response","214","655668","0.0-5.0-5.0-3.8","69b3f02d28568b807f25aac7","not_provided","desktop","7","1","0","","","","","","working_memory","","914","<img class='a' src=images/squares/magenta.png><div class=""fixation"">+</div>","s","","","test_squares","exp","8","4","s","true","sk","s","","","","","","",""
"html-keyboard-response","215","656168","0.0-5.0-5.0-4.8","69b3f02d28568b807f25aac7","not_provided","desktop","7","1","0","","","","","","working_memory","","null","<div class=""fixation"">Correct</div>","null","","","","","","","","","","","","","","","","",""
"html-keyboard-response","216","657170","0.0-5.0-5.0-0.9","69b3f02d28568b807f25aac7","not_provided","desktop","7","1","0","","","","","","working_memory","","null","<div class=""fixation"">+</div>","null","","","","","","","","","","","","","","","","",""
"html-keyboard-response","217","657372","0.0-5.0-5.0-1.9","69b3f02d28568b807f25aac7","not_provided","desktop","7","1","0","","","","","","working_memory","","null","<img class='a' src=images/squares/blue.png><img class='c' src=images/squares/magenta.png><img class='d' src=images/squares/orange.png><img class='f' src=images/squares/yellow.png><img class='h' src=images/squares/red.png><img class='g' src=images/squares/black.png><img class='l' src=images/squares/brown.png><img class='k' src=images/squares/cyan.png><div class=""fixation"">+</div>","null","","","memory","exp","9","","","","","","","","","","","",""
"html-keyboard-response","218","658274","0.0-5.0-5.0-2.9","69b3f02d28568b807f25aac7","not_provided","desktop","7","1","0","","","","","","working_memory","","null","<div class=""fixation"">+</div>","null","","","","","","","","","","","","","","","","",""
"html-keyboard-response","219","659406","0.0-5.0-5.0-3.9","69b3f02d28568b807f25aac7","not_provided","desktop","7","1","0","","","","","","working_memory","","1132","<img class='f' src=images/squares/green.png><div class=""fixation"">+</div>","k","","","test_squares","exp","9","8","k","true","sk","d","","","","","","",""
"html-keyboard-response","220","659907","0.0-5.0-5.0-4.9","69b3f02d28568b807f25aac7","not_provided","desktop","7","1","0","","","","","","working_memory","","null","<div class=""fixation"">Correct</div>","null","","","","","","","","","","","","","","","","",""
"html-keyboard-response","221","660909","0.0-5.0-5.0-0.10","69b3f02d28568b807f25aac7","not_provided","desktop","7","1","0","","","","","","working_memory","","null","<div class=""fixation"">+</div>","null","","","","","","","","","","","","","","","","",""
"html-keyboard-response","222","661110","0.0-5.0-5.0-1.10","69b3f02d28568b807f25aac7","not_provided","desktop","7","1","0","","","","","","working_memory","","null","<img class='a' src=images/squares/orange.png><img class='b' src=images/squares/cyan.png><img class='e' src=images/squares/brown.png><img class='f' src=images/squares/red.png><img class='h' src=images/squares/black.png><img class='i' src=images/squares/green.png><img class='j' src=images/squares/blue.png><img class='k' src=images/squares/yellow.png><div class=""fixation"">+</div>","null","","","memory","exp","10","","","","","","","","","","","",""
"html-keyboard-response","223","662012","0.0-5.0-5.0-2.10","69b3f02d28568b807f25aac7","not_provided","desktop","7","1","0","","","","","","working_memory","","null","<div class=""fixation"">+</div>","null","","","","","","","","","","","","","","","","",""
"html-keyboard-response","224","663204","0.0-5.0-5.0-3.10","69b3f02d28568b807f25aac7","not_provided","desktop","7","1","0","","","","","","working_memory","","1191","<img class='a' src=images/squares/orange.png><div class=""fixation"">+</div>","k","","","test_squares","exp","10","8","s","false","sk","s","","","","","","",""
"html-keyboard-response","225","663706","0.0-5.0-5.0-4.10","69b3f02d28568b807f25aac7","not_provided","desktop","7","1","0","","","","","","working_memory","","null","<div class=""fixation"">Incorrect</div>","null","","","","","","","","","","","","","","","","",""
"html-keyboard-response","226","664707","0.0-5.0-5.0-0.11","69b3f02d28568b807f25aac7","not_provided","desktop","7","1","0","","","","","","working_memory","","null","<div class=""fixation"">+</div>","null","","","","","","","","","","","","","","","","",""
"html-keyboard-response","227","664908","0.0-5.0-5.0-1.11","69b3f02d28568b807f25aac7","not_provided","desktop","7","1","0","","","","","","working_memory","","null","<img class='c' src=images/squares/orange.png><img class='b' src=images/squares/magenta.png><img class='e' src=images/squares/red.png><img class='f' src=images/squares/yellow.png><img class='i' src=images/squares/cyan.png><img class='g' src=images/squares/brown.png><img class='k' src=images/squares/blue.png><img class='l' src=images/squares/black.png><div class=""fixation"">+</div>","null","","","memory","exp","11","","","","","","","","","","","",""
"html-keyboard-response","228","665809","0.0-5.0-5.0-2.11","69b3f02d28568b807f25aac7","not_provided","desktop","7","1","0","","","","","","working_memory","","null","<div class=""fixation"">+</div>","null","","","","","","","","","","","","","","","","",""
"html-keyboard-response","229","666740","0.0-5.0-5.0-3.11","69b3f02d28568b807f25aac7","not_provided","desktop","7","1","0","","","","","","working_memory","","930","<img class='e' src=images/squares/green.png><div class=""fixation"">+</div>","k","","","test_squares","exp","11","8","k","true","sk","d","","","","","","",""
"html-keyboard-response","230","667240","0.0-5.0-5.0-4.11","69b3f02d28568b807f25aac7","not_provided","desktop","7","1","0","","","","","","working_memory","","null","<div class=""fixation"">Correct</div>","null","","","","","","","","","","","","","","","","",""
"html-keyboard-response","231","668242","0.0-5.0-5.0-0.12","69b3f02d28568b807f25aac7","not_provided","desktop","7","1","0","","","","","","working_memory","","null","<div class=""fixation"">+</div>","null","","","","","","","","","","","","","","","","",""
"html-keyboard-response","232","668444","0.0-5.0-5.0-1.12","69b3f02d28568b807f25aac7","not_provided","desktop","7","1","0","","","","","","working_memory","","null","<img class='a' src=images/squares/black.png><img class='d' src=images/squares/green.png><img class='h' src=images/squares/magenta.png><img class='l' src=images/squares/brown.png><div class=""fixation"">+</div>","null","","","memory","exp","12","","","","","","","","","","","",""
"html-keyboard-response","233","669345","0.0-5.0-5.0-2.12","69b3f02d28568b807f25aac7","not_provided","desktop","7","1","0","","","","","","working_memory","","null","<div class=""fixation"">+</div>","null","","","","","","","","","","","","","","","","",""
"html-keyboard-response","234","670022","0.0-5.0-5.0-3.12","69b3f02d28568b807f25aac7","not_provided","desktop","7","1","0","","","","","","working_memory","","676","<img class='a' src=images/squares/orange.png><div class=""fixation"">+</div>","k","","","test_squares","exp","12","4","k","true","sk","d","","","","","","",""
"html-keyboard-response","235","670523","0.0-5.0-5.0-4.12","69b3f02d28568b807f25aac7","not_provided","desktop","7","1","0","","","","","","working_memory","","null","<div class=""fixation"">Correct</div>","null","","","","","","","","","","","","","","","","",""
"html-keyboard-response","236","671524","0.0-5.0-5.0-0.13","69b3f02d28568b807f25aac7","not_provided","desktop","7","1","0","","","","","","working_memory","","null","<div class=""fixation"">+</div>","null","","","","","","","","","","","","","","","","",""
"html-keyboard-response","237","671725","0.0-5.0-5.0-1.13","69b3f02d28568b807f25aac7","not_provided","desktop","7","1","0","","","","","","working_memory","","null","<img class='a' src=images/squares/brown.png><img class='d' src=images/squares/yellow.png><img class='g' src=images/squares/magenta.png><img class='l' src=images/squares/orange.png><div class=""fixation"">+</div>","null","","","memory","exp","13","","","","","","","","","","","",""
"html-keyboard-response","238","672626","0.0-5.0-5.0-2.13","69b3f02d28568b807f25aac7","not_provided","desktop","7","1","0","","","","","","working_memory","","null","<div class=""fixation"">+</div>","null","","","","","","","","","","","","","","","","",""
"html-keyboard-response","239","673252","0.0-5.0-5.0-3.13","69b3f02d28568b807f25aac7","not_provided","desktop","7","1","0","","","","","","working_memory","","625","<img class='d' src=images/squares/black.png><div class=""fixation"">+</div>","k","","","test_squares","exp","13","4","k","true","sk","d","","","","","","",""
"html-keyboard-response","240","673752","0.0-5.0-5.0-4.13","69b3f02d28568b807f25aac7","not_provided","desktop","7","1","0","","","","","","working_memory","","null","<div class=""fixation"">Correct</div>","null","","","","","","","","","","","","","","","","",""
"html-keyboard-response","241","674754","0.0-5.0-5.0-0.14","69b3f02d28568b807f25aac7","not_provided","desktop","7","1","0","","","","","","working_memory","","null","<div class=""fixation"">+</div>","null","","","","","","","","","","","","","","","","",""
"html-keyboard-response","242","674955","0.0-5.0-5.0-1.14","69b3f02d28568b807f25aac7","not_provided","desktop","7","1","0","","","","","","working_memory","","null","<img class='a' src=images/squares/yellow.png><img class='b' src=images/squares/blue.png><img class='e' src=images/squares/cyan.png><img class='d' src=images/squares/red.png><img class='h' src=images/squares/magenta.png><img class='g' src=images/squares/black.png><img class='k' src=images/squares/orange.png><img class='j' src=images/squares/brown.png><div class=""fixation"">+</div>","null","","","memory","exp","14","","","","","","","","","","","",""
"html-keyboard-response","243","675857","0.0-5.0-5.0-2.14","69b3f02d28568b807f25aac7","not_provided","desktop","7","1","0","","","","","","working_memory","","null","<div class=""fixation"">+</div>","null","","","","","","","","","","","","","","","","",""
"html-keyboard-response","244","676781","0.0-5.0-5.0-3.14","69b3f02d28568b807f25aac7","not_provided","desktop","7","1","0","","","","","","working_memory","","924","<img class='k' src=images/squares/orange.png><div class=""fixation"">+</div>","s","","","test_squares","exp","14","8","s","true","sk","s","","","","","","",""
"html-keyboard-response","245","677282","0.0-5.0-5.0-4.14","69b3f02d28568b807f25aac7","not_provided","desktop","7","1","0","","","","","","working_memory","","null","<div class=""fixation"">Correct</div>","null","","","","","","","","","","","","","","","","",""
"html-keyboard-response","246","678284","0.0-5.0-5.0-0.15","69b3f02d28568b807f25aac7","not_provided","desktop","7","1","0","","","","","","working_memory","","null","<div class=""fixation"">+</div>","null","","","","","","","","","","","","","","","","",""
"html-keyboard-response","247","678486","0.0-5.0-5.0-1.15","69b3f02d28568b807f25aac7","not_provided","desktop","7","1","0","","","","","","working_memory","","null","<img class='b' src=images/squares/red.png><img class='c' src=images/squares/cyan.png><img class='e' src=images/squares/green.png><img class='d' src=images/squares/black.png><img class='g' src=images/squares/orange.png><img class='i' src=images/squares/magenta.png><img class='j' src=images/squares/brown.png><img class='l' src=images/squares/yellow.png><div class=""fixation"">+</div>","null","","","memory","exp","15","","","","","","","","","","","",""
"html-keyboard-response","248","679387","0.0-5.0-5.0-2.15","69b3f02d28568b807f25aac7","not_provided","desktop","7","1","0","","","","","","working_memory","","null","<div class=""fixation"">+</div>","null","","","","","","","","","","","","","","","","",""
"html-keyboard-response","249","680372","0.0-5.0-5.0-3.15","69b3f02d28568b807f25aac7","not_provided","desktop","7","1","0","","","","","","working_memory","","984","<img class='b' src=images/squares/blue.png><div class=""fixation"">+</div>","k","","","test_squares","exp","15","8","k","true","sk","d","","","","","","",""
"html-keyboard-response","250","680873","0.0-5.0-5.0-4.15","69b3f02d28568b807f25aac7","not_provided","desktop","7","1","0","","","","","","working_memory","","null","<div class=""fixation"">Correct</div>","null","","","","","","","","","","","","","","","","",""
"html-keyboard-response","251","681874","0.0-5.0-5.0-0.16","69b3f02d28568b807f25aac7","not_provided","desktop","7","1","0","","","","","","working_memory","","null","<div class=""fixation"">+</div>","null","","","","","","","","","","","","","","","","",""
"html-keyboard-response","252","682075","0.0-5.0-5.0-1.16","69b3f02d28568b807f25aac7","not_provided","desktop","7","1","0","","","","","","working_memory","","null","<img class='c' src=images/squares/black.png><img class='e' src=images/squares/magenta.png><img class='g' src=images/squares/orange.png><img class='l' src=images/squares/yellow.png><div class=""fixation"">+</div>","null","","","memory","exp","16","","","","","","","","","","","",""
"html-keyboard-response","253","682976","0.0-5.0-5.0-2.16","69b3f02d28568b807f25aac7","not_provided","desktop","7","1","0","","","","","","working_memory","","null","<div class=""fixation"">+</div>","null","","","","","","","","","","","","","","","","",""
"html-keyboard-response","254","684412","0.0-5.0-5.0-3.16","69b3f02d28568b807f25aac7","not_provided","desktop","7","1","0","","","","","","working_memory","","1436","<img class='g' src=images/squares/red.png><div class=""fixation"">+</div>","k","","","test_squares","exp","16","4","k","true","sk","d","","","","","","",""
"html-keyboard-response","255","684913","0.0-5.0-5.0-4.16","69b3f02d28568b807f25aac7","not_provided","desktop","7","1","0","","","","","","working_memory","","null","<div class=""fixation"">Correct</div>","null","","","","","","","","","","","","","","","","",""
"html-keyboard-response","256","685915","0.0-5.0-5.0-0.17","69b3f02d28568b807f25aac7","not_provided","desktop","7","1","0","","","","","","working_memory","","null","<div class=""fixation"">+</div>","null","","","","","","","","","","","","","","","","",""
"html-keyboard-response","257","686117","0.0-5.0-5.0-1.17","69b3f02d28568b807f25aac7","not_provided","desktop","7","1","0","","","","","","working_memory","","null","<img class='b' src=images/squares/orange.png><img class='e' src=images/squares/black.png><img class='i' src=images/squares/brown.png><img class='j' src=images/squares/blue.png><div class=""fixation"">+</div>","null","","","memory","exp","17","","","","","","","","","","","",""
"html-keyboard-response","258","687019","0.0-5.0-5.0-2.17","69b3f02d28568b807f25aac7","not_provided","desktop","7","1","0","","","","","","working_memory","","null","<div class=""fixation"">+</div>","null","","","","","","","","","","","","","","","","",""
"html-keyboard-response","259","687683","0.0-5.0-5.0-3.17","69b3f02d28568b807f25aac7","not_provided","desktop","7","1","0","","","","","","working_memory","","664","<img class='j' src=images/squares/cyan.png><div class=""fixation"">+</div>","k","","","test_squares","exp","17","4","k","true","sk","d","","","","","","",""
"html-keyboard-response","260","688184","0.0-5.0-5.0-4.17","69b3f02d28568b807f25aac7","not_provided","desktop","7","1","0","","","","","","working_memory","","null","<div class=""fixation"">Correct</div>","null","","","","","","","","","","","","","","","","",""
"html-keyboard-response","261","689186","0.0-5.0-5.0-0.18","69b3f02d28568b807f25aac7","not_provided","desktop","7","1","0","","","","","","working_memory","","null","<div class=""fixation"">+</div>","null","","","","","","","","","","","","","","","","",""
"html-keyboard-response","262","689388","0.0-5.0-5.0-1.18","69b3f02d28568b807f25aac7","not_provided","desktop","7","1","0","","","","","","working_memory","","null","<img class='a' src=images/squares/red.png><img class='c' src=images/squares/orange.png><img class='d' src=images/squares/cyan.png><img class='e' src=images/squares/yellow.png><img class='g' src=images/squares/magenta.png><img class='h' src=images/squares/brown.png><img class='l' src=images/squares/green.png><img class='j' src=images/squares/black.png><div class=""fixation"">+</div>","null","","","memory","exp","18","","","","","","","","","","","",""
"html-keyboard-response","263","690289","0.0-5.0-5.0-2.18","69b3f02d28568b807f25aac7","not_provided","desktop","7","1","0","","","","","","working_memory","","null","<div class=""fixation"">+</div>","null","","","","","","","","","","","","","","","","",""
"html-keyboard-response","264","691476","0.0-5.0-5.0-3.18","69b3f02d28568b807f25aac7","not_provided","desktop","7","1","0","","","","","","working_memory","","1186","<img class='c' src=images/squares/orange.png><div class=""fixation"">+</div>","k","","","test_squares","exp","18","8","s","false","sk","s","","","","","","",""
"html-keyboard-response","265","691977","0.0-5.0-5.0-4.18","69b3f02d28568b807f25aac7","not_provided","desktop","7","1","0","","","","","","working_memory","","null","<div class=""fixation"">Incorrect</div>","null","","","","","","","","","","","","","","","","",""
"html-keyboard-response","266","692979","0.0-5.0-5.0-0.19","69b3f02d28568b807f25aac7","not_provided","desktop","7","1","0","","","","","","working_memory","","null","<div class=""fixation"">+</div>","null","","","","","","","","","","","","","","","","",""
"html-keyboard-response","267","693180","0.0-5.0-5.0-1.19","69b3f02d28568b807f25aac7","not_provided","desktop","7","1","0","","","","","","working_memory","","null","<img class='b' src=images/squares/brown.png><img class='a' src=images/squares/blue.png><img class='e' src=images/squares/yellow.png><img class='f' src=images/squares/cyan.png><img class='g' src=images/squares/black.png><img class='i' src=images/squares/red.png><img class='j' src=images/squares/green.png><img class='k' src=images/squares/orange.png><div class=""fixation"">+</div>","null","","","memory","exp","19","","","","","","","","","","","",""
"html-keyboard-response","268","694082","0.0-5.0-5.0-2.19","69b3f02d28568b807f25aac7","not_provided","desktop","7","1","0","","","","","","working_memory","","null","<div class=""fixation"">+</div>","null","","","","","","","","","","","","","","","","",""
"html-keyboard-response","269","694821","0.0-5.0-5.0-3.19","69b3f02d28568b807f25aac7","not_provided","desktop","7","1","0","","","","","","working_memory","","737","<img class='e' src=images/squares/yellow.png><div class=""fixation"">+</div>","s","","","test_squares","exp","19","8","s","true","sk","s","","","","","","",""
"html-keyboard-response","270","695321","0.0-5.0-5.0-4.19","69b3f02d28568b807f25aac7","not_provided","desktop","7","1","0","","","","","","working_memory","","null","<div class=""fixation"">Correct</div>","null","","","","","","","","","","","","","","","","",""
"html-keyboard-response","271","696322","0.0-5.0-5.0-0.20","69b3f02d28568b807f25aac7","not_provided","desktop","7","1","0","","","","","","working_memory","","null","<div class=""fixation"">+</div>","null","","","","","","","","","","","","","","","","",""
"html-keyboard-response","272","696524","0.0-5.0-5.0-1.20","69b3f02d28568b807f25aac7","not_provided","desktop","7","1","0","","","","","","working_memory","","null","<img class='a' src=images/squares/yellow.png><img class='d' src=images/squares/orange.png><img class='h' src=images/squares/green.png><img class='l' src=images/squares/red.png><div class=""fixation"">+</div>","null","","","memory","exp","20","","","","","","","","","","","",""
"html-keyboard-response","273","697425","0.0-5.0-5.0-2.20","69b3f02d28568b807f25aac7","not_provided","desktop","7","1","0","","","","","","working_memory","","null","<div class=""fixation"">+</div>","null","","","","","","","","","","","","","","","","",""
"html-keyboard-response","274","698463","0.0-5.0-5.0-3.20","69b3f02d28568b807f25aac7","not_provided","desktop","7","1","0","","","","","","working_memory","","1037","<img class='l' src=images/squares/red.png><div class=""fixation"">+</div>","s","","","test_squares","exp","20","4","s","true","sk","s","","","","","","",""
"html-keyboard-response","275","698964","0.0-5.0-5.0-4.20","69b3f02d28568b807f25aac7","not_provided","desktop","7","1","0","","","","","","working_memory","","null","<div class=""fixation"">Correct</div>","null","","","","","","","","","","","","","","","","",""
"html-keyboard-response","276","699966","0.0-5.0-5.0-0.21","69b3f02d28568b807f25aac7","not_provided","desktop","7","1","0","","","","","","working_memory","","null","<div class=""fixation"">+</div>","null","","","","","","","","","","","","","","","","",""
"html-keyboard-response","277","700167","0.0-5.0-5.0-1.21","69b3f02d28568b807f25aac7","not_provided","desktop","7","1","0","","","","","","working_memory","","null","<img class='a' src=images/squares/red.png><img class='f' src=images/squares/brown.png><img class='h' src=images/squares/black.png><img class='k' src=images/squares/blue.png><div class=""fixation"">+</div>","null","","","memory","exp","21","","","","","","","","","","","",""
"html-keyboard-response","278","701068","0.0-5.0-5.0-2.21","69b3f02d28568b807f25aac7","not_provided","desktop","7","1","0","","","","","","working_memory","","null","<div class=""fixation"">+</div>","null","","","","","","","","","","","","","","","","",""
"html-keyboard-response","279","701900","0.0-5.0-5.0-3.21","69b3f02d28568b807f25aac7","not_provided","desktop","7","1","0","","","","","","working_memory","","831","<img class='k' src=images/squares/blue.png><div class=""fixation"">+</div>","s","","","test_squares","exp","21","4","s","true","sk","s","","","","","","",""
"html-keyboard-response","280","702402","0.0-5.0-5.0-4.21","69b3f02d28568b807f25aac7","not_provided","desktop","7","1","0","","","","","","working_memory","","null","<div class=""fixation"">Correct</div>","null","","","","","","","","","","","","","","","","",""
"html-keyboard-response","281","703404","0.0-5.0-5.0-0.22","69b3f02d28568b807f25aac7","not_provided","desktop","7","1","0","","","","","","working_memory","","null","<div class=""fixation"">+</div>","null","","","","","","","","","","","","","","","","",""
"html-keyboard-response","282","703606","0.0-5.0-5.0-1.22","69b3f02d28568b807f25aac7","not_provided","desktop","7","1","0","","","","","","working_memory","","null","<img class='c' src=images/squares/black.png><img class='b' src=images/squares/magenta.png><img class='d' src=images/squares/brown.png><img class='f' src=images/squares/yellow.png><img class='h' src=images/squares/green.png><img class='i' src=images/squares/cyan.png><img class='k' src=images/squares/red.png><img class='l' src=images/squares/blue.png><div class=""fixation"">+</div>","null","","","memory","exp","22","","","","","","","","","","","",""
"html-keyboard-response","283","704507","0.0-5.0-5.0-2.22","69b3f02d28568b807f25aac7","not_provided","desktop","7","1","0","","","","","","working_memory","","null","<div class=""fixation"">+</div>","null","","","","","","","","","","","","","","","","",""
"html-keyboard-response","284","705319","0.0-5.0-5.0-3.22","69b3f02d28568b807f25aac7","not_provided","desktop","7","1","0","","","","","","working_memory","","811","<img class='f' src=images/squares/orange.png><div class=""fixation"">+</div>","k","","","test_squares","exp","22","8","k","true","sk","d","","","","","","",""
"html-keyboard-response","285","705821","0.0-5.0-5.0-4.22","69b3f02d28568b807f25aac7","not_provided","desktop","7","1","0","","","","","","working_memory","","null","<div class=""fixation"">Correct</div>","null","","","","","","","","","","","","","","","","",""
"html-keyboard-response","286","706823","0.0-5.0-5.0-0.23","69b3f02d28568b807f25aac7","not_provided","desktop","7","1","0","","","","","","working_memory","","null","<div class=""fixation"">+</div>","null","","","","","","","","","","","","","","","","",""
"html-keyboard-response","287","707025","0.0-5.0-5.0-1.23","69b3f02d28568b807f25aac7","not_provided","desktop","7","1","0","","","","","","working_memory","","null","<img class='c' src=images/squares/magenta.png><img class='e' src=images/squares/orange.png><img class='g' src=images/squares/green.png><img class='j' src=images/squares/blue.png><div class=""fixation"">+</div>","null","","","memory","exp","23","","","","","","","","","","","",""
"html-keyboard-response","288","707926","0.0-5.0-5.0-2.23","69b3f02d28568b807f25aac7","not_provided","desktop","7","1","0","","","","","","working_memory","","null","<div class=""fixation"">+</div>","null","","","","","","","","","","","","","","","","",""
"html-keyboard-response","289","708756","0.0-5.0-5.0-3.23","69b3f02d28568b807f25aac7","not_provided","desktop","7","1","0","","","","","","working_memory","","829","<img class='g' src=images/squares/green.png><div class=""fixation"">+</div>","s","","","test_squares","exp","23","4","s","true","sk","s","","","","","","",""
"html-keyboard-response","290","709258","0.0-5.0-5.0-4.23","69b3f02d28568b807f25aac7","not_provided","desktop","7","1","0","","","","","","working_memory","","null","<div class=""fixation"">Correct</div>","null","","","","","","","","","","","","","","","","",""
"html-keyboard-response","291","710259","0.0-5.0-5.0-0.24","69b3f02d28568b807f25aac7","not_provided","desktop","7","1","0","","","","","","working_memory","","null","<div class=""fixation"">+</div>","null","","","","","","","","","","","","","","","","",""
"html-keyboard-response","292","710461","0.0-5.0-5.0-1.24","69b3f02d28568b807f25aac7","not_provided","desktop","7","1","0","","","","","","working_memory","","null","<img class='b' src=images/squares/black.png><img class='c' src=images/squares/red.png><img class='d' src=images/squares/orange.png><img class='f' src=images/squares/brown.png><img class='i' src=images/squares/blue.png><img class='h' src=images/squares/yellow.png><img class='l' src=images/squares/magenta.png><img class='k' src=images/squares/green.png><div class=""fixation"">+</div>","null","","","memory","exp","24","","","","","","","","","","","",""
"html-keyboard-response","293","711362","0.0-5.0-5.0-2.24","69b3f02d28568b807f25aac7","not_provided","desktop","7","1","0","","","","","","working_memory","","null","<div class=""fixation"">+</div>","null","","","","","","","","","","","","","","","","",""
"html-keyboard-response","294","712917","0.0-5.0-5.0-3.24","69b3f02d28568b807f25aac7","not_provided","desktop","7","1","0","","","","","","working_memory","","1554","<img class='h' src=images/squares/yellow.png><div class=""fixation"">+</div>","s","","","test_squares","exp","24","8","s","true","sk","s","","","","","","",""
"html-keyboard-response","295","713418","0.0-5.0-5.0-4.24","69b3f02d28568b807f25aac7","not_provided","desktop","7","1","0","","","","","","working_memory","","null","<div class=""fixation"">Correct</div>","null","","","","","","","","","","","","","","","","",""
"html-keyboard-response","296","714420","0.0-5.0-5.0-0.25","69b3f02d28568b807f25aac7","not_provided","desktop","7","1","0","","","","","","working_memory","","null","<div class=""fixation"">+</div>","null","","","","","","","","","","","","","","","","",""
"html-keyboard-response","297","714621","0.0-5.0-5.0-1.25","69b3f02d28568b807f25aac7","not_provided","desktop","7","1","0","","","","","","working_memory","","null","<img class='c' src=images/squares/blue.png><img class='d' src=images/squares/red.png><img class='i' src=images/squares/magenta.png><img class='j' src=images/squares/yellow.png><div class=""fixation"">+</div>","null","","","memory","exp","25","","","","","","","","","","","",""
"html-keyboard-response","298","715522","0.0-5.0-5.0-2.25","69b3f02d28568b807f25aac7","not_provided","desktop","7","1","0","","","","","","working_memory","","null","<div class=""fixation"">+</div>","null","","","","","","","","","","","","","","","","",""
"html-keyboard-response","299","716596","0.0-5.0-5.0-3.25","69b3f02d28568b807f25aac7","not_provided","desktop","7","1","0","","","","","","working_memory","","1073","<img class='j' src=images/squares/yellow.png><div class=""fixation"">+</div>","s","","","test_squares","exp","25","4","s","true","sk","s","","","","","","",""
"html-keyboard-response","300","717097","0.0-5.0-5.0-4.25","69b3f02d28568b807f25aac7","not_provided","desktop","7","1","0","","","","","","working_memory","","null","<div class=""fixation"">Correct</div>","null","","","","","","","","","","","","","","","","",""
