"trial_type","trial_index","time_elapsed","internal_node_id","subject_id","study_id","device_type","blur_count","fullscreen_exit_count","failed_attention_checks","success","timeout","failed_images","failed_audio","failed_video","phase","value","rt","stimulus","response","view_history","question_order","trial_name","block_type","trial_num","set_size","correct_response","accuracy","mapping","condition","prompt","flipped","attention","expected_answer","category","question_index","task"
"pavlovia","0","1213","0.0-0.0","6989e54b0dfd382f095b37de","not_provided","desktop","0","0","0","","","","","","","","","","","","","","","","","","","","","","","","","","",""
"preload","1","2406","0.0-2.0","6989e54b0dfd382f095b37de","not_provided","desktop","0","0","0","true","false","[]","[]","[]","","","","","","","","","","","","","","","","","","","","","",""
"html-keyboard-response","2","21564","0.0-3.0-0.0","6989e54b0dfd382f095b37de","not_provided","desktop","0","0","0","","","","","","captcha","","","","","","","","","","","","","","","","","","","","",""
"fullscreen","3","29316","0.0-4.0","6989e54b0dfd382f095b37de","not_provided","desktop","0","0","0","true","","","","","setup","","","","","","","","","","","","","","","","","","","","",""
"call-function","4","29316","0.0-5.0-0.0","6989e54b0dfd382f095b37de","not_provided","desktop","0","0","0","","","","","","working_memory","","","","","","","","","","","","","","","","","","","","",""
"html-keyboard-response","5","63521","0.0-5.0-1.0","6989e54b0dfd382f095b37de","not_provided","desktop","0","0","0","","","","","","working_memory","","34188","<div style=""text-align:center;font-family:sans-serif;""><p>Welcome to the luck game experiment!</p><p>This two-day experiment takes part in a study aimed at developing better clinical treatments.</p><p>We appreciate your participation and require your full concentration.</p><br><p>This is a two-day study. Payment (£6/hour) is only given upon completing both parts today and tomorrow.</p><p>You must finish the second part for compensation. After today, you'll receive an invitation for tomorrow's session.</p><p>Please ensure you can attend both sessions before proceeding. Otherwise, you may exit now.</p><p>If you have any questions, please contact us via prolific.</p><br><p>Please stay attentive and in fullscreen mode to ensure payment.</p><p>Thank you for participating!</p><br><p id=""continue-prompt"" style=""visibility:hidden;""><b>Press any key to continue.</b></p></div>"," ","","","","","","","","","","","","","","","","",""
"instructions","6","123129","0.0-5.0-2.0-0.0","6989e54b0dfd382f095b37de","not_provided","desktop","0","0","0","","","","","","working_memory","","59608","","","[{""page_index"":0,""viewing_time"":2328},{""page_index"":1,""viewing_time"":5566},{""page_index"":2,""viewing_time"":5986},{""page_index"":3,""viewing_time"":5518},{""page_index"":4,""viewing_time"":6591},{""page_index"":5,""viewing_time"":7943},{""page_index"":6,""viewing_time"":14750},{""page_index"":7,""viewing_time"":3941},{""page_index"":8,""viewing_time"":6985}]","","","","","","","","","","","","","","","",""
"survey-multi-choice","7","171663","0.0-5.0-2.0-1.0","6989e54b0dfd382f095b37de","not_provided","desktop","0","0","0","","","","","","working_memory","","48534","","{""set_size"":""4 or 6"",""steps"":""True"",""choose_square"":""Press the 'k' or 's' key."",""remember"":""The color and location of the single 'test' square"",""task"":""To tell if the 'test' square is in the same color as the square previously appearing in this location""}","","[0,1,2,3,4]","test_squares_quiz","","","","","","","","","","","","","",""
"html-button-response","8","174727","0.0-5.0-2.0-2.0-0.0","6989e54b0dfd382f095b37de","not_provided","desktop","0","0","0","","","","","","working_memory","","3048","<p>Sorry, you made a mistake on the quiz.<br>Let's go back to the instructions &mdash; please read carefully before submitting again.<br>Thank you!</p>","0","","","","","","","","","","","","","","","","",""
"instructions","9","186980","0.0-5.0-2.1-0.1","6989e54b0dfd382f095b37de","not_provided","desktop","0","0","0","","","","","","working_memory","","12253","","","[{""page_index"":0,""viewing_time"":1185},{""page_index"":1,""viewing_time"":1265},{""page_index"":2,""viewing_time"":1570},{""page_index"":3,""viewing_time"":865},{""page_index"":4,""viewing_time"":1661},{""page_index"":5,""viewing_time"":2822},{""page_index"":6,""viewing_time"":1225},{""page_index"":7,""viewing_time"":828},{""page_index"":8,""viewing_time"":832}]","","","","","","","","","","","","","","","",""
"survey-multi-choice","10","203362","0.0-5.0-2.1-1.1","6989e54b0dfd382f095b37de","not_provided","desktop","0","0","0","","","","","","working_memory","","16382","","{""set_size"":""4 or 8"",""steps"":""True"",""choose_square"":""Press the 'k' or 's' key."",""remember"":""The color and location of the single 'test' square"",""task"":""To tell if the 'test' square is in the same color as the square previously appearing in this location""}","","[0,1,2,3,4]","test_squares_quiz","","","","","","","","","","","","","",""
"html-button-response","11","205094","0.0-5.0-2.1-2.1-0.1","6989e54b0dfd382f095b37de","not_provided","desktop","0","0","0","","","","","","working_memory","","1717","<p>Sorry, you made a mistake on the quiz.<br>Let's go back to the instructions &mdash; please read carefully before submitting again.<br>Thank you!</p>","0","","","","","","","","","","","","","","","","",""
"instructions","12","230901","0.0-5.0-2.2-0.2","6989e54b0dfd382f095b37de","not_provided","desktop","0","0","0","","","","","","working_memory","","25807","","","[{""page_index"":0,""viewing_time"":1299},{""page_index"":1,""viewing_time"":966},{""page_index"":2,""viewing_time"":3607},{""page_index"":3,""viewing_time"":1127},{""page_index"":4,""viewing_time"":4129},{""page_index"":5,""viewing_time"":5627},{""page_index"":6,""viewing_time"":7368},{""page_index"":7,""viewing_time"":952},{""page_index"":8,""viewing_time"":732}]","","","","","","","","","","","","","","","",""
"survey-multi-choice","13","263157","0.0-5.0-2.2-1.2","6989e54b0dfd382f095b37de","not_provided","desktop","0","0","0","","","","","","working_memory","","32256","","{""set_size"":""4 or 8"",""steps"":""True"",""choose_square"":""Press the 'k' or 's' key."",""remember"":""The colors and locations of the 'memory' squares"",""task"":""To tell if the 'test' square is in the same color as the square previously appearing in this location""}","","[0,1,2,3,4]","test_squares_quiz","","","","","","","","","","","","","",""
"html-keyboard-response","14","278541","0.0-5.0-3.0-0.0","6989e54b0dfd382f095b37de","not_provided","desktop","0","0","0","","","","","","working_memory","","15384","<p>We will now start some practice trials.<br><b>The practice trials will also include some trials in which you will need to remember only one square to make sure you understood the instructions.</b><br>You may already want to be ready with your fingers on '<b>s</b>' and '<b>k</b>'.<br><img class=""wm-example-img"" src=""images/examples/keyboard.png""><br><b style=""font-size:1.2em;"">&lsquo;K&rsquo; = SAME &nbsp;&nbsp;&nbsp; &lsquo;S&rsquo; = DIFFERENT</b><br><br><u>Please try to be as accurate as possible.</u><br><br><b>Press any key to begin</b></p>","arrowright","","","","","","","","","","","","","","","","",""
"html-keyboard-response","15","280548","0.0-5.0-3.0-1.0-0.0","6989e54b0dfd382f095b37de","not_provided","desktop","0","0","0","","","","","","working_memory","","null","<div class=""fixation"">+</div>","null","","","","","","","","","","","","","","","","",""
"html-keyboard-response","16","280768","0.0-5.0-3.0-1.0-1.0","6989e54b0dfd382f095b37de","not_provided","desktop","0","0","0","","","","","","working_memory","","null","<img class='lower2' src=images/squares/cyan.png><div class=""fixation"">+</div>","null","","","memory","practice","0","1","","","","","","","","","","",""
"html-keyboard-response","17","281670","0.0-5.0-3.0-1.0-2.0","6989e54b0dfd382f095b37de","not_provided","desktop","0","0","0","","","","","","working_memory","","null","<div class=""fixation"">+</div>","null","","","","","","","","","","","","","","","","",""
"html-keyboard-response","18","283725","0.0-5.0-3.0-1.0-3.0","6989e54b0dfd382f095b37de","not_provided","desktop","0","0","0","","","","","","working_memory","","2055","<img class='lower2' src=images/squares/magenta.png><div class=""fixation"">+</div>","s","","","test","practice","0","1","s","true","","","","","","","","",""
"html-keyboard-response","19","284231","0.0-5.0-3.0-1.0-4.0","6989e54b0dfd382f095b37de","not_provided","desktop","0","0","0","","","","","","working_memory","","null","<div class=""fixation"">Correct</div>","null","","","","","","","","","","","","","","","","",""
"html-keyboard-response","20","285246","0.0-5.0-3.0-1.0-0.1","6989e54b0dfd382f095b37de","not_provided","desktop","0","0","0","","","","","","working_memory","","null","<div class=""fixation"">+</div>","null","","","","","","","","","","","","","","","","",""
"html-keyboard-response","21","285452","0.0-5.0-3.0-1.0-1.1","6989e54b0dfd382f095b37de","not_provided","desktop","0","0","0","","","","","","working_memory","","null","<img class='a' src=images/squares/blue.png><img class='b' src=images/squares/cyan.png><img class='f' src=images/squares/orange.png><img class='d' src=images/squares/yellow.png><img class='i' src=images/squares/red.png><img class='g' src=images/squares/green.png><img class='l' src=images/squares/black.png><img class='j' src=images/squares/magenta.png><div class=""fixation"">+</div>","null","","","memory","practice","1","8","","","","","","","","","","",""
"html-keyboard-response","22","286354","0.0-5.0-3.0-1.0-2.1","6989e54b0dfd382f095b37de","not_provided","desktop","0","0","0","","","","","","working_memory","","null","<div class=""fixation"">+</div>","null","","","","","","","","","","","","","","","","",""
"html-keyboard-response","23","288096","0.0-5.0-3.0-1.0-3.1","6989e54b0dfd382f095b37de","not_provided","desktop","0","0","0","","","","","","working_memory","","1742","<img class='g' src=images/squares/green.png><div class=""fixation"">+</div>","k","","","test","practice","1","8","k","true","","","","","","","","",""
"html-keyboard-response","24","288598","0.0-5.0-3.0-1.0-4.1","6989e54b0dfd382f095b37de","not_provided","desktop","0","0","0","","","","","","working_memory","","null","<div class=""fixation"">Correct</div>","null","","","","","","","","","","","","","","","","",""
"html-keyboard-response","25","289612","0.0-5.0-3.0-1.0-0.2","6989e54b0dfd382f095b37de","not_provided","desktop","0","0","0","","","","","","working_memory","","null","<div class=""fixation"">+</div>","null","","","","","","","","","","","","","","","","",""
"html-keyboard-response","26","289819","0.0-5.0-3.0-1.0-1.2","6989e54b0dfd382f095b37de","not_provided","desktop","0","0","0","","","","","","working_memory","","null","<img class='upper2' src=images/squares/black.png><div class=""fixation"">+</div>","null","","","memory","practice","2","1","","","","","","","","","","",""
"html-keyboard-response","27","290721","0.0-5.0-3.0-1.0-2.2","6989e54b0dfd382f095b37de","not_provided","desktop","0","0","0","","","","","","working_memory","","null","<div class=""fixation"">+</div>","null","","","","","","","","","","","","","","","","",""
"html-keyboard-response","28","292635","0.0-5.0-3.0-1.0-3.2","6989e54b0dfd382f095b37de","not_provided","desktop","0","0","0","","","","","","working_memory","","1914","<img class='upper2' src=images/squares/green.png><div class=""fixation"">+</div>","s","","","test","practice","2","1","s","true","","","","","","","","",""
"html-keyboard-response","29","293146","0.0-5.0-3.0-1.0-4.2","6989e54b0dfd382f095b37de","not_provided","desktop","0","0","0","","","","","","working_memory","","null","<div class=""fixation"">Correct</div>","null","","","","","","","","","","","","","","","","",""
"html-keyboard-response","30","294162","0.0-5.0-3.0-1.0-0.3","6989e54b0dfd382f095b37de","not_provided","desktop","0","0","0","","","","","","working_memory","","null","<div class=""fixation"">+</div>","null","","","","","","","","","","","","","","","","",""
"html-keyboard-response","31","294384","0.0-5.0-3.0-1.0-1.3","6989e54b0dfd382f095b37de","not_provided","desktop","0","0","0","","","","","","working_memory","","null","<img class='b' src=images/squares/blue.png><img class='e' src=images/squares/cyan.png><img class='i' src=images/squares/black.png><img class='l' src=images/squares/green.png><div class=""fixation"">+</div>","null","","","memory","practice","3","4","","","","","","","","","","",""
"html-keyboard-response","32","295286","0.0-5.0-3.0-1.0-2.3","6989e54b0dfd382f095b37de","not_provided","desktop","0","0","0","","","","","","working_memory","","null","<div class=""fixation"">+</div>","null","","","","","","","","","","","","","","","","",""
"html-keyboard-response","33","296967","0.0-5.0-3.0-1.0-3.3","6989e54b0dfd382f095b37de","not_provided","desktop","0","0","0","","","","","","working_memory","","1681","<img class='e' src=images/squares/cyan.png><div class=""fixation"">+</div>","k","","","test","practice","3","4","k","true","","","","","","","","",""
"html-keyboard-response","34","297481","0.0-5.0-3.0-1.0-4.3","6989e54b0dfd382f095b37de","not_provided","desktop","0","0","0","","","","","","working_memory","","null","<div class=""fixation"">Correct</div>","null","","","","","","","","","","","","","","","","",""
"html-keyboard-response","35","298481","0.0-5.0-3.0-1.0-0.4","6989e54b0dfd382f095b37de","not_provided","desktop","0","0","0","","","","","","working_memory","","null","<div class=""fixation"">+</div>","null","","","","","","","","","","","","","","","","",""
"html-keyboard-response","36","298685","0.0-5.0-3.0-1.0-1.4","6989e54b0dfd382f095b37de","not_provided","desktop","0","0","0","","","","","","working_memory","","null","<img class='a' src=images/squares/green.png><img class='f' src=images/squares/red.png><img class='i' src=images/squares/cyan.png><img class='k' src=images/squares/black.png><div class=""fixation"">+</div>","null","","","memory","practice","4","4","","","","","","","","","","",""
"html-keyboard-response","37","299587","0.0-5.0-3.0-1.0-2.4","6989e54b0dfd382f095b37de","not_provided","desktop","0","0","0","","","","","","working_memory","","null","<div class=""fixation"">+</div>","null","","","","","","","","","","","","","","","","",""
"html-keyboard-response","38","301801","0.0-5.0-3.0-1.0-3.4","6989e54b0dfd382f095b37de","not_provided","desktop","0","0","0","","","","","","working_memory","","2214","<img class='a' src=images/squares/green.png><div class=""fixation"">+</div>","k","","","test","practice","4","4","k","true","","","","","","","","",""
"html-keyboard-response","39","302316","0.0-5.0-3.0-1.0-4.4","6989e54b0dfd382f095b37de","not_provided","desktop","0","0","0","","","","","","working_memory","","null","<div class=""fixation"">Correct</div>","null","","","","","","","","","","","","","","","","",""
"html-keyboard-response","40","303330","0.0-5.0-3.0-1.0-0.5","6989e54b0dfd382f095b37de","not_provided","desktop","0","0","0","","","","","","working_memory","","null","<div class=""fixation"">+</div>","null","","","","","","","","","","","","","","","","",""
"html-keyboard-response","41","303550","0.0-5.0-3.0-1.0-1.5","6989e54b0dfd382f095b37de","not_provided","desktop","0","0","0","","","","","","working_memory","","null","<img class='c' src=images/squares/brown.png><img class='e' src=images/squares/magenta.png><img class='i' src=images/squares/red.png><img class='k' src=images/squares/green.png><div class=""fixation"">+</div>","null","","","memory","practice","5","4","","","","","","","","","","",""
"html-keyboard-response","42","304453","0.0-5.0-3.0-1.0-2.5","6989e54b0dfd382f095b37de","not_provided","desktop","0","0","0","","","","","","working_memory","","null","<div class=""fixation"">+</div>","null","","","","","","","","","","","","","","","","",""
"html-keyboard-response","43","305261","0.0-5.0-3.0-1.0-3.5","6989e54b0dfd382f095b37de","not_provided","desktop","0","0","0","","","","","","working_memory","","808","<img class='c' src=images/squares/brown.png><div class=""fixation"">+</div>","k","","","test","practice","5","4","k","true","","","","","","","","",""
"html-keyboard-response","44","305764","0.0-5.0-3.0-1.0-4.5","6989e54b0dfd382f095b37de","not_provided","desktop","0","0","0","","","","","","working_memory","","null","<div class=""fixation"">Correct</div>","null","","","","","","","","","","","","","","","","",""
"html-keyboard-response","45","306779","0.0-5.0-3.0-1.0-0.6","6989e54b0dfd382f095b37de","not_provided","desktop","0","0","0","","","","","","working_memory","","null","<div class=""fixation"">+</div>","null","","","","","","","","","","","","","","","","",""
"html-keyboard-response","46","306985","0.0-5.0-3.0-1.0-1.6","6989e54b0dfd382f095b37de","not_provided","desktop","0","0","0","","","","","","working_memory","","null","<img class='c' src=images/squares/orange.png><img class='d' src=images/squares/yellow.png><img class='h' src=images/squares/magenta.png><img class='k' src=images/squares/black.png><div class=""fixation"">+</div>","null","","","memory","practice","6","4","","","","","","","","","","",""
"html-keyboard-response","47","307888","0.0-5.0-3.0-1.0-2.6","6989e54b0dfd382f095b37de","not_provided","desktop","0","0","0","","","","","","working_memory","","null","<div class=""fixation"">+</div>","null","","","","","","","","","","","","","","","","",""
"html-keyboard-response","48","308885","0.0-5.0-3.0-1.0-3.6","6989e54b0dfd382f095b37de","not_provided","desktop","0","0","0","","","","","","working_memory","","997","<img class='k' src=images/squares/green.png><div class=""fixation"">+</div>","k","","","test","practice","6","4","s","false","","","","","","","","",""
"html-keyboard-response","49","309398","0.0-5.0-3.0-1.0-4.6","6989e54b0dfd382f095b37de","not_provided","desktop","0","0","0","","","","","","working_memory","","null","<div class=""fixation"">Incorrect</div>","null","","","","","","","","","","","","","","","","",""
"html-keyboard-response","50","310412","0.0-5.0-3.0-1.0-0.7","6989e54b0dfd382f095b37de","not_provided","desktop","0","0","0","","","","","","working_memory","","null","<div class=""fixation"">+</div>","null","","","","","","","","","","","","","","","","",""
"html-keyboard-response","51","310618","0.0-5.0-3.0-1.0-1.7","6989e54b0dfd382f095b37de","not_provided","desktop","0","0","0","","","","","","working_memory","","null","<img class='b' src=images/squares/blue.png><img class='f' src=images/squares/red.png><img class='g' src=images/squares/orange.png><img class='l' src=images/squares/green.png><div class=""fixation"">+</div>","null","","","memory","practice","7","4","","","","","","","","","","",""
"html-keyboard-response","52","311536","0.0-5.0-3.0-1.0-2.7","6989e54b0dfd382f095b37de","not_provided","desktop","0","0","0","","","","","","working_memory","","null","<div class=""fixation"">+</div>","null","","","","","","","","","","","","","","","","",""
"html-keyboard-response","53","312484","0.0-5.0-3.0-1.0-3.7","6989e54b0dfd382f095b37de","not_provided","desktop","0","0","0","","","","","","working_memory","","948","<img class='f' src=images/squares/black.png><div class=""fixation"">+</div>","s","","","test","practice","7","4","s","true","","","","","","","","",""
"html-keyboard-response","54","312997","0.0-5.0-3.0-1.0-4.7","6989e54b0dfd382f095b37de","not_provided","desktop","0","0","0","","","","","","working_memory","","null","<div class=""fixation"">Correct</div>","null","","","","","","","","","","","","","","","","",""
"html-keyboard-response","55","313997","0.0-5.0-3.0-1.0-0.8","6989e54b0dfd382f095b37de","not_provided","desktop","0","0","0","","","","","","working_memory","","null","<div class=""fixation"">+</div>","null","","","","","","","","","","","","","","","","",""
"html-keyboard-response","56","314201","0.0-5.0-3.0-1.0-1.8","6989e54b0dfd382f095b37de","not_provided","desktop","0","0","0","","","","","","working_memory","","null","<img class='c' src=images/squares/yellow.png><img class='b' src=images/squares/cyan.png><img class='e' src=images/squares/black.png><img class='f' src=images/squares/green.png><img class='g' src=images/squares/brown.png><img class='i' src=images/squares/magenta.png><img class='j' src=images/squares/blue.png><img class='l' src=images/squares/orange.png><div class=""fixation"">+</div>","null","","","memory","practice","8","8","","","","","","","","","","",""
"html-keyboard-response","57","315119","0.0-5.0-3.0-1.0-2.8","6989e54b0dfd382f095b37de","not_provided","desktop","0","0","0","","","","","","working_memory","","null","<div class=""fixation"">+</div>","null","","","","","","","","","","","","","","","","",""
"html-keyboard-response","58","316394","0.0-5.0-3.0-1.0-3.8","6989e54b0dfd382f095b37de","not_provided","desktop","0","0","0","","","","","","working_memory","","1275","<img class='i' src=images/squares/magenta.png><div class=""fixation"">+</div>","k","","","test","practice","8","8","k","true","","","","","","","","",""
"html-keyboard-response","59","316912","0.0-5.0-3.0-1.0-4.8","6989e54b0dfd382f095b37de","not_provided","desktop","0","0","0","","","","","","working_memory","","null","<div class=""fixation"">Correct</div>","null","","","","","","","","","","","","","","","","",""
"html-keyboard-response","60","317913","0.0-5.0-3.0-1.0-0.9","6989e54b0dfd382f095b37de","not_provided","desktop","0","0","0","","","","","","working_memory","","null","<div class=""fixation"">+</div>","null","","","","","","","","","","","","","","","","",""
"html-keyboard-response","61","318117","0.0-5.0-3.0-1.0-1.9","6989e54b0dfd382f095b37de","not_provided","desktop","0","0","0","","","","","","working_memory","","null","<img class='a' src=images/squares/red.png><img class='c' src=images/squares/brown.png><img class='e' src=images/squares/orange.png><img class='d' src=images/squares/green.png><img class='i' src=images/squares/cyan.png><img class='h' src=images/squares/blue.png><img class='k' src=images/squares/magenta.png><img class='l' src=images/squares/black.png><div class=""fixation"">+</div>","null","","","memory","practice","9","8","","","","","","","","","","",""
"html-keyboard-response","62","319020","0.0-5.0-3.0-1.0-2.9","6989e54b0dfd382f095b37de","not_provided","desktop","0","0","0","","","","","","working_memory","","null","<div class=""fixation"">+</div>","null","","","","","","","","","","","","","","","","",""
"html-keyboard-response","63","320060","0.0-5.0-3.0-1.0-3.9","6989e54b0dfd382f095b37de","not_provided","desktop","0","0","0","","","","","","working_memory","","1040","<img class='d' src=images/squares/green.png><div class=""fixation"">+</div>","k","","","test","practice","9","8","k","true","","","","","","","","",""
"html-keyboard-response","64","320564","0.0-5.0-3.0-1.0-4.9","6989e54b0dfd382f095b37de","not_provided","desktop","0","0","0","","","","","","working_memory","","null","<div class=""fixation"">Correct</div>","null","","","","","","","","","","","","","","","","",""
"html-keyboard-response","65","321579","0.0-5.0-3.0-1.0-0.10","6989e54b0dfd382f095b37de","not_provided","desktop","0","0","0","","","","","","working_memory","","null","<div class=""fixation"">+</div>","null","","","","","","","","","","","","","","","","",""
"html-keyboard-response","66","321784","0.0-5.0-3.0-1.0-1.10","6989e54b0dfd382f095b37de","not_provided","desktop","0","0","0","","","","","","working_memory","","null","<img class='c' src=images/squares/green.png><img class='d' src=images/squares/red.png><img class='i' src=images/squares/black.png><img class='l' src=images/squares/magenta.png><div class=""fixation"">+</div>","null","","","memory","practice","10","4","","","","","","","","","","",""
"html-keyboard-response","67","322702","0.0-5.0-3.0-1.0-2.10","6989e54b0dfd382f095b37de","not_provided","desktop","0","0","0","","","","","","working_memory","","null","<div class=""fixation"">+</div>","null","","","","","","","","","","","","","","","","",""
"html-keyboard-response","68","323790","0.0-5.0-3.0-1.0-3.10","6989e54b0dfd382f095b37de","not_provided","desktop","0","0","0","","","","","","working_memory","","1088","<img class='l' src=images/squares/magenta.png><div class=""fixation"">+</div>","k","","","test","practice","10","4","k","true","","","","","","","","",""
"html-keyboard-response","69","324295","0.0-5.0-3.0-1.0-4.10","6989e54b0dfd382f095b37de","not_provided","desktop","0","0","0","","","","","","working_memory","","null","<div class=""fixation"">Correct</div>","null","","","","","","","","","","","","","","","","",""
"html-keyboard-response","70","325312","0.0-5.0-3.0-1.0-0.11","6989e54b0dfd382f095b37de","not_provided","desktop","0","0","0","","","","","","working_memory","","null","<div class=""fixation"">+</div>","null","","","","","","","","","","","","","","","","",""
"html-keyboard-response","71","325517","0.0-5.0-3.0-1.0-1.11","6989e54b0dfd382f095b37de","not_provided","desktop","0","0","0","","","","","","working_memory","","null","<img class='a' src=images/squares/green.png><img class='e' src=images/squares/brown.png><img class='h' src=images/squares/cyan.png><img class='j' src=images/squares/magenta.png><div class=""fixation"">+</div>","null","","","memory","practice","11","4","","","","","","","","","","",""
"html-keyboard-response","72","326418","0.0-5.0-3.0-1.0-2.11","6989e54b0dfd382f095b37de","not_provided","desktop","0","0","0","","","","","","working_memory","","null","<div class=""fixation"">+</div>","null","","","","","","","","","","","","","","","","",""
"html-keyboard-response","73","327427","0.0-5.0-3.0-1.0-3.11","6989e54b0dfd382f095b37de","not_provided","desktop","0","0","0","","","","","","working_memory","","1009","<img class='h' src=images/squares/yellow.png><div class=""fixation"">+</div>","s","","","test","practice","11","4","s","true","","","","","","","","",""
"html-keyboard-response","74","327930","0.0-5.0-3.0-1.0-4.11","6989e54b0dfd382f095b37de","not_provided","desktop","0","0","0","","","","","","working_memory","","null","<div class=""fixation"">Correct</div>","null","","","","","","","","","","","","","","","","",""
"html-keyboard-response","75","328944","0.0-5.0-3.0-1.0-0.12","6989e54b0dfd382f095b37de","not_provided","desktop","0","0","0","","","","","","working_memory","","null","<div class=""fixation"">+</div>","null","","","","","","","","","","","","","","","","",""
"html-keyboard-response","76","329151","0.0-5.0-3.0-1.0-1.12","6989e54b0dfd382f095b37de","not_provided","desktop","0","0","0","","","","","","working_memory","","null","<img class='c' src=images/squares/cyan.png><img class='d' src=images/squares/red.png><img class='g' src=images/squares/orange.png><img class='l' src=images/squares/black.png><div class=""fixation"">+</div>","null","","","memory","practice","12","4","","","","","","","","","","",""
"html-keyboard-response","77","330068","0.0-5.0-3.0-1.0-2.12","6989e54b0dfd382f095b37de","not_provided","desktop","0","0","0","","","","","","working_memory","","null","<div class=""fixation"">+</div>","null","","","","","","","","","","","","","","","","",""
"html-keyboard-response","78","330969","0.0-5.0-3.0-1.0-3.12","6989e54b0dfd382f095b37de","not_provided","desktop","0","0","0","","","","","","working_memory","","901","<img class='c' src=images/squares/cyan.png><div class=""fixation"">+</div>","k","","","test","practice","12","4","k","true","","","","","","","","",""
"html-keyboard-response","79","331479","0.0-5.0-3.0-1.0-4.12","6989e54b0dfd382f095b37de","not_provided","desktop","0","0","0","","","","","","working_memory","","null","<div class=""fixation"">Correct</div>","null","","","","","","","","","","","","","","","","",""
"html-keyboard-response","80","332479","0.0-5.0-3.0-1.0-0.13","6989e54b0dfd382f095b37de","not_provided","desktop","0","0","0","","","","","","working_memory","","null","<div class=""fixation"">+</div>","null","","","","","","","","","","","","","","","","",""
"html-keyboard-response","81","332684","0.0-5.0-3.0-1.0-1.13","6989e54b0dfd382f095b37de","not_provided","desktop","0","0","0","","","","","","working_memory","","null","<img class='upper3' src=images/squares/cyan.png><div class=""fixation"">+</div>","null","","","memory","practice","13","1","","","","","","","","","","",""
"html-keyboard-response","82","333585","0.0-5.0-3.0-1.0-2.13","6989e54b0dfd382f095b37de","not_provided","desktop","0","0","0","","","","","","working_memory","","null","<div class=""fixation"">+</div>","null","","","","","","","","","","","","","","","","",""
"html-keyboard-response","83","334158","0.0-5.0-3.0-1.0-3.13","6989e54b0dfd382f095b37de","not_provided","desktop","0","0","0","","","","","","working_memory","","573","<img class='upper3' src=images/squares/orange.png><div class=""fixation"">+</div>","s","","","test","practice","13","1","s","true","","","","","","","","",""
"html-keyboard-response","84","334662","0.0-5.0-3.0-1.0-4.13","6989e54b0dfd382f095b37de","not_provided","desktop","0","0","0","","","","","","working_memory","","null","<div class=""fixation"">Correct</div>","null","","","","","","","","","","","","","","","","",""
"html-keyboard-response","85","335662","0.0-5.0-3.0-1.0-0.14","6989e54b0dfd382f095b37de","not_provided","desktop","0","0","0","","","","","","working_memory","","null","<div class=""fixation"">+</div>","null","","","","","","","","","","","","","","","","",""
"html-keyboard-response","86","335867","0.0-5.0-3.0-1.0-1.14","6989e54b0dfd382f095b37de","not_provided","desktop","0","0","0","","","","","","working_memory","","null","<img class='c' src=images/squares/magenta.png><img class='a' src=images/squares/red.png><img class='d' src=images/squares/cyan.png><img class='f' src=images/squares/brown.png><img class='h' src=images/squares/green.png><img class='i' src=images/squares/yellow.png><img class='j' src=images/squares/blue.png><img class='k' src=images/squares/orange.png><div class=""fixation"">+</div>","null","","","memory","practice","14","8","","","","","","","","","","",""
"html-keyboard-response","87","336768","0.0-5.0-3.0-1.0-2.14","6989e54b0dfd382f095b37de","not_provided","desktop","0","0","0","","","","","","working_memory","","null","<div class=""fixation"">+</div>","null","","","","","","","","","","","","","","","","",""
"html-keyboard-response","88","337699","0.0-5.0-3.0-1.0-3.14","6989e54b0dfd382f095b37de","not_provided","desktop","0","0","0","","","","","","working_memory","","931","<img class='f' src=images/squares/brown.png><div class=""fixation"">+</div>","k","","","test","practice","14","8","k","true","","","","","","","","",""
"html-keyboard-response","89","338212","0.0-5.0-3.0-1.0-4.14","6989e54b0dfd382f095b37de","not_provided","desktop","0","0","0","","","","","","working_memory","","null","<div class=""fixation"">Correct</div>","null","","","","","","","","","","","","","","","","",""
"html-keyboard-response","90","345526","0.0-5.0-4.0","6989e54b0dfd382f095b37de","not_provided","desktop","0","0","0","","","","","","working_memory","","7314","<div style=""text-align:center;font-family:sans-serif;""><p>Good job! You have finished the practice.</p><p>We will now start the real experiment.</p><p>Please try to be as accurate as possible.</p><p><b><u>Note: random guessing may risk your payment.</u></b></p><br><p><b>Press any key to begin.</b></p></div>"," ","","","","","","","","","","","","","","","","",""
"html-keyboard-response","91","346544","0.0-5.0-5.0-0.0","6989e54b0dfd382f095b37de","not_provided","desktop","0","0","0","","","","","","working_memory","","null","<div class=""fixation"">+</div>","null","","","","","","","","","","","","","","","","",""
"html-keyboard-response","92","346755","0.0-5.0-5.0-1.0","6989e54b0dfd382f095b37de","not_provided","desktop","0","0","0","","","","","","working_memory","","null","<img class='a' src=images/squares/orange.png><img class='c' src=images/squares/yellow.png><img class='f' src=images/squares/black.png><img class='e' src=images/squares/brown.png><img class='h' src=images/squares/red.png><img class='i' src=images/squares/cyan.png><img class='j' src=images/squares/blue.png><img class='k' src=images/squares/green.png><div class=""fixation"">+</div>","null","","","memory","exp","0","","","","","","","","","","","",""
"html-keyboard-response","93","347669","0.0-5.0-5.0-2.0","6989e54b0dfd382f095b37de","not_provided","desktop","0","0","0","","","","","","working_memory","","null","<div class=""fixation"">+</div>","null","","","","","","","","","","","","","","","","",""
"html-keyboard-response","94","349287","0.0-5.0-5.0-3.0","6989e54b0dfd382f095b37de","not_provided","desktop","0","0","0","","","","","","working_memory","","1618","<img class='a' src=images/squares/magenta.png><div class=""fixation"">+</div>","s","","","test_squares","exp","0","8","s","true","ks","d","","","","","","",""
"html-keyboard-response","95","349796","0.0-5.0-5.0-4.0","6989e54b0dfd382f095b37de","not_provided","desktop","0","0","0","","","","","","working_memory","","null","<div class=""fixation"">Correct</div>","null","","","","","","","","","","","","","","","","",""
"html-keyboard-response","96","350811","0.0-5.0-5.0-0.1","6989e54b0dfd382f095b37de","not_provided","desktop","0","0","0","","","","","","working_memory","","null","<div class=""fixation"">+</div>","null","","","","","","","","","","","","","","","","",""
"html-keyboard-response","97","351031","0.0-5.0-5.0-1.1","6989e54b0dfd382f095b37de","not_provided","desktop","0","0","0","","","","","","working_memory","","null","<img class='b' src=images/squares/blue.png><img class='d' src=images/squares/yellow.png><img class='h' src=images/squares/red.png><img class='j' src=images/squares/green.png><div class=""fixation"">+</div>","null","","","memory","exp","1","","","","","","","","","","","",""
"html-keyboard-response","98","351950","0.0-5.0-5.0-2.1","6989e54b0dfd382f095b37de","not_provided","desktop","0","0","0","","","","","","working_memory","","null","<div class=""fixation"">+</div>","null","","","","","","","","","","","","","","","","",""
"html-keyboard-response","99","352727","0.0-5.0-5.0-3.1","6989e54b0dfd382f095b37de","not_provided","desktop","0","0","0","","","","","","working_memory","","777","<img class='j' src=images/squares/black.png><div class=""fixation"">+</div>","s","","","test_squares","exp","1","4","s","true","ks","d","","","","","","",""
"html-keyboard-response","100","353245","0.0-5.0-5.0-4.1","6989e54b0dfd382f095b37de","not_provided","desktop","0","0","0","","","","","","working_memory","","null","<div class=""fixation"">Correct</div>","null","","","","","","","","","","","","","","","","",""
"html-keyboard-response","101","354250","0.0-5.0-5.0-0.2","6989e54b0dfd382f095b37de","not_provided","desktop","0","0","0","","","","","","working_memory","","null","<div class=""fixation"">+</div>","null","","","","","","","","","","","","","","","","",""
"html-keyboard-response","102","354465","0.0-5.0-5.0-1.2","6989e54b0dfd382f095b37de","not_provided","desktop","0","0","0","","","","","","working_memory","","null","<img class='c' src=images/squares/blue.png><img class='a' src=images/squares/red.png><img class='d' src=images/squares/magenta.png><img class='e' src=images/squares/yellow.png><img class='h' src=images/squares/green.png><img class='i' src=images/squares/cyan.png><img class='l' src=images/squares/orange.png><img class='j' src=images/squares/black.png><div class=""fixation"">+</div>","null","","","memory","exp","2","","","","","","","","","","","",""
"html-keyboard-response","103","355368","0.0-5.0-5.0-2.2","6989e54b0dfd382f095b37de","not_provided","desktop","0","0","0","","","","","","working_memory","","null","<div class=""fixation"">+</div>","null","","","","","","","","","","","","","","","","",""
"html-keyboard-response","104","356143","0.0-5.0-5.0-3.2","6989e54b0dfd382f095b37de","not_provided","desktop","0","0","0","","","","","","working_memory","","775","<img class='e' src=images/squares/brown.png><div class=""fixation"">+</div>","s","","","test_squares","exp","2","8","s","true","ks","d","","","","","","",""
"html-keyboard-response","105","356661","0.0-5.0-5.0-4.2","6989e54b0dfd382f095b37de","not_provided","desktop","0","0","0","","","","","","working_memory","","null","<div class=""fixation"">Correct</div>","null","","","","","","","","","","","","","","","","",""
"html-keyboard-response","106","357661","0.0-5.0-5.0-0.3","6989e54b0dfd382f095b37de","not_provided","desktop","0","0","0","","","","","","working_memory","","null","<div class=""fixation"">+</div>","null","","","","","","","","","","","","","","","","",""
"html-keyboard-response","107","357865","0.0-5.0-5.0-1.3","6989e54b0dfd382f095b37de","not_provided","desktop","0","0","0","","","","","","working_memory","","null","<img class='a' src=images/squares/brown.png><img class='c' src=images/squares/black.png><img class='f' src=images/squares/cyan.png><img class='d' src=images/squares/red.png><img class='g' src=images/squares/blue.png><img class='h' src=images/squares/magenta.png><img class='k' src=images/squares/green.png><img class='j' src=images/squares/orange.png><div class=""fixation"">+</div>","null","","","memory","exp","3","","","","","","","","","","","",""
"html-keyboard-response","108","358767","0.0-5.0-5.0-2.3","6989e54b0dfd382f095b37de","not_provided","desktop","0","0","0","","","","","","working_memory","","null","<div class=""fixation"">+</div>","null","","","","","","","","","","","","","","","","",""
"html-keyboard-response","109","359699","0.0-5.0-5.0-3.3","6989e54b0dfd382f095b37de","not_provided","desktop","0","0","0","","","","","","working_memory","","932","<img class='c' src=images/squares/black.png><div class=""fixation"">+</div>","k","","","test_squares","exp","3","8","k","true","ks","s","","","","","","",""
"html-keyboard-response","110","360228","0.0-5.0-5.0-4.3","6989e54b0dfd382f095b37de","not_provided","desktop","0","0","0","","","","","","working_memory","","null","<div class=""fixation"">Correct</div>","null","","","","","","","","","","","","","","","","",""
"html-keyboard-response","111","361244","0.0-5.0-5.0-0.4","6989e54b0dfd382f095b37de","not_provided","desktop","0","0","0","","","","","","working_memory","","null","<div class=""fixation"">+</div>","null","","","","","","","","","","","","","","","","",""
"html-keyboard-response","112","361464","0.0-5.0-5.0-1.4","6989e54b0dfd382f095b37de","not_provided","desktop","0","0","0","","","","","","working_memory","","null","<img class='c' src=images/squares/magenta.png><img class='d' src=images/squares/blue.png><img class='h' src=images/squares/red.png><img class='l' src=images/squares/brown.png><div class=""fixation"">+</div>","null","","","memory","exp","4","","","","","","","","","","","",""
"html-keyboard-response","113","362368","0.0-5.0-5.0-2.4","6989e54b0dfd382f095b37de","not_provided","desktop","0","0","0","","","","","","working_memory","","null","<div class=""fixation"">+</div>","null","","","","","","","","","","","","","","","","",""
"html-keyboard-response","114","363064","0.0-5.0-5.0-3.4","6989e54b0dfd382f095b37de","not_provided","desktop","0","0","0","","","","","","working_memory","","696","<img class='h' src=images/squares/red.png><div class=""fixation"">+</div>","k","","","test_squares","exp","4","4","k","true","ks","s","","","","","","",""
"html-keyboard-response","115","363578","0.0-5.0-5.0-4.4","6989e54b0dfd382f095b37de","not_provided","desktop","0","0","0","","","","","","working_memory","","null","<div class=""fixation"">Correct</div>","null","","","","","","","","","","","","","","","","",""
"html-keyboard-response","116","364578","0.0-5.0-5.0-0.5","6989e54b0dfd382f095b37de","not_provided","desktop","0","0","0","","","","","","working_memory","","null","<div class=""fixation"">+</div>","null","","","","","","","","","","","","","","","","",""
"html-keyboard-response","117","364783","0.0-5.0-5.0-1.5","6989e54b0dfd382f095b37de","not_provided","desktop","0","0","0","","","","","","working_memory","","null","<img class='b' src=images/squares/black.png><img class='f' src=images/squares/green.png><img class='i' src=images/squares/orange.png><img class='k' src=images/squares/brown.png><div class=""fixation"">+</div>","null","","","memory","exp","5","","","","","","","","","","","",""
"html-keyboard-response","118","365685","0.0-5.0-5.0-2.5","6989e54b0dfd382f095b37de","not_provided","desktop","0","0","0","","","","","","working_memory","","null","<div class=""fixation"">+</div>","null","","","","","","","","","","","","","","","","",""
"html-keyboard-response","119","366351","0.0-5.0-5.0-3.5","6989e54b0dfd382f095b37de","not_provided","desktop","0","0","0","","","","","","working_memory","","666","<img class='k' src=images/squares/brown.png><div class=""fixation"">+</div>","k","","","test_squares","exp","5","4","k","true","ks","s","","","","","","",""
"html-keyboard-response","120","366860","0.0-5.0-5.0-4.5","6989e54b0dfd382f095b37de","not_provided","desktop","0","0","0","","","","","","working_memory","","null","<div class=""fixation"">Correct</div>","null","","","","","","","","","","","","","","","","",""
"html-keyboard-response","121","367861","0.0-5.0-5.0-0.6","6989e54b0dfd382f095b37de","not_provided","desktop","0","0","0","","","","","","working_memory","","null","<div class=""fixation"">+</div>","null","","","","","","","","","","","","","","","","",""
"html-keyboard-response","122","368065","0.0-5.0-5.0-1.6","6989e54b0dfd382f095b37de","not_provided","desktop","0","0","0","","","","","","working_memory","","null","<img class='a' src=images/squares/cyan.png><img class='b' src=images/squares/orange.png><img class='d' src=images/squares/brown.png><img class='f' src=images/squares/black.png><img class='h' src=images/squares/yellow.png><img class='i' src=images/squares/blue.png><img class='k' src=images/squares/magenta.png><img class='l' src=images/squares/red.png><div class=""fixation"">+</div>","null","","","memory","exp","6","","","","","","","","","","","",""
"html-keyboard-response","123","368967","0.0-5.0-5.0-2.6","6989e54b0dfd382f095b37de","not_provided","desktop","0","0","0","","","","","","working_memory","","null","<div class=""fixation"">+</div>","null","","","","","","","","","","","","","","","","",""
"html-keyboard-response","124","369665","0.0-5.0-5.0-3.6","6989e54b0dfd382f095b37de","not_provided","desktop","0","0","0","","","","","","working_memory","","698","<img class='l' src=images/squares/red.png><div class=""fixation"">+</div>","k","","","test_squares","exp","6","8","k","true","ks","s","","","","","","",""
"html-keyboard-response","125","370178","0.0-5.0-5.0-4.6","6989e54b0dfd382f095b37de","not_provided","desktop","0","0","0","","","","","","working_memory","","null","<div class=""fixation"">Correct</div>","null","","","","","","","","","","","","","","","","",""
"html-keyboard-response","126","371192","0.0-5.0-5.0-0.7","6989e54b0dfd382f095b37de","not_provided","desktop","0","0","0","","","","","","working_memory","","null","<div class=""fixation"">+</div>","null","","","","","","","","","","","","","","","","",""
"html-keyboard-response","127","371399","0.0-5.0-5.0-1.7","6989e54b0dfd382f095b37de","not_provided","desktop","0","0","0","","","","","","working_memory","","null","<img class='b' src=images/squares/magenta.png><img class='f' src=images/squares/blue.png><img class='i' src=images/squares/orange.png><img class='k' src=images/squares/yellow.png><div class=""fixation"">+</div>","null","","","memory","exp","7","","","","","","","","","","","",""
"html-keyboard-response","128","372316","0.0-5.0-5.0-2.7","6989e54b0dfd382f095b37de","not_provided","desktop","0","0","0","","","","","","working_memory","","null","<div class=""fixation"">+</div>","null","","","","","","","","","","","","","","","","",""
"html-keyboard-response","129","373623","0.0-5.0-5.0-3.7","6989e54b0dfd382f095b37de","not_provided","desktop","0","0","0","","","","","","working_memory","","1307","<img class='i' src=images/squares/brown.png><div class=""fixation"">+</div>","s","","","test_squares","exp","7","4","s","true","ks","d","","","","","","",""
"html-keyboard-response","130","374129","0.0-5.0-5.0-4.7","6989e54b0dfd382f095b37de","not_provided","desktop","0","0","0","","","","","","working_memory","","null","<div class=""fixation"">Correct</div>","null","","","","","","","","","","","","","","","","",""
"html-keyboard-response","131","375142","0.0-5.0-5.0-0.8","6989e54b0dfd382f095b37de","not_provided","desktop","0","0","0","","","","","","working_memory","","null","<div class=""fixation"">+</div>","null","","","","","","","","","","","","","","","","",""
"html-keyboard-response","132","375348","0.0-5.0-5.0-1.8","6989e54b0dfd382f095b37de","not_provided","desktop","0","0","0","","","","","","working_memory","","null","<img class='a' src=images/squares/brown.png><img class='e' src=images/squares/green.png><img class='g' src=images/squares/red.png><img class='l' src=images/squares/orange.png><div class=""fixation"">+</div>","null","","","memory","exp","8","","","","","","","","","","","",""
"html-keyboard-response","133","376251","0.0-5.0-5.0-2.8","6989e54b0dfd382f095b37de","not_provided","desktop","0","0","0","","","","","","working_memory","","null","<div class=""fixation"">+</div>","null","","","","","","","","","","","","","","","","",""
"html-keyboard-response","134","376855","0.0-5.0-5.0-3.8","6989e54b0dfd382f095b37de","not_provided","desktop","0","0","0","","","","","","working_memory","","604","<img class='e' src=images/squares/green.png><div class=""fixation"">+</div>","k","","","test_squares","exp","8","4","k","true","ks","s","","","","","","",""
"html-keyboard-response","135","377376","0.0-5.0-5.0-4.8","6989e54b0dfd382f095b37de","not_provided","desktop","0","0","0","","","","","","working_memory","","null","<div class=""fixation"">Correct</div>","null","","","","","","","","","","","","","","","","",""
"html-keyboard-response","136","378392","0.0-5.0-5.0-0.9","6989e54b0dfd382f095b37de","not_provided","desktop","0","0","0","","","","","","working_memory","","null","<div class=""fixation"">+</div>","null","","","","","","","","","","","","","","","","",""
"html-keyboard-response","137","378600","0.0-5.0-5.0-1.9","6989e54b0dfd382f095b37de","not_provided","desktop","0","0","0","","","","","","working_memory","","null","<img class='a' src=images/squares/green.png><img class='e' src=images/squares/red.png><img class='g' src=images/squares/blue.png><img class='j' src=images/squares/black.png><div class=""fixation"">+</div>","null","","","memory","exp","9","","","","","","","","","","","",""
"html-keyboard-response","138","379516","0.0-5.0-5.0-2.9","6989e54b0dfd382f095b37de","not_provided","desktop","0","0","0","","","","","","working_memory","","null","<div class=""fixation"">+</div>","null","","","","","","","","","","","","","","","","",""
"html-keyboard-response","139","380073","0.0-5.0-5.0-3.9","6989e54b0dfd382f095b37de","not_provided","desktop","0","0","0","","","","","","working_memory","","557","<img class='e' src=images/squares/red.png><div class=""fixation"">+</div>","k","","","test_squares","exp","9","4","k","true","ks","s","","","","","","",""
"html-keyboard-response","140","380578","0.0-5.0-5.0-4.9","6989e54b0dfd382f095b37de","not_provided","desktop","0","0","0","","","","","","working_memory","","null","<div class=""fixation"">Correct</div>","null","","","","","","","","","","","","","","","","",""
"html-keyboard-response","141","381592","0.0-5.0-5.0-0.10","6989e54b0dfd382f095b37de","not_provided","desktop","0","0","0","","","","","","working_memory","","null","<div class=""fixation"">+</div>","null","","","","","","","","","","","","","","","","",""
"html-keyboard-response","142","381800","0.0-5.0-5.0-1.10","6989e54b0dfd382f095b37de","not_provided","desktop","0","0","0","","","","","","working_memory","","null","<img class='c' src=images/squares/blue.png><img class='e' src=images/squares/red.png><img class='g' src=images/squares/orange.png><img class='j' src=images/squares/magenta.png><div class=""fixation"">+</div>","null","","","memory","exp","10","","","","","","","","","","","",""
"html-keyboard-response","143","382702","0.0-5.0-5.0-2.10","6989e54b0dfd382f095b37de","not_provided","desktop","0","0","0","","","","","","working_memory","","null","<div class=""fixation"">+</div>","null","","","","","","","","","","","","","","","","",""
"html-keyboard-response","144","383368","0.0-5.0-5.0-3.10","6989e54b0dfd382f095b37de","not_provided","desktop","0","0","0","","","","","","working_memory","","666","<img class='e' src=images/squares/brown.png><div class=""fixation"">+</div>","s","","","test_squares","exp","10","4","s","true","ks","d","","","","","","",""
"html-keyboard-response","145","383877","0.0-5.0-5.0-4.10","6989e54b0dfd382f095b37de","not_provided","desktop","0","0","0","","","","","","working_memory","","null","<div class=""fixation"">Correct</div>","null","","","","","","","","","","","","","","","","",""
"html-keyboard-response","146","384877","0.0-5.0-5.0-0.11","6989e54b0dfd382f095b37de","not_provided","desktop","0","0","0","","","","","","working_memory","","null","<div class=""fixation"">+</div>","null","","","","","","","","","","","","","","","","",""
"html-keyboard-response","147","385082","0.0-5.0-5.0-1.11","6989e54b0dfd382f095b37de","not_provided","desktop","0","0","0","","","","","","working_memory","","null","<img class='c' src=images/squares/blue.png><img class='f' src=images/squares/black.png><img class='g' src=images/squares/cyan.png><img class='l' src=images/squares/green.png><div class=""fixation"">+</div>","null","","","memory","exp","11","","","","","","","","","","","",""
"html-keyboard-response","148","385984","0.0-5.0-5.0-2.11","6989e54b0dfd382f095b37de","not_provided","desktop","0","0","0","","","","","","working_memory","","null","<div class=""fixation"">+</div>","null","","","","","","","","","","","","","","","","",""
"html-keyboard-response","149","386665","0.0-5.0-5.0-3.11","6989e54b0dfd382f095b37de","not_provided","desktop","0","0","0","","","","","","working_memory","","681","<img class='f' src=images/squares/yellow.png><div class=""fixation"">+</div>","s","","","test_squares","exp","11","4","s","true","ks","d","","","","","","",""
"html-keyboard-response","150","387177","0.0-5.0-5.0-4.11","6989e54b0dfd382f095b37de","not_provided","desktop","0","0","0","","","","","","working_memory","","null","<div class=""fixation"">Correct</div>","null","","","","","","","","","","","","","","","","",""
"html-keyboard-response","151","388179","0.0-5.0-5.0-0.12","6989e54b0dfd382f095b37de","not_provided","desktop","0","0","0","","","","","","working_memory","","null","<div class=""fixation"">+</div>","null","","","","","","","","","","","","","","","","",""
"html-keyboard-response","152","388381","0.0-5.0-5.0-1.12","6989e54b0dfd382f095b37de","not_provided","desktop","0","0","0","","","","","","working_memory","","null","<img class='c' src=images/squares/yellow.png><img class='f' src=images/squares/green.png><img class='i' src=images/squares/orange.png><img class='j' src=images/squares/red.png><div class=""fixation"">+</div>","null","","","memory","exp","12","","","","","","","","","","","",""
"html-keyboard-response","153","389283","0.0-5.0-5.0-2.12","6989e54b0dfd382f095b37de","not_provided","desktop","0","0","0","","","","","","working_memory","","null","<div class=""fixation"">+</div>","null","","","","","","","","","","","","","","","","",""
"html-keyboard-response","154","389918","0.0-5.0-5.0-3.12","6989e54b0dfd382f095b37de","not_provided","desktop","0","0","0","","","","","","working_memory","","635","<img class='j' src=images/squares/red.png><div class=""fixation"">+</div>","k","","","test_squares","exp","12","4","k","true","ks","s","","","","","","",""
"html-keyboard-response","155","390443","0.0-5.0-5.0-4.12","6989e54b0dfd382f095b37de","not_provided","desktop","0","0","0","","","","","","working_memory","","null","<div class=""fixation"">Correct</div>","null","","","","","","","","","","","","","","","","",""
"html-keyboard-response","156","391459","0.0-5.0-5.0-0.13","6989e54b0dfd382f095b37de","not_provided","desktop","0","0","0","","","","","","working_memory","","null","<div class=""fixation"">+</div>","null","","","","","","","","","","","","","","","","",""
"html-keyboard-response","157","391680","0.0-5.0-5.0-1.13","6989e54b0dfd382f095b37de","not_provided","desktop","0","0","0","","","","","","working_memory","","null","<img class='c' src=images/squares/red.png><img class='b' src=images/squares/magenta.png><img class='e' src=images/squares/brown.png><img class='d' src=images/squares/green.png><img class='h' src=images/squares/blue.png><img class='i' src=images/squares/yellow.png><img class='j' src=images/squares/cyan.png><img class='k' src=images/squares/black.png><div class=""fixation"">+</div>","null","","","memory","exp","13","","","","","","","","","","","",""
"html-keyboard-response","158","392583","0.0-5.0-5.0-2.13","6989e54b0dfd382f095b37de","not_provided","desktop","0","0","0","","","","","","working_memory","","null","<div class=""fixation"">+</div>","null","","","","","","","","","","","","","","","","",""
"html-keyboard-response","159","393093","0.0-5.0-5.0-3.13","6989e54b0dfd382f095b37de","not_provided","desktop","0","0","0","","","","","","working_memory","","510","<img class='c' src=images/squares/red.png><div class=""fixation"">+</div>","k","","","test_squares","exp","13","8","k","true","ks","s","","","","","","",""
"html-keyboard-response","160","393595","0.0-5.0-5.0-4.13","6989e54b0dfd382f095b37de","not_provided","desktop","0","0","0","","","","","","working_memory","","null","<div class=""fixation"">Correct</div>","null","","","","","","","","","","","","","","","","",""
"html-keyboard-response","161","394608","0.0-5.0-5.0-0.14","6989e54b0dfd382f095b37de","not_provided","desktop","0","0","0","","","","","","working_memory","","null","<div class=""fixation"">+</div>","null","","","","","","","","","","","","","","","","",""
"html-keyboard-response","162","394814","0.0-5.0-5.0-1.14","6989e54b0dfd382f095b37de","not_provided","desktop","0","0","0","","","","","","working_memory","","null","<img class='b' src=images/squares/black.png><img class='e' src=images/squares/cyan.png><img class='i' src=images/squares/orange.png><img class='k' src=images/squares/yellow.png><div class=""fixation"">+</div>","null","","","memory","exp","14","","","","","","","","","","","",""
"html-keyboard-response","163","395732","0.0-5.0-5.0-2.14","6989e54b0dfd382f095b37de","not_provided","desktop","0","0","0","","","","","","working_memory","","null","<div class=""fixation"">+</div>","null","","","","","","","","","","","","","","","","",""
"html-keyboard-response","164","396654","0.0-5.0-5.0-3.14","6989e54b0dfd382f095b37de","not_provided","desktop","0","0","0","","","","","","working_memory","","922","<img class='k' src=images/squares/yellow.png><div class=""fixation"">+</div>","k","","","test_squares","exp","14","4","k","true","ks","s","","","","","","",""
"html-keyboard-response","165","397159","0.0-5.0-5.0-4.14","6989e54b0dfd382f095b37de","not_provided","desktop","0","0","0","","","","","","working_memory","","null","<div class=""fixation"">Correct</div>","null","","","","","","","","","","","","","","","","",""
"html-keyboard-response","166","398176","0.0-5.0-5.0-0.15","6989e54b0dfd382f095b37de","not_provided","desktop","0","0","0","","","","","","working_memory","","null","<div class=""fixation"">+</div>","null","","","","","","","","","","","","","","","","",""
"html-keyboard-response","167","398381","0.0-5.0-5.0-1.15","6989e54b0dfd382f095b37de","not_provided","desktop","0","0","0","","","","","","working_memory","","null","<img class='c' src=images/squares/orange.png><img class='a' src=images/squares/yellow.png><img class='f' src=images/squares/blue.png><img class='d' src=images/squares/magenta.png><img class='i' src=images/squares/brown.png><img class='g' src=images/squares/red.png><img class='k' src=images/squares/green.png><img class='l' src=images/squares/cyan.png><div class=""fixation"">+</div>","null","","","memory","exp","15","","","","","","","","","","","",""
"html-keyboard-response","168","399286","0.0-5.0-5.0-2.15","6989e54b0dfd382f095b37de","not_provided","desktop","0","0","0","","","","","","working_memory","","null","<div class=""fixation"">+</div>","null","","","","","","","","","","","","","","","","",""
"html-keyboard-response","169","400338","0.0-5.0-5.0-3.15","6989e54b0dfd382f095b37de","not_provided","desktop","0","0","0","","","","","","working_memory","","1052","<img class='i' src=images/squares/brown.png><div class=""fixation"">+</div>","s","","","test_squares","exp","15","8","k","false","ks","s","","","","","","",""
"html-keyboard-response","170","400843","0.0-5.0-5.0-4.15","6989e54b0dfd382f095b37de","not_provided","desktop","0","0","0","","","","","","working_memory","","null","<div class=""fixation"">Incorrect</div>","null","","","","","","","","","","","","","","","","",""
"html-keyboard-response","171","401859","0.0-5.0-5.0-0.16","6989e54b0dfd382f095b37de","not_provided","desktop","0","0","0","","","","","","working_memory","","null","<div class=""fixation"">+</div>","null","","","","","","","","","","","","","","","","",""
"html-keyboard-response","172","402063","0.0-5.0-5.0-1.16","6989e54b0dfd382f095b37de","not_provided","desktop","0","0","0","","","","","","working_memory","","null","<img class='c' src=images/squares/brown.png><img class='e' src=images/squares/black.png><img class='h' src=images/squares/red.png><img class='l' src=images/squares/yellow.png><div class=""fixation"">+</div>","null","","","memory","exp","16","","","","","","","","","","","",""
"html-keyboard-response","173","402981","0.0-5.0-5.0-2.16","6989e54b0dfd382f095b37de","not_provided","desktop","0","0","0","","","","","","working_memory","","null","<div class=""fixation"">+</div>","null","","","","","","","","","","","","","","","","",""
"html-keyboard-response","174","403742","0.0-5.0-5.0-3.16","6989e54b0dfd382f095b37de","not_provided","desktop","0","0","0","","","","","","working_memory","","761","<img class='l' src=images/squares/magenta.png><div class=""fixation"">+</div>","s","","","test_squares","exp","16","4","s","true","ks","d","","","","","","",""
"html-keyboard-response","175","404260","0.0-5.0-5.0-4.16","6989e54b0dfd382f095b37de","not_provided","desktop","0","0","0","","","","","","working_memory","","null","<div class=""fixation"">Correct</div>","null","","","","","","","","","","","","","","","","",""
"html-keyboard-response","176","405274","0.0-5.0-5.0-0.17","6989e54b0dfd382f095b37de","not_provided","desktop","0","0","0","","","","","","working_memory","","null","<div class=""fixation"">+</div>","null","","","","","","","","","","","","","","","","",""
"html-keyboard-response","177","405481","0.0-5.0-5.0-1.17","6989e54b0dfd382f095b37de","not_provided","desktop","0","0","0","","","","","","working_memory","","null","<img class='b' src=images/squares/red.png><img class='e' src=images/squares/black.png><img class='g' src=images/squares/magenta.png><img class='l' src=images/squares/orange.png><div class=""fixation"">+</div>","null","","","memory","exp","17","","","","","","","","","","","",""
"html-keyboard-response","178","406383","0.0-5.0-5.0-2.17","6989e54b0dfd382f095b37de","not_provided","desktop","0","0","0","","","","","","working_memory","","null","<div class=""fixation"">+</div>","null","","","","","","","","","","","","","","","","",""
"html-keyboard-response","179","407096","0.0-5.0-5.0-3.17","6989e54b0dfd382f095b37de","not_provided","desktop","0","0","0","","","","","","working_memory","","713","<img class='l' src=images/squares/cyan.png><div class=""fixation"">+</div>","s","","","test_squares","exp","17","4","s","true","ks","d","","","","","","",""
"html-keyboard-response","180","407610","0.0-5.0-5.0-4.17","6989e54b0dfd382f095b37de","not_provided","desktop","0","0","0","","","","","","working_memory","","null","<div class=""fixation"">Correct</div>","null","","","","","","","","","","","","","","","","",""
"html-keyboard-response","181","408624","0.0-5.0-5.0-0.18","6989e54b0dfd382f095b37de","not_provided","desktop","0","0","0","","","","","","working_memory","","null","<div class=""fixation"">+</div>","null","","","","","","","","","","","","","","","","",""
"html-keyboard-response","182","408831","0.0-5.0-5.0-1.18","6989e54b0dfd382f095b37de","not_provided","desktop","0","0","0","","","","","","working_memory","","null","<img class='c' src=images/squares/orange.png><img class='e' src=images/squares/yellow.png><img class='i' src=images/squares/black.png><img class='j' src=images/squares/red.png><div class=""fixation"">+</div>","null","","","memory","exp","18","","","","","","","","","","","",""
"html-keyboard-response","183","409748","0.0-5.0-5.0-2.18","6989e54b0dfd382f095b37de","not_provided","desktop","0","0","0","","","","","","working_memory","","null","<div class=""fixation"">+</div>","null","","","","","","","","","","","","","","","","",""
"html-keyboard-response","184","410399","0.0-5.0-5.0-3.18","6989e54b0dfd382f095b37de","not_provided","desktop","0","0","0","","","","","","working_memory","","651","<img class='i' src=images/squares/black.png><div class=""fixation"">+</div>","k","","","test_squares","exp","18","4","k","true","ks","s","","","","","","",""
"html-keyboard-response","185","410908","0.0-5.0-5.0-4.18","6989e54b0dfd382f095b37de","not_provided","desktop","0","0","0","","","","","","working_memory","","null","<div class=""fixation"">Correct</div>","null","","","","","","","","","","","","","","","","",""
"html-keyboard-response","186","411925","0.0-5.0-5.0-0.19","6989e54b0dfd382f095b37de","not_provided","desktop","0","0","0","","","","","","working_memory","","null","<div class=""fixation"">+</div>","null","","","","","","","","","","","","","","","","",""
"html-keyboard-response","187","412131","0.0-5.0-5.0-1.19","6989e54b0dfd382f095b37de","not_provided","desktop","0","0","0","","","","","","working_memory","","null","<img class='a' src=images/squares/cyan.png><img class='f' src=images/squares/yellow.png><img class='g' src=images/squares/orange.png><img class='k' src=images/squares/brown.png><div class=""fixation"">+</div>","null","","","memory","exp","19","","","","","","","","","","","",""
"html-keyboard-response","188","413049","0.0-5.0-5.0-2.19","6989e54b0dfd382f095b37de","not_provided","desktop","0","0","0","","","","","","working_memory","","null","<div class=""fixation"">+</div>","null","","","","","","","","","","","","","","","","",""
"html-keyboard-response","189","413621","0.0-5.0-5.0-3.19","6989e54b0dfd382f095b37de","not_provided","desktop","0","0","0","","","","","","working_memory","","572","<img class='f' src=images/squares/red.png><div class=""fixation"">+</div>","s","","","test_squares","exp","19","4","s","true","ks","d","","","","","","",""
"html-keyboard-response","190","414143","0.0-5.0-5.0-4.19","6989e54b0dfd382f095b37de","not_provided","desktop","0","0","0","","","","","","working_memory","","null","<div class=""fixation"">Correct</div>","null","","","","","","","","","","","","","","","","",""
"html-keyboard-response","191","415157","0.0-5.0-5.0-0.20","6989e54b0dfd382f095b37de","not_provided","desktop","0","0","0","","","","","","working_memory","","null","<div class=""fixation"">+</div>","null","","","","","","","","","","","","","","","","",""
"html-keyboard-response","192","415364","0.0-5.0-5.0-1.20","6989e54b0dfd382f095b37de","not_provided","desktop","0","0","0","","","","","","working_memory","","null","<img class='b' src=images/squares/yellow.png><img class='d' src=images/squares/red.png><img class='h' src=images/squares/green.png><img class='k' src=images/squares/brown.png><div class=""fixation"">+</div>","null","","","memory","exp","20","","","","","","","","","","","",""
"html-keyboard-response","193","416266","0.0-5.0-5.0-2.20","6989e54b0dfd382f095b37de","not_provided","desktop","0","0","0","","","","","","working_memory","","null","<div class=""fixation"">+</div>","null","","","","","","","","","","","","","","","","",""
"html-keyboard-response","194","417010","0.0-5.0-5.0-3.20","6989e54b0dfd382f095b37de","not_provided","desktop","0","0","0","","","","","","working_memory","","744","<img class='k' src=images/squares/orange.png><div class=""fixation"">+</div>","s","","","test_squares","exp","20","4","s","true","ks","d","","","","","","",""
"html-keyboard-response","195","417525","0.0-5.0-5.0-4.20","6989e54b0dfd382f095b37de","not_provided","desktop","0","0","0","","","","","","working_memory","","null","<div class=""fixation"">Correct</div>","null","","","","","","","","","","","","","","","","",""
"html-keyboard-response","196","418541","0.0-5.0-5.0-0.21","6989e54b0dfd382f095b37de","not_provided","desktop","0","0","0","","","","","","working_memory","","null","<div class=""fixation"">+</div>","null","","","","","","","","","","","","","","","","",""
"html-keyboard-response","197","418747","0.0-5.0-5.0-1.21","6989e54b0dfd382f095b37de","not_provided","desktop","0","0","0","","","","","","working_memory","","null","<img class='b' src=images/squares/green.png><img class='d' src=images/squares/black.png><img class='h' src=images/squares/brown.png><img class='l' src=images/squares/orange.png><div class=""fixation"">+</div>","null","","","memory","exp","21","","","","","","","","","","","",""
"html-keyboard-response","198","419665","0.0-5.0-5.0-2.21","6989e54b0dfd382f095b37de","not_provided","desktop","0","0","0","","","","","","working_memory","","null","<div class=""fixation"">+</div>","null","","","","","","","","","","","","","","","","",""
"html-keyboard-response","199","420379","0.0-5.0-5.0-3.21","6989e54b0dfd382f095b37de","not_provided","desktop","0","0","0","","","","","","working_memory","","714","<img class='l' src=images/squares/blue.png><div class=""fixation"">+</div>","s","","","test_squares","exp","21","4","s","true","ks","d","","","","","","",""
"html-keyboard-response","200","420893","0.0-5.0-5.0-4.21","6989e54b0dfd382f095b37de","not_provided","desktop","0","0","0","","","","","","working_memory","","null","<div class=""fixation"">Correct</div>","null","","","","","","","","","","","","","","","","",""
"html-keyboard-response","201","421908","0.0-5.0-5.0-0.22","6989e54b0dfd382f095b37de","not_provided","desktop","0","0","0","","","","","","working_memory","","null","<div class=""fixation"">+</div>","null","","","","","","","","","","","","","","","","",""
"html-keyboard-response","202","422114","0.0-5.0-5.0-1.22","6989e54b0dfd382f095b37de","not_provided","desktop","0","0","0","","","","","","working_memory","","null","<img class='b' src=images/squares/green.png><img class='d' src=images/squares/orange.png><img class='i' src=images/squares/blue.png><img class='l' src=images/squares/red.png><div class=""fixation"">+</div>","null","","","memory","exp","22","","","","","","","","","","","",""
"html-keyboard-response","203","423032","0.0-5.0-5.0-2.22","6989e54b0dfd382f095b37de","not_provided","desktop","0","0","0","","","","","","working_memory","","null","<div class=""fixation"">+</div>","null","","","","","","","","","","","","","","","","",""
"html-keyboard-response","204","423947","0.0-5.0-5.0-3.22","6989e54b0dfd382f095b37de","not_provided","desktop","0","0","0","","","","","","working_memory","","915","<img class='b' src=images/squares/magenta.png><div class=""fixation"">+</div>","s","","","test_squares","exp","22","4","s","true","ks","d","","","","","","",""
"html-keyboard-response","205","424459","0.0-5.0-5.0-4.22","6989e54b0dfd382f095b37de","not_provided","desktop","0","0","0","","","","","","working_memory","","null","<div class=""fixation"">Correct</div>","null","","","","","","","","","","","","","","","","",""
"html-keyboard-response","206","425474","0.0-5.0-5.0-0.23","6989e54b0dfd382f095b37de","not_provided","desktop","0","0","0","","","","","","working_memory","","null","<div class=""fixation"">+</div>","null","","","","","","","","","","","","","","","","",""
"html-keyboard-response","207","425679","0.0-5.0-5.0-1.23","6989e54b0dfd382f095b37de","not_provided","desktop","0","0","0","","","","","","working_memory","","null","<img class='c' src=images/squares/magenta.png><img class='a' src=images/squares/cyan.png><img class='f' src=images/squares/yellow.png><img class='e' src=images/squares/brown.png><img class='g' src=images/squares/black.png><img class='h' src=images/squares/orange.png><img class='l' src=images/squares/blue.png><img class='j' src=images/squares/green.png><div class=""fixation"">+</div>","null","","","memory","exp","23","","","","","","","","","","","",""
"html-keyboard-response","208","426583","0.0-5.0-5.0-2.23","6989e54b0dfd382f095b37de","not_provided","desktop","0","0","0","","","","","","working_memory","","null","<div class=""fixation"">+</div>","null","","","","","","","","","","","","","","","","",""
"html-keyboard-response","209","428153","0.0-5.0-5.0-3.23","6989e54b0dfd382f095b37de","not_provided","desktop","0","0","0","","","","","","working_memory","","1570","<img class='h' src=images/squares/orange.png><div class=""fixation"">+</div>","k","","","test_squares","exp","23","8","k","true","ks","s","","","","","","",""
"html-keyboard-response","210","428659","0.0-5.0-5.0-4.23","6989e54b0dfd382f095b37de","not_provided","desktop","0","0","0","","","","","","working_memory","","null","<div class=""fixation"">Correct</div>","null","","","","","","","","","","","","","","","","",""
"html-keyboard-response","211","429662","0.0-5.0-5.0-0.24","6989e54b0dfd382f095b37de","not_provided","desktop","0","0","0","","","","","","working_memory","","null","<div class=""fixation"">+</div>","null","","","","","","","","","","","","","","","","",""
"html-keyboard-response","212","429863","0.0-5.0-5.0-1.24","6989e54b0dfd382f095b37de","not_provided","desktop","0","0","0","","","","","","working_memory","","null","<img class='b' src=images/squares/brown.png><img class='a' src=images/squares/orange.png><img class='e' src=images/squares/blue.png><img class='d' src=images/squares/yellow.png><img class='g' src=images/squares/black.png><img class='h' src=images/squares/magenta.png><img class='j' src=images/squares/cyan.png><img class='k' src=images/squares/red.png><div class=""fixation"">+</div>","null","","","memory","exp","24","","","","","","","","","","","",""
"html-keyboard-response","213","430780","0.0-5.0-5.0-2.24","6989e54b0dfd382f095b37de","not_provided","desktop","0","0","0","","","","","","working_memory","","null","<div class=""fixation"">+</div>","null","","","","","","","","","","","","","","","","",""
"html-keyboard-response","214","431510","0.0-5.0-5.0-3.24","6989e54b0dfd382f095b37de","not_provided","desktop","0","0","0","","","","","","working_memory","","730","<img class='g' src=images/squares/black.png><div class=""fixation"">+</div>","s","","","test_squares","exp","24","8","k","false","ks","s","","","","","","",""
"html-keyboard-response","215","432026","0.0-5.0-5.0-4.24","6989e54b0dfd382f095b37de","not_provided","desktop","0","0","0","","","","","","working_memory","","null","<div class=""fixation"">Incorrect</div>","null","","","","","","","","","","","","","","","","",""
"html-keyboard-response","216","433041","0.0-5.0-5.0-0.25","6989e54b0dfd382f095b37de","not_provided","desktop","0","0","0","","","","","","working_memory","","null","<div class=""fixation"">+</div>","null","","","","","","","","","","","","","","","","",""
"html-keyboard-response","217","433246","0.0-5.0-5.0-1.25","6989e54b0dfd382f095b37de","not_provided","desktop","0","0","0","","","","","","working_memory","","null","<img class='a' src=images/squares/black.png><img class='b' src=images/squares/red.png><img class='e' src=images/squares/yellow.png><img class='f' src=images/squares/green.png><img class='g' src=images/squares/blue.png><img class='h' src=images/squares/orange.png><img class='j' src=images/squares/brown.png><img class='k' src=images/squares/cyan.png><div class=""fixation"">+</div>","null","","","memory","exp","25","","","","","","","","","","","",""
"html-keyboard-response","218","434148","0.0-5.0-5.0-2.25","6989e54b0dfd382f095b37de","not_provided","desktop","0","0","0","","","","","","working_memory","","null","<div class=""fixation"">+</div>","null","","","","","","","","","","","","","","","","",""
"html-keyboard-response","219","434766","0.0-5.0-5.0-3.25","6989e54b0dfd382f095b37de","not_provided","desktop","0","0","0","","","","","","working_memory","","618","<img class='f' src=images/squares/magenta.png><div class=""fixation"">+</div>","s","","","test_squares","exp","25","8","s","true","ks","d","","","","","","",""
"html-keyboard-response","220","435276","0.0-5.0-5.0-4.25","6989e54b0dfd382f095b37de","not_provided","desktop","0","0","0","","","","","","working_memory","","null","<div class=""fixation"">Correct</div>","null","","","","","","","","","","","","","","","","",""
"html-keyboard-response","221","436290","0.0-5.0-5.0-0.26","6989e54b0dfd382f095b37de","not_provided","desktop","0","0","0","","","","","","working_memory","","null","<div class=""fixation"">+</div>","null","","","","","","","","","","","","","","","","",""
"html-keyboard-response","222","436511","0.0-5.0-5.0-1.26","6989e54b0dfd382f095b37de","not_provided","desktop","0","0","0","","","","","","working_memory","","null","<img class='a' src=images/squares/blue.png><img class='e' src=images/squares/orange.png><img class='g' src=images/squares/green.png><img class='k' src=images/squares/yellow.png><div class=""fixation"">+</div>","null","","","memory","exp","26","","","","","","","","","","","",""
"html-keyboard-response","223","437430","0.0-5.0-5.0-2.26","6989e54b0dfd382f095b37de","not_provided","desktop","0","0","0","","","","","","working_memory","","null","<div class=""fixation"">+</div>","null","","","","","","","","","","","","","","","","",""
"html-keyboard-response","224","438160","0.0-5.0-5.0-3.26","6989e54b0dfd382f095b37de","not_provided","desktop","0","0","0","","","","","","working_memory","","730","<img class='g' src=images/squares/green.png><div class=""fixation"">+</div>","s","","","test_squares","exp","26","4","k","false","ks","s","","","","","","",""
"html-keyboard-response","225","438675","0.0-5.0-5.0-4.26","6989e54b0dfd382f095b37de","not_provided","desktop","0","0","0","","","","","","working_memory","","null","<div class=""fixation"">Incorrect</div>","null","","","","","","","","","","","","","","","","",""
"html-keyboard-response","226","439675","0.0-5.0-5.0-0.27","6989e54b0dfd382f095b37de","not_provided","desktop","0","0","0","","","","","","working_memory","","null","<div class=""fixation"">+</div>","null","","","","","","","","","","","","","","","","",""
"html-keyboard-response","227","439880","0.0-5.0-5.0-1.27","6989e54b0dfd382f095b37de","not_provided","desktop","0","0","0","","","","","","working_memory","","null","<img class='c' src=images/squares/magenta.png><img class='d' src=images/squares/blue.png><img class='i' src=images/squares/red.png><img class='l' src=images/squares/cyan.png><div class=""fixation"">+</div>","null","","","memory","exp","27","","","","","","","","","","","",""
"html-keyboard-response","228","440781","0.0-5.0-5.0-2.27","6989e54b0dfd382f095b37de","not_provided","desktop","0","0","0","","","","","","working_memory","","null","<div class=""fixation"">+</div>","null","","","","","","","","","","","","","","","","",""
"html-keyboard-response","229","441945","0.0-5.0-5.0-3.27","6989e54b0dfd382f095b37de","not_provided","desktop","0","0","0","","","","","","working_memory","","1164","<img class='c' src=images/squares/magenta.png><div class=""fixation"">+</div>","s","","","test_squares","exp","27","4","k","false","ks","s","","","","","","",""
"html-keyboard-response","230","442458","0.0-5.0-5.0-4.27","6989e54b0dfd382f095b37de","not_provided","desktop","0","0","0","","","","","","working_memory","","null","<div class=""fixation"">Incorrect</div>","null","","","","","","","","","","","","","","","","",""
"html-keyboard-response","231","443458","0.0-5.0-5.0-0.28","6989e54b0dfd382f095b37de","not_provided","desktop","0","0","0","","","","","","working_memory","","null","<div class=""fixation"">+</div>","null","","","","","","","","","","","","","","","","",""
"html-keyboard-response","232","443663","0.0-5.0-5.0-1.28","6989e54b0dfd382f095b37de","not_provided","desktop","0","0","0","","","","","","working_memory","","null","<img class='c' src=images/squares/black.png><img class='a' src=images/squares/brown.png><img class='e' src=images/squares/green.png><img class='d' src=images/squares/blue.png><img class='i' src=images/squares/red.png><img class='g' src=images/squares/magenta.png><img class='l' src=images/squares/yellow.png><img class='k' src=images/squares/orange.png><div class=""fixation"">+</div>","null","","","memory","exp","28","","","","","","","","","","","",""
"html-keyboard-response","233","444581","0.0-5.0-5.0-2.28","6989e54b0dfd382f095b37de","not_provided","desktop","0","0","0","","","","","","working_memory","","null","<div class=""fixation"">+</div>","null","","","","","","","","","","","","","","","","",""
"html-keyboard-response","234","445169","0.0-5.0-5.0-3.28","6989e54b0dfd382f095b37de","not_provided","desktop","0","0","0","","","","","","working_memory","","588","<img class='g' src=images/squares/magenta.png><div class=""fixation"">+</div>","k","","","test_squares","exp","28","8","k","true","ks","s","","","","","","",""
"html-keyboard-response","235","445675","0.0-5.0-5.0-4.28","6989e54b0dfd382f095b37de","not_provided","desktop","0","0","0","","","","","","working_memory","","null","<div class=""fixation"">Correct</div>","null","","","","","","","","","","","","","","","","",""
"html-keyboard-response","236","446689","0.0-5.0-5.0-0.29","6989e54b0dfd382f095b37de","not_provided","desktop","0","0","0","","","","","","working_memory","","null","<div class=""fixation"">+</div>","null","","","","","","","","","","","","","","","","",""
"html-keyboard-response","237","446895","0.0-5.0-5.0-1.29","6989e54b0dfd382f095b37de","not_provided","desktop","0","0","0","","","","","","working_memory","","null","<img class='c' src=images/squares/red.png><img class='f' src=images/squares/black.png><img class='h' src=images/squares/green.png><img class='j' src=images/squares/brown.png><div class=""fixation"">+</div>","null","","","memory","exp","29","","","","","","","","","","","",""
"html-keyboard-response","238","447813","0.0-5.0-5.0-2.29","6989e54b0dfd382f095b37de","not_provided","desktop","0","0","0","","","","","","working_memory","","null","<div class=""fixation"">+</div>","null","","","","","","","","","","","","","","","","",""
"html-keyboard-response","239","448574","0.0-5.0-5.0-3.29","6989e54b0dfd382f095b37de","not_provided","desktop","0","0","0","","","","","","working_memory","","761","<img class='f' src=images/squares/blue.png><div class=""fixation"">+</div>","s","","","test_squares","exp","29","4","s","true","ks","d","","","","","","",""
"html-keyboard-response","240","449075","0.0-5.0-5.0-4.29","6989e54b0dfd382f095b37de","not_provided","desktop","0","0","0","","","","","","working_memory","","null","<div class=""fixation"">Correct</div>","null","","","","","","","","","","","","","","","","",""
"html-keyboard-response","241","450090","0.0-5.0-5.0-0.30","6989e54b0dfd382f095b37de","not_provided","desktop","0","0","0","","","","","","working_memory","","null","<div class=""fixation"">+</div>","null","","","","","","","","","","","","","","","","",""
"html-keyboard-response","242","450295","0.0-5.0-5.0-1.30","6989e54b0dfd382f095b37de","not_provided","desktop","0","0","0","","","","","","working_memory","","null","<img class='a' src=images/squares/brown.png><img class='d' src=images/squares/red.png><img class='h' src=images/squares/green.png><img class='j' src=images/squares/yellow.png><div class=""fixation"">+</div>","null","","","memory","exp","30","","","","","","","","","","","",""
"html-keyboard-response","243","451197","0.0-5.0-5.0-2.30","6989e54b0dfd382f095b37de","not_provided","desktop","0","0","0","","","","","","working_memory","","null","<div class=""fixation"">+</div>","null","","","","","","","","","","","","","","","","",""
"html-keyboard-response","244","451926","0.0-5.0-5.0-3.30","6989e54b0dfd382f095b37de","not_provided","desktop","0","0","0","","","","","","working_memory","","729","<img class='h' src=images/squares/black.png><div class=""fixation"">+</div>","s","","","test_squares","exp","30","4","s","true","ks","d","","","","","","",""
"html-keyboard-response","245","452442","0.0-5.0-5.0-4.30","6989e54b0dfd382f095b37de","not_provided","desktop","0","0","0","","","","","","working_memory","","null","<div class=""fixation"">Correct</div>","null","","","","","","","","","","","","","","","","",""
"html-keyboard-response","246","453457","0.0-5.0-5.0-0.31","6989e54b0dfd382f095b37de","not_provided","desktop","0","0","0","","","","","","working_memory","","null","<div class=""fixation"">+</div>","null","","","","","","","","","","","","","","","","",""
"html-keyboard-response","247","453661","0.0-5.0-5.0-1.31","6989e54b0dfd382f095b37de","not_provided","desktop","0","0","0","","","","","","working_memory","","null","<img class='a' src=images/squares/cyan.png><img class='d' src=images/squares/black.png><img class='i' src=images/squares/yellow.png><img class='k' src=images/squares/blue.png><div class=""fixation"">+</div>","null","","","memory","exp","31","","","","","","","","","","","",""
"html-keyboard-response","248","454563","0.0-5.0-5.0-2.31","6989e54b0dfd382f095b37de","not_provided","desktop","0","0","0","","","","","","working_memory","","null","<div class=""fixation"">+</div>","null","","","","","","","","","","","","","","","","",""
"html-keyboard-response","249","455464","0.0-5.0-5.0-3.31","6989e54b0dfd382f095b37de","not_provided","desktop","0","0","0","","","","","","working_memory","","901","<img class='d' src=images/squares/brown.png><div class=""fixation"">+</div>","s","","","test_squares","exp","31","4","s","true","ks","d","","","","","","",""
"html-keyboard-response","250","455974","0.0-5.0-5.0-4.31","6989e54b0dfd382f095b37de","not_provided","desktop","0","0","0","","","","","","working_memory","","null","<div class=""fixation"">Correct</div>","null","","","","","","","","","","","","","","","","",""
"html-keyboard-response","251","456989","0.0-5.0-5.0-0.32","6989e54b0dfd382f095b37de","not_provided","desktop","0","0","0","","","","","","working_memory","","null","<div class=""fixation"">+</div>","null","","","","","","","","","","","","","","","","",""
"html-keyboard-response","252","457195","0.0-5.0-5.0-1.32","6989e54b0dfd382f095b37de","not_provided","desktop","0","0","0","","","","","","working_memory","","null","<img class='b' src=images/squares/brown.png><img class='a' src=images/squares/green.png><img class='f' src=images/squares/black.png><img class='d' src=images/squares/magenta.png><img class='i' src=images/squares/cyan.png><img class='g' src=images/squares/orange.png><img class='k' src=images/squares/yellow.png><img class='j' src=images/squares/red.png><div class=""fixation"">+</div>","null","","","memory","exp","32","","","","","","","","","","","",""
"html-keyboard-response","253","458098","0.0-5.0-5.0-2.32","6989e54b0dfd382f095b37de","not_provided","desktop","0","0","0","","","","","","working_memory","","null","<div class=""fixation"">+</div>","null","","","","","","","","","","","","","","","","",""
"html-keyboard-response","254","458825","0.0-5.0-5.0-3.32","6989e54b0dfd382f095b37de","not_provided","desktop","0","0","0","","","","","","working_memory","","727","<img class='d' src=images/squares/blue.png><div class=""fixation"">+</div>","s","","","test_squares","exp","32","8","s","true","ks","d","","","","","","",""
"html-keyboard-response","255","459340","0.0-5.0-5.0-4.32","6989e54b0dfd382f095b37de","not_provided","desktop","0","0","0","","","","","","working_memory","","null","<div class=""fixation"">Correct</div>","null","","","","","","","","","","","","","","","","",""
"html-keyboard-response","256","460356","0.0-5.0-5.0-0.33","6989e54b0dfd382f095b37de","not_provided","desktop","0","0","0","","","","","","working_memory","","null","<div class=""fixation"">+</div>","null","","","","","","","","","","","","","","","","",""
"html-keyboard-response","257","460561","0.0-5.0-5.0-1.33","6989e54b0dfd382f095b37de","not_provided","desktop","0","0","0","","","","","","working_memory","","null","<img class='b' src=images/squares/black.png><img class='f' src=images/squares/green.png><img class='g' src=images/squares/brown.png><img class='l' src=images/squares/cyan.png><div class=""fixation"">+</div>","null","","","memory","exp","33","","","","","","","","","","","",""
"html-keyboard-response","258","461463","0.0-5.0-5.0-2.33","6989e54b0dfd382f095b37de","not_provided","desktop","0","0","0","","","","","","working_memory","","null","<div class=""fixation"">+</div>","null","","","","","","","","","","","","","","","","",""
"html-keyboard-response","259","462053","0.0-5.0-5.0-3.33","6989e54b0dfd382f095b37de","not_provided","desktop","0","0","0","","","","","","working_memory","","590","<img class='f' src=images/squares/red.png><div class=""fixation"">+</div>","s","","","test_squares","exp","33","4","s","true","ks","d","","","","","","",""
"html-keyboard-response","260","462558","0.0-5.0-5.0-4.33","6989e54b0dfd382f095b37de","not_provided","desktop","0","0","0","","","","","","working_memory","","null","<div class=""fixation"">Correct</div>","null","","","","","","","","","","","","","","","","",""
"html-keyboard-response","261","463558","0.0-5.0-5.0-0.34","6989e54b0dfd382f095b37de","not_provided","desktop","0","0","0","","","","","","working_memory","","null","<div class=""fixation"">+</div>","null","","","","","","","","","","","","","","","","",""
"html-keyboard-response","262","463761","0.0-5.0-5.0-1.34","6989e54b0dfd382f095b37de","not_provided","desktop","0","0","0","","","","","","working_memory","","null","<img class='c' src=images/squares/brown.png><img class='e' src=images/squares/magenta.png><img class='i' src=images/squares/cyan.png><img class='k' src=images/squares/black.png><div class=""fixation"">+</div>","null","","","memory","exp","34","","","","","","","","","","","",""
"html-keyboard-response","263","464663","0.0-5.0-5.0-2.34","6989e54b0dfd382f095b37de","not_provided","desktop","0","0","0","","","","","","working_memory","","null","<div class=""fixation"">+</div>","null","","","","","","","","","","","","","","","","",""
"html-keyboard-response","264","465487","0.0-5.0-5.0-3.34","6989e54b0dfd382f095b37de","not_provided","desktop","0","0","0","","","","","","working_memory","","824","<img class='c' src=images/squares/brown.png><div class=""fixation"">+</div>","s","","","test_squares","exp","34","4","k","false","ks","s","","","","","","",""
"html-keyboard-response","265","465992","0.0-5.0-5.0-4.34","6989e54b0dfd382f095b37de","not_provided","desktop","0","0","0","","","","","","working_memory","","null","<div class=""fixation"">Incorrect</div>","null","","","","","","","","","","","","","","","","",""
"html-keyboard-response","266","467008","0.0-5.0-5.0-0.35","6989e54b0dfd382f095b37de","not_provided","desktop","0","0","0","","","","","","working_memory","","null","<div class=""fixation"">+</div>","null","","","","","","","","","","","","","","","","",""
"html-keyboard-response","267","467212","0.0-5.0-5.0-1.35","6989e54b0dfd382f095b37de","not_provided","desktop","0","0","0","","","","","","working_memory","","null","<img class='a' src=images/squares/red.png><img class='b' src=images/squares/magenta.png><img class='f' src=images/squares/cyan.png><img class='e' src=images/squares/orange.png><img class='h' src=images/squares/brown.png><img class='i' src=images/squares/blue.png><img class='l' src=images/squares/yellow.png><img class='k' src=images/squares/black.png><div class=""fixation"">+</div>","null","","","memory","exp","35","","","","","","","","","","","",""
"html-keyboard-response","268","468114","0.0-5.0-5.0-2.35","6989e54b0dfd382f095b37de","not_provided","desktop","0","0","0","","","","","","working_memory","","null","<div class=""fixation"">+</div>","null","","","","","","","","","","","","","","","","",""
"html-keyboard-response","269","468732","0.0-5.0-5.0-3.35","6989e54b0dfd382f095b37de","not_provided","desktop","0","0","0","","","","","","working_memory","","618","<img class='b' src=images/squares/green.png><div class=""fixation"">+</div>","s","","","test_squares","exp","35","8","s","true","ks","d","","","","","","",""
"html-keyboard-response","270","469240","0.0-5.0-5.0-4.35","6989e54b0dfd382f095b37de","not_provided","desktop","0","0","0","","","","","","working_memory","","null","<div class=""fixation"">Correct</div>","null","","","","","","","","","","","","","","","","",""
"html-keyboard-response","271","470256","0.0-5.0-5.0-0.36","6989e54b0dfd382f095b37de","not_provided","desktop","0","0","0","","","","","","working_memory","","null","<div class=""fixation"">+</div>","null","","","","","","","","","","","","","","","","",""
"html-keyboard-response","272","470461","0.0-5.0-5.0-1.36","6989e54b0dfd382f095b37de","not_provided","desktop","0","0","0","","","","","","working_memory","","null","<img class='c' src=images/squares/magenta.png><img class='d' src=images/squares/blue.png><img class='h' src=images/squares/orange.png><img class='l' src=images/squares/yellow.png><div class=""fixation"">+</div>","null","","","memory","exp","36","","","","","","","","","","","",""
"html-keyboard-response","273","471363","0.0-5.0-5.0-2.36","6989e54b0dfd382f095b37de","not_provided","desktop","0","0","0","","","","","","working_memory","","null","<div class=""fixation"">+</div>","null","","","","","","","","","","","","","","","","",""
"html-keyboard-response","274","472045","0.0-5.0-5.0-3.36","6989e54b0dfd382f095b37de","not_provided","desktop","0","0","0","","","","","","working_memory","","682","<img class='c' src=images/squares/cyan.png><div class=""fixation"">+</div>","s","","","test_squares","exp","36","4","s","true","ks","d","","","","","","",""
"html-keyboard-response","275","472556","0.0-5.0-5.0-4.36","6989e54b0dfd382f095b37de","not_provided","desktop","0","0","0","","","","","","working_memory","","null","<div class=""fixation"">Correct</div>","null","","","","","","","","","","","","","","","","",""
"html-keyboard-response","276","473557","0.0-5.0-5.0-0.37","6989e54b0dfd382f095b37de","not_provided","desktop","0","0","0","","","","","","working_memory","","null","<div class=""fixation"">+</div>","null","","","","","","","","","","","","","","","","",""
"html-keyboard-response","277","473761","0.0-5.0-5.0-1.37","6989e54b0dfd382f095b37de","not_provided","desktop","0","0","0","","","","","","working_memory","","null","<img class='c' src=images/squares/magenta.png><img class='a' src=images/squares/brown.png><img class='d' src=images/squares/blue.png><img class='f' src=images/squares/yellow.png><img class='i' src=images/squares/green.png><img class='h' src=images/squares/cyan.png><img class='k' src=images/squares/orange.png><img class='j' src=images/squares/black.png><div class=""fixation"">+</div>","null","","","memory","exp","37","","","","","","","","","","","",""
"html-keyboard-response","278","474667","0.0-5.0-5.0-2.37","6989e54b0dfd382f095b37de","not_provided","desktop","0","0","0","","","","","","working_memory","","null","<div class=""fixation"">+</div>","null","","","","","","","","","","","","","","","","",""
"html-keyboard-response","279","475313","0.0-5.0-5.0-3.37","6989e54b0dfd382f095b37de","not_provided","desktop","0","0","0","","","","","","working_memory","","646","<img class='f' src=images/squares/red.png><div class=""fixation"">+</div>","s","","","test_squares","exp","37","8","s","true","ks","d","","","","","","",""
"html-keyboard-response","280","475822","0.0-5.0-5.0-4.37","6989e54b0dfd382f095b37de","not_provided","desktop","0","0","0","","","","","","working_memory","","null","<div class=""fixation"">Correct</div>","null","","","","","","","","","","","","","","","","",""
"html-keyboard-response","281","476839","0.0-5.0-5.0-0.38","6989e54b0dfd382f095b37de","not_provided","desktop","0","0","0","","","","","","working_memory","","null","<div class=""fixation"">+</div>","null","","","","","","","","","","","","","","","","",""
"html-keyboard-response","282","477045","0.0-5.0-5.0-1.38","6989e54b0dfd382f095b37de","not_provided","desktop","0","0","0","","","","","","working_memory","","null","<img class='a' src=images/squares/magenta.png><img class='b' src=images/squares/green.png><img class='d' src=images/squares/orange.png><img class='f' src=images/squares/blue.png><img class='i' src=images/squares/red.png><img class='h' src=images/squares/cyan.png><img class='k' src=images/squares/brown.png><img class='j' src=images/squares/yellow.png><div class=""fixation"">+</div>","null","","","memory","exp","38","","","","","","","","","","","",""
"html-keyboard-response","283","477946","0.0-5.0-5.0-2.38","6989e54b0dfd382f095b37de","not_provided","desktop","0","0","0","","","","","","working_memory","","null","<div class=""fixation"">+</div>","null","","","","","","","","","","","","","","","","",""
"html-keyboard-response","284","478628","0.0-5.0-5.0-3.38","6989e54b0dfd382f095b37de","not_provided","desktop","0","0","0","","","","","","working_memory","","682","<img class='b' src=images/squares/green.png><div class=""fixation"">+</div>","s","","","test_squares","exp","38","8","k","false","ks","s","","","","","","",""
"html-keyboard-response","285","479139","0.0-5.0-5.0-4.38","6989e54b0dfd382f095b37de","not_provided","desktop","0","0","0","","","","","","working_memory","","null","<div class=""fixation"">Incorrect</div>","null","","","","","","","","","","","","","","","","",""
"html-keyboard-response","286","480156","0.0-5.0-5.0-0.39","6989e54b0dfd382f095b37de","not_provided","desktop","0","0","0","","","","","","working_memory","","null","<div class=""fixation"">+</div>","null","","","","","","","","","","","","","","","","",""
"html-keyboard-response","287","480361","0.0-5.0-5.0-1.39","6989e54b0dfd382f095b37de","not_provided","desktop","0","0","0","","","","","","working_memory","","null","<img class='a' src=images/squares/cyan.png><img class='f' src=images/squares/orange.png><img class='i' src=images/squares/red.png><img class='k' src=images/squares/green.png><div class=""fixation"">+</div>","null","","","memory","exp","39","","","","","","","","","","","",""
"html-keyboard-response","288","481263","0.0-5.0-5.0-2.39","6989e54b0dfd382f095b37de","not_provided","desktop","0","0","0","","","","","","working_memory","","null","<div class=""fixation"">+</div>","null","","","","","","","","","","","","","","","","",""
"html-keyboard-response","289","482100","0.0-5.0-5.0-3.39","6989e54b0dfd382f095b37de","not_provided","desktop","0","0","0","","","","","","working_memory","","837","<img class='i' src=images/squares/brown.png><div class=""fixation"">+</div>","k","","","test_squares","exp","39","4","s","false","ks","d","","","","","","",""
"html-keyboard-response","290","482607","0.0-5.0-5.0-4.39","6989e54b0dfd382f095b37de","not_provided","desktop","0","0","0","","","","","","working_memory","","null","<div class=""fixation"">Incorrect</div>","null","","","","","","","","","","","","","","","","",""
"html-keyboard-response","291","483621","0.0-5.0-5.0-0.40","6989e54b0dfd382f095b37de","not_provided","desktop","0","0","0","","","","","","working_memory","","null","<div class=""fixation"">+</div>","null","","","","","","","","","","","","","","","","",""
"html-keyboard-response","292","483828","0.0-5.0-5.0-1.40","6989e54b0dfd382f095b37de","not_provided","desktop","0","0","0","","","","","","working_memory","","null","<img class='b' src=images/squares/red.png><img class='a' src=images/squares/green.png><img class='e' src=images/squares/magenta.png><img class='f' src=images/squares/black.png><img class='i' src=images/squares/orange.png><img class='g' src=images/squares/cyan.png><img class='l' src=images/squares/yellow.png><img class='k' src=images/squares/blue.png><div class=""fixation"">+</div>","null","","","memory","exp","40","","","","","","","","","","","",""
"html-keyboard-response","293","484745","0.0-5.0-5.0-2.40","6989e54b0dfd382f095b37de","not_provided","desktop","0","0","0","","","","","","working_memory","","null","<div class=""fixation"">+</div>","null","","","","","","","","","","","","","","","","",""
"html-keyboard-response","294","485771","0.0-5.0-5.0-3.40","6989e54b0dfd382f095b37de","not_provided","desktop","0","0","0","","","","","","working_memory","","1026","<img class='f' src=images/squares/black.png><div class=""fixation"">+</div>","s","","","test_squares","exp","40","8","k","false","ks","s","","","","","","",""
"html-keyboard-response","295","486275","0.0-5.0-5.0-4.40","6989e54b0dfd382f095b37de","not_provided","desktop","0","0","0","","","","","","working_memory","","null","<div class=""fixation"">Incorrect</div>","null","","","","","","","","","","","","","","","","",""
"html-keyboard-response","296","487283","0.0-5.0-5.0-0.41","6989e54b0dfd382f095b37de","not_provided","desktop","0","0","0","","","","","","working_memory","","null","<div class=""fixation"">+</div>","null","","","","","","","","","","","","","","","","",""
"html-keyboard-response","297","487494","0.0-5.0-5.0-1.41","6989e54b0dfd382f095b37de","not_provided","desktop","0","0","0","","","","","","working_memory","","null","<img class='c' src=images/squares/magenta.png><img class='a' src=images/squares/blue.png><img class='f' src=images/squares/black.png><img class='d' src=images/squares/orange.png><img class='i' src=images/squares/yellow.png><img class='g' src=images/squares/brown.png><img class='k' src=images/squares/red.png><img class='l' src=images/squares/green.png><div class=""fixation"">+</div>","null","","","memory","exp","41","","","","","","","","","","","",""
"html-keyboard-response","298","488396","0.0-5.0-5.0-2.41","6989e54b0dfd382f095b37de","not_provided","desktop","0","0","0","","","","","","working_memory","","null","<div class=""fixation"">+</div>","null","","","","","","","","","","","","","","","","",""
"html-keyboard-response","299","489063","0.0-5.0-5.0-3.41","6989e54b0dfd382f095b37de","not_provided","desktop","0","0","0","","","","","","working_memory","","667","<img class='c' src=images/squares/magenta.png><div class=""fixation"">+</div>","k","","","test_squares","exp","41","8","k","true","ks","s","","","","","","",""
"html-keyboard-response","300","489565","0.0-5.0-5.0-4.41","6989e54b0dfd382f095b37de","not_provided","desktop","0","0","0","","","","","","working_memory","","null","<div class=""fixation"">Correct</div>","null","","","","","","","","","","","","","","","","",""
"html-keyboard-response","301","490572","0.0-5.0-5.0-0.42","6989e54b0dfd382f095b37de","not_provided","desktop","0","0","0","","","","","","working_memory","","null","<div class=""fixation"">+</div>","null","","","","","","","","","","","","","","","","",""
"html-keyboard-response","302","490778","0.0-5.0-5.0-1.42","6989e54b0dfd382f095b37de","not_provided","desktop","0","0","0","","","","","","working_memory","","null","<img class='b' src=images/squares/brown.png><img class='f' src=images/squares/yellow.png><img class='g' src=images/squares/orange.png><img class='k' src=images/squares/blue.png><div class=""fixation"">+</div>","null","","","memory","exp","42","","","","","","","","","","","",""
