"trial_type","trial_index","time_elapsed","internal_node_id","subject_id","study_id","device_type","blur_count","fullscreen_exit_count","failed_attention_checks","success","timeout","failed_images","failed_audio","failed_video","phase","value","rt","stimulus","response","view_history","question_order","trial_name","block_type","trial_num","set_size","correct_response","accuracy","mapping","condition","prompt","flipped","attention","expected_answer","category","question_index","task"
"pavlovia","0","1102","0.0-0.0","6981150699107501d80e74b6","not_provided","desktop","0","0","0","","","","","","","","","","","","","","","","","","","","","","","","","","",""
"preload","1","2282","0.0-2.0","6981150699107501d80e74b6","not_provided","desktop","0","0","0","true","false","[]","[]","[]","","","","","","","","","","","","","","","","","","","","","",""
"html-keyboard-response","2","21706","0.0-3.0-0.0","6981150699107501d80e74b6","not_provided","desktop","0","0","0","","","","","","captcha","","","","","","","","","","","","","","","","","","","","",""
"fullscreen","3","48891","0.0-4.0","6981150699107501d80e74b6","not_provided","desktop","0","0","0","true","","","","","setup","","","","","","","","","","","","","","","","","","","","",""
"call-function","4","48893","0.0-5.0-0.0","6981150699107501d80e74b6","not_provided","desktop","0","0","0","","","","","","working_memory","","","","","","","","","","","","","","","","","","","","",""
"html-keyboard-response","5","115602","0.0-5.0-1.0","6981150699107501d80e74b6","not_provided","desktop","0","0","0","","","","","","working_memory","","66707","<div style=""text-align:center;font-family:sans-serif;""><p>Welcome to the luck game experiment!</p><p>This two-day experiment takes part in a study aimed at developing better clinical treatments.</p><p>We appreciate your participation and require your full concentration.</p><br><p>This is a two-day study. Payment (£6/hour) is only given upon completing both parts today and tomorrow.</p><p>You must finish the second part for compensation. After today, you'll receive an invitation for tomorrow's session.</p><p>Please ensure you can attend both sessions before proceeding. Otherwise, you may exit now.</p><p>If you have any questions, please contact us via prolific.</p><br><p>Please stay attentive and in fullscreen mode to ensure payment.</p><p>Thank you for participating!</p><br><p id=""continue-prompt"" style=""visibility:hidden;""><b>Press any key to continue.</b></p></div>","ا","","","","","","","","","","","","","","","","",""
"instructions","6","221285","0.0-5.0-2.0-0.0","6981150699107501d80e74b6","not_provided","desktop","0","0","0","","","","","","working_memory","","105681","","","[{""page_index"":0,""viewing_time"":4751},{""page_index"":1,""viewing_time"":4144},{""page_index"":2,""viewing_time"":21089},{""page_index"":3,""viewing_time"":4328},{""page_index"":4,""viewing_time"":15448},{""page_index"":5,""viewing_time"":15432},{""page_index"":6,""viewing_time"":29121},{""page_index"":7,""viewing_time"":8688},{""page_index"":8,""viewing_time"":2680}]","","","","","","","","","","","","","","","",""
"survey-multi-choice","7","283256","0.0-5.0-2.0-1.0","6981150699107501d80e74b6","not_provided","desktop","0","0","0","","","","","","working_memory","","61966","","{""set_size"":""4 or 8"",""steps"":""True"",""choose_square"":""Press the 's' or 'k' key."",""remember"":""The color and location of the single 'test' square"",""task"":""To tell if the 'test' square is in the same color as the square previously appearing in this location""}","","[0,1,2,3,4]","test_squares_quiz","","","","","","","","","","","","","",""
"html-button-response","8","288967","0.0-5.0-2.0-2.0-0.0","6981150699107501d80e74b6","not_provided","desktop","0","0","0","","","","","","working_memory","","5708","<p>Sorry, you made a mistake on the quiz.<br>Let's go back to the instructions &mdash; please read carefully before submitting again.<br>Thank you!</p>","0","","","","","","","","","","","","","","","","",""
"instructions","9","355175","0.0-5.0-2.1-0.1","6981150699107501d80e74b6","not_provided","desktop","0","0","0","","","","","","working_memory","","66207","","","[{""page_index"":0,""viewing_time"":3389},{""page_index"":1,""viewing_time"":2440},{""page_index"":2,""viewing_time"":4888},{""page_index"":3,""viewing_time"":2737},{""page_index"":4,""viewing_time"":10151},{""page_index"":5,""viewing_time"":6849},{""page_index"":6,""viewing_time"":31555},{""page_index"":7,""viewing_time"":2053},{""page_index"":8,""viewing_time"":2144}]","","","","","","","","","","","","","","","",""
"survey-multi-choice","10","387905","0.0-5.0-2.1-1.1","6981150699107501d80e74b6","not_provided","desktop","0","0","0","","","","","","working_memory","","32727","","{""set_size"":""4 or 8"",""steps"":""True"",""choose_square"":""Press the 's' or 'k' key."",""remember"":""The plus appearing in the middle of the screen"",""task"":""To tell if the 'test' square is in the same color as the square previously appearing in this location""}","","[0,1,2,3,4]","test_squares_quiz","","","","","","","","","","","","","",""
"html-button-response","11","389704","0.0-5.0-2.1-2.1-0.1","6981150699107501d80e74b6","not_provided","desktop","0","0","0","","","","","","working_memory","","1796","<p>Sorry, you made a mistake on the quiz.<br>Let's go back to the instructions &mdash; please read carefully before submitting again.<br>Thank you!</p>","0","","","","","","","","","","","","","","","","",""
"instructions","12","400424","0.0-5.0-2.2-0.2","6981150699107501d80e74b6","not_provided","desktop","0","0","0","","","","","","working_memory","","10719","","","[{""page_index"":0,""viewing_time"":1126},{""page_index"":1,""viewing_time"":1256},{""page_index"":2,""viewing_time"":1176},{""page_index"":3,""viewing_time"":648},{""page_index"":4,""viewing_time"":1945},{""page_index"":5,""viewing_time"":999},{""page_index"":6,""viewing_time"":1152},{""page_index"":7,""viewing_time"":1120},{""page_index"":8,""viewing_time"":1297}]","","","","","","","","","","","","","","","",""
"survey-multi-choice","13","420442","0.0-5.0-2.2-1.2","6981150699107501d80e74b6","not_provided","desktop","0","0","0","","","","","","working_memory","","20014","","{""set_size"":""4 or 8"",""steps"":""True"",""choose_square"":""Press the 's' or 'k' key."",""remember"":""The plus appearing in the middle of the screen"",""task"":""To tell if a square previously appeared in the location of the shown square""}","","[0,1,2,3,4]","test_squares_quiz","","","","","","","","","","","","","",""
"html-button-response","14","421872","0.0-5.0-2.2-2.2-0.2","6981150699107501d80e74b6","not_provided","desktop","0","0","0","","","","","","working_memory","","1426","<p>Sorry, you made a mistake on the quiz.<br>Let's go back to the instructions &mdash; please read carefully before submitting again.<br>Thank you!</p>","0","","","","","","","","","","","","","","","","",""
"instructions","15","459665","0.0-5.0-2.3-0.3","6981150699107501d80e74b6","not_provided","desktop","0","0","0","","","","","","working_memory","","37791","","","[{""page_index"":0,""viewing_time"":1774},{""page_index"":1,""viewing_time"":960},{""page_index"":2,""viewing_time"":4032},{""page_index"":3,""viewing_time"":3856},{""page_index"":4,""viewing_time"":9616},{""page_index"":5,""viewing_time"":2976},{""page_index"":6,""viewing_time"":10697},{""page_index"":7,""viewing_time"":1480},{""page_index"":8,""viewing_time"":2400}]","","","","","","","","","","","","","","","",""
"survey-multi-choice","16","501547","0.0-5.0-2.3-1.3","6981150699107501d80e74b6","not_provided","desktop","0","0","0","","","","","","working_memory","","41879","","{""set_size"":""4 or 8"",""steps"":""True"",""choose_square"":""Press the 's' or 'k' key."",""remember"":""The color and location of the single 'test' square"",""task"":""To tell if the 'test' square is in the same color as the square previously appearing in this location""}","","[0,1,2,3,4]","test_squares_quiz","","","","","","","","","","","","","",""
"html-button-response","17","503273","0.0-5.0-2.3-2.3-0.3","6981150699107501d80e74b6","not_provided","desktop","0","0","0","","","","","","working_memory","","1723","<p>Sorry, you made a mistake on the quiz.<br>Let's go back to the instructions &mdash; please read carefully before submitting again.<br>Thank you!</p>","0","","","","","","","","","","","","","","","","",""
"instructions","18","511673","0.0-5.0-2.4-0.4","6981150699107501d80e74b6","not_provided","desktop","0","0","0","","","","","","working_memory","","8398","","","[{""page_index"":0,""viewing_time"":966},{""page_index"":1,""viewing_time"":592},{""page_index"":2,""viewing_time"":720},{""page_index"":3,""viewing_time"":648},{""page_index"":4,""viewing_time"":1528},{""page_index"":5,""viewing_time"":840},{""page_index"":6,""viewing_time"":1112},{""page_index"":7,""viewing_time"":616},{""page_index"":8,""viewing_time"":1376}]","","","","","","","","","","","","","","","",""
"survey-multi-choice","19","531306","0.0-5.0-2.4-1.4","6981150699107501d80e74b6","not_provided","desktop","0","0","0","","","","","","working_memory","","19630","","{""set_size"":""4 or 8"",""steps"":""True"",""choose_square"":""Press the 's' or 'k' key."",""remember"":""The color and location of the single 'test' square"",""task"":""To tell if the 'test' square is in the same color as the square previously appearing in this location""}","","[0,1,2,3,4]","test_squares_quiz","","","","","","","","","","","","","",""
"html-button-response","20","532497","0.0-5.0-2.4-2.4-0.4","6981150699107501d80e74b6","not_provided","desktop","0","0","0","","","","","","working_memory","","1188","<p>Sorry, you made a mistake on the quiz.<br>Let's go back to the instructions &mdash; please read carefully before submitting again.<br>Thank you!</p>","0","","","","","","","","","","","","","","","","",""
"instructions","21","543953","0.0-5.0-2.5-0.5","6981150699107501d80e74b6","not_provided","desktop","0","0","0","","","","","","working_memory","","11454","","","[{""page_index"":0,""viewing_time"":1230},{""page_index"":1,""viewing_time"":640},{""page_index"":2,""viewing_time"":488},{""page_index"":3,""viewing_time"":480},{""page_index"":4,""viewing_time"":2024},{""page_index"":5,""viewing_time"":2452},{""page_index"":6,""viewing_time"":1300},{""page_index"":7,""viewing_time"":1048},{""page_index"":8,""viewing_time"":1792}]","","","","","","","","","","","","","","","",""
"survey-multi-choice","22","588596","0.0-5.0-2.5-1.5","6981150699107501d80e74b6","not_provided","desktop","0","0","0","","","","","","working_memory","","44639","","{""set_size"":""4 or 8"",""steps"":""True"",""choose_square"":""Press the 's' or 'k' key."",""remember"":""The colors and locations of the 'memory' squares"",""task"":""To tell if the 'test' square is in the same color as the square previously appearing in this location""}","","[0,1,2,3,4]","test_squares_quiz","","","","","","","","","","","","","",""
"html-keyboard-response","23","605002","0.0-5.0-3.0-0.0","6981150699107501d80e74b6","not_provided","desktop","0","0","0","","","","","","working_memory","","16401","<p>We will now start some practice trials.<br><b>The practice trials will also include some trials in which you will need to remember only one square to make sure you understood the instructions.</b><br>You may already want to be ready with your fingers on '<b>s</b>' and '<b>k</b>'.<br><img class=""wm-example-img"" src=""images/examples/keyboard.png""><br><b style=""font-size:1.2em;"">&lsquo;S&rsquo; = SAME &nbsp;&nbsp;&nbsp; &lsquo;K&rsquo; = DIFFERENT</b><br><br><u>Please try to be as accurate as possible.</u><br><br><b>Press any key to begin</b></p>","س","","","","","","","","","","","","","","","","",""
"html-keyboard-response","24","607003","0.0-5.0-3.0-1.0-0.0","6981150699107501d80e74b6","not_provided","desktop","0","0","0","","","","","","working_memory","","null","<div class=""fixation"">+</div>","null","","","","","","","","","","","","","","","","",""
"html-keyboard-response","25","607206","0.0-5.0-3.0-1.0-1.0","6981150699107501d80e74b6","not_provided","desktop","0","0","0","","","","","","working_memory","","null","<img class='upper1' src=images/squares/yellow.png><div class=""fixation"">+</div>","null","","","memory","practice","0","1","","","","","","","","","","",""
"html-keyboard-response","26","608107","0.0-5.0-3.0-1.0-2.0","6981150699107501d80e74b6","not_provided","desktop","0","0","0","","","","","","working_memory","","null","<div class=""fixation"">+</div>","null","","","","","","","","","","","","","","","","",""
"html-keyboard-response","27","614109","0.0-5.0-3.0-1.0-3.0","6981150699107501d80e74b6","not_provided","desktop","0","0","0","","","","","","working_memory","","null","<img class='upper1' src=images/squares/yellow.png><div class=""fixation"">+</div>","null","","","test","practice","0","1","s","null","","","","","","","","",""
"html-keyboard-response","28","614611","0.0-5.0-3.0-1.0-4.0","6981150699107501d80e74b6","not_provided","desktop","0","0","0","","","","","","working_memory","","null","<div class=""fixation"">Please respond faster</div>","null","","","","","","","","","","","","","","","","",""
"html-keyboard-response","29","615613","0.0-5.0-3.0-1.0-0.1","6981150699107501d80e74b6","not_provided","desktop","0","0","0","","","","","","working_memory","","null","<div class=""fixation"">+</div>","null","","","","","","","","","","","","","","","","",""
"html-keyboard-response","30","615816","0.0-5.0-3.0-1.0-1.1","6981150699107501d80e74b6","not_provided","desktop","0","0","0","","","","","","working_memory","","null","<img class='b' src=images/squares/magenta.png><img class='e' src=images/squares/orange.png><img class='g' src=images/squares/blue.png><img class='k' src=images/squares/yellow.png><div class=""fixation"">+</div>","null","","","memory","practice","1","4","","","","","","","","","","",""
"html-keyboard-response","31","616717","0.0-5.0-3.0-1.0-2.1","6981150699107501d80e74b6","not_provided","desktop","0","0","0","","","","","","working_memory","","null","<div class=""fixation"">+</div>","null","","","","","","","","","","","","","","","","",""
"html-keyboard-response","32","622718","0.0-5.0-3.0-1.0-3.1","6981150699107501d80e74b6","not_provided","desktop","0","0","0","","","","","","working_memory","","null","<img class='k' src=images/squares/yellow.png><div class=""fixation"">+</div>","null","","","test","practice","1","4","s","null","","","","","","","","",""
"html-keyboard-response","33","623220","0.0-5.0-3.0-1.0-4.1","6981150699107501d80e74b6","not_provided","desktop","0","0","0","","","","","","working_memory","","null","<div class=""fixation"">Please respond faster</div>","null","","","","","","","","","","","","","","","","",""
"html-keyboard-response","34","624221","0.0-5.0-3.0-1.0-0.2","6981150699107501d80e74b6","not_provided","desktop","0","0","0","","","","","","working_memory","","null","<div class=""fixation"">+</div>","null","","","","","","","","","","","","","","","","",""
"html-keyboard-response","35","624423","0.0-5.0-3.0-1.0-1.2","6981150699107501d80e74b6","not_provided","desktop","0","0","0","","","","","","working_memory","","null","<img class='lower2' src=images/squares/brown.png><div class=""fixation"">+</div>","null","","","memory","practice","2","1","","","","","","","","","","",""
"html-keyboard-response","36","625324","0.0-5.0-3.0-1.0-2.2","6981150699107501d80e74b6","not_provided","desktop","0","0","0","","","","","","working_memory","","null","<div class=""fixation"">+</div>","null","","","","","","","","","","","","","","","","",""
"html-keyboard-response","37","631326","0.0-5.0-3.0-1.0-3.2","6981150699107501d80e74b6","not_provided","desktop","0","0","0","","","","","","working_memory","","null","<img class='lower2' src=images/squares/brown.png><div class=""fixation"">+</div>","null","","","test","practice","2","1","s","null","","","","","","","","",""
"html-keyboard-response","38","631827","0.0-5.0-3.0-1.0-4.2","6981150699107501d80e74b6","not_provided","desktop","0","0","0","","","","","","working_memory","","null","<div class=""fixation"">Please respond faster</div>","null","","","","","","","","","","","","","","","","",""
"html-keyboard-response","39","632829","0.0-5.0-3.0-1.0-0.3","6981150699107501d80e74b6","not_provided","desktop","0","0","0","","","","","","working_memory","","null","<div class=""fixation"">+</div>","null","","","","","","","","","","","","","","","","",""
"html-keyboard-response","40","633031","0.0-5.0-3.0-1.0-1.3","6981150699107501d80e74b6","not_provided","desktop","0","0","0","","","","","","working_memory","","null","<img class='b' src=images/squares/blue.png><img class='e' src=images/squares/orange.png><img class='i' src=images/squares/red.png><img class='k' src=images/squares/cyan.png><div class=""fixation"">+</div>","null","","","memory","practice","3","4","","","","","","","","","","",""
"html-keyboard-response","41","633933","0.0-5.0-3.0-1.0-2.3","6981150699107501d80e74b6","not_provided","desktop","0","0","0","","","","","","working_memory","","null","<div class=""fixation"">+</div>","null","","","","","","","","","","","","","","","","",""
"html-keyboard-response","42","639935","0.0-5.0-3.0-1.0-3.3","6981150699107501d80e74b6","not_provided","desktop","0","0","0","","","","","","working_memory","","null","<img class='b' src=images/squares/blue.png><div class=""fixation"">+</div>","null","","","test","practice","3","4","s","null","","","","","","","","",""
"html-keyboard-response","43","640436","0.0-5.0-3.0-1.0-4.3","6981150699107501d80e74b6","not_provided","desktop","0","0","0","","","","","","working_memory","","null","<div class=""fixation"">Please respond faster</div>","null","","","","","","","","","","","","","","","","",""
"html-keyboard-response","44","641437","0.0-5.0-3.0-1.0-0.4","6981150699107501d80e74b6","not_provided","desktop","0","0","0","","","","","","working_memory","","null","<div class=""fixation"">+</div>","null","","","","","","","","","","","","","","","","",""
"html-keyboard-response","45","641639","0.0-5.0-3.0-1.0-1.4","6981150699107501d80e74b6","not_provided","desktop","0","0","0","","","","","","working_memory","","null","<img class='upper2' src=images/squares/black.png><div class=""fixation"">+</div>","null","","","memory","practice","4","1","","","","","","","","","","",""
"html-keyboard-response","46","642541","0.0-5.0-3.0-1.0-2.4","6981150699107501d80e74b6","not_provided","desktop","0","0","0","","","","","","working_memory","","null","<div class=""fixation"">+</div>","null","","","","","","","","","","","","","","","","",""
"html-keyboard-response","47","648543","0.0-5.0-3.0-1.0-3.4","6981150699107501d80e74b6","not_provided","desktop","0","0","0","","","","","","working_memory","","null","<img class='upper2' src=images/squares/yellow.png><div class=""fixation"">+</div>","null","","","test","practice","4","1","k","null","","","","","","","","",""
"html-keyboard-response","48","649045","0.0-5.0-3.0-1.0-4.4","6981150699107501d80e74b6","not_provided","desktop","0","0","0","","","","","","working_memory","","null","<div class=""fixation"">Please respond faster</div>","null","","","","","","","","","","","","","","","","",""
"html-keyboard-response","49","650046","0.0-5.0-3.0-1.0-0.5","6981150699107501d80e74b6","not_provided","desktop","0","0","0","","","","","","working_memory","","null","<div class=""fixation"">+</div>","null","","","","","","","","","","","","","","","","",""
"html-keyboard-response","50","650248","0.0-5.0-3.0-1.0-1.5","6981150699107501d80e74b6","not_provided","desktop","0","0","0","","","","","","working_memory","","null","<img class='b' src=images/squares/black.png><img class='f' src=images/squares/orange.png><img class='g' src=images/squares/cyan.png><img class='j' src=images/squares/blue.png><div class=""fixation"">+</div>","null","","","memory","practice","5","4","","","","","","","","","","",""
"html-keyboard-response","51","651149","0.0-5.0-3.0-1.0-2.5","6981150699107501d80e74b6","not_provided","desktop","0","0","0","","","","","","working_memory","","null","<div class=""fixation"">+</div>","null","","","","","","","","","","","","","","","","",""
"html-keyboard-response","52","657151","0.0-5.0-3.0-1.0-3.5","6981150699107501d80e74b6","not_provided","desktop","0","0","0","","","","","","working_memory","","null","<img class='g' src=images/squares/cyan.png><div class=""fixation"">+</div>","null","","","test","practice","5","4","s","null","","","","","","","","",""
"html-keyboard-response","53","657653","0.0-5.0-3.0-1.0-4.5","6981150699107501d80e74b6","not_provided","desktop","0","0","0","","","","","","working_memory","","null","<div class=""fixation"">Please respond faster</div>","null","","","","","","","","","","","","","","","","",""
"html-keyboard-response","54","658654","0.0-5.0-3.0-1.0-0.6","6981150699107501d80e74b6","not_provided","desktop","0","0","0","","","","","","working_memory","","null","<div class=""fixation"">+</div>","null","","","","","","","","","","","","","","","","",""
"html-keyboard-response","55","658855","0.0-5.0-3.0-1.0-1.6","6981150699107501d80e74b6","not_provided","desktop","0","0","0","","","","","","working_memory","","null","<img class='lower2' src=images/squares/red.png><div class=""fixation"">+</div>","null","","","memory","practice","6","1","","","","","","","","","","",""
"html-keyboard-response","56","659756","0.0-5.0-3.0-1.0-2.6","6981150699107501d80e74b6","not_provided","desktop","0","0","0","","","","","","working_memory","","null","<div class=""fixation"">+</div>","null","","","","","","","","","","","","","","","","",""
"html-keyboard-response","57","665758","0.0-5.0-3.0-1.0-3.6","6981150699107501d80e74b6","not_provided","desktop","0","0","0","","","","","","working_memory","","null","<img class='lower2' src=images/squares/red.png><div class=""fixation"">+</div>","null","","","test","practice","6","1","s","null","","","","","","","","",""
"html-keyboard-response","58","666260","0.0-5.0-3.0-1.0-4.6","6981150699107501d80e74b6","not_provided","desktop","0","0","0","","","","","","working_memory","","null","<div class=""fixation"">Please respond faster</div>","null","","","","","","","","","","","","","","","","",""
"html-keyboard-response","59","667261","0.0-5.0-3.0-1.0-0.7","6981150699107501d80e74b6","not_provided","desktop","0","0","0","","","","","","working_memory","","null","<div class=""fixation"">+</div>","null","","","","","","","","","","","","","","","","",""
"html-keyboard-response","60","667464","0.0-5.0-3.0-1.0-1.7","6981150699107501d80e74b6","not_provided","desktop","0","0","0","","","","","","working_memory","","null","<img class='a' src=images/squares/orange.png><img class='c' src=images/squares/red.png><img class='e' src=images/squares/magenta.png><img class='f' src=images/squares/brown.png><img class='g' src=images/squares/blue.png><img class='h' src=images/squares/black.png><img class='j' src=images/squares/cyan.png><img class='l' src=images/squares/green.png><div class=""fixation"">+</div>","null","","","memory","practice","7","8","","","","","","","","","","",""
"html-keyboard-response","61","668365","0.0-5.0-3.0-1.0-2.7","6981150699107501d80e74b6","not_provided","desktop","0","0","0","","","","","","working_memory","","null","<div class=""fixation"">+</div>","null","","","","","","","","","","","","","","","","",""
"html-keyboard-response","62","674367","0.0-5.0-3.0-1.0-3.7","6981150699107501d80e74b6","not_provided","desktop","0","0","0","","","","","","working_memory","","null","<img class='e' src=images/squares/yellow.png><div class=""fixation"">+</div>","null","","","test","practice","7","8","k","null","","","","","","","","",""
"html-keyboard-response","63","674868","0.0-5.0-3.0-1.0-4.7","6981150699107501d80e74b6","not_provided","desktop","0","0","0","","","","","","working_memory","","null","<div class=""fixation"">Please respond faster</div>","null","","","","","","","","","","","","","","","","",""
"html-keyboard-response","64","675869","0.0-5.0-3.0-1.0-0.8","6981150699107501d80e74b6","not_provided","desktop","0","0","0","","","","","","working_memory","","null","<div class=""fixation"">+</div>","null","","","","","","","","","","","","","","","","",""
"html-keyboard-response","65","676072","0.0-5.0-3.0-1.0-1.8","6981150699107501d80e74b6","not_provided","desktop","0","0","0","","","","","","working_memory","","null","<img class='a' src=images/squares/yellow.png><img class='f' src=images/squares/brown.png><img class='g' src=images/squares/black.png><img class='k' src=images/squares/orange.png><div class=""fixation"">+</div>","null","","","memory","practice","8","4","","","","","","","","","","",""
"html-keyboard-response","66","676973","0.0-5.0-3.0-1.0-2.8","6981150699107501d80e74b6","not_provided","desktop","0","0","0","","","","","","working_memory","","null","<div class=""fixation"">+</div>","null","","","","","","","","","","","","","","","","",""
"html-keyboard-response","67","682975","0.0-5.0-3.0-1.0-3.8","6981150699107501d80e74b6","not_provided","desktop","0","0","0","","","","","","working_memory","","null","<img class='a' src=images/squares/red.png><div class=""fixation"">+</div>","null","","","test","practice","8","4","k","null","","","","","","","","",""
"html-keyboard-response","68","683477","0.0-5.0-3.0-1.0-4.8","6981150699107501d80e74b6","not_provided","desktop","0","0","0","","","","","","working_memory","","null","<div class=""fixation"">Please respond faster</div>","null","","","","","","","","","","","","","","","","",""
"html-keyboard-response","69","684478","0.0-5.0-3.0-1.0-0.9","6981150699107501d80e74b6","not_provided","desktop","0","0","0","","","","","","working_memory","","null","<div class=""fixation"">+</div>","null","","","","","","","","","","","","","","","","",""
"html-keyboard-response","70","684679","0.0-5.0-3.0-1.0-1.9","6981150699107501d80e74b6","not_provided","desktop","0","0","0","","","","","","working_memory","","null","<img class='upper2' src=images/squares/black.png><div class=""fixation"">+</div>","null","","","memory","practice","9","1","","","","","","","","","","",""
"html-keyboard-response","71","685580","0.0-5.0-3.0-1.0-2.9","6981150699107501d80e74b6","not_provided","desktop","0","0","0","","","","","","working_memory","","null","<div class=""fixation"">+</div>","null","","","","","","","","","","","","","","","","",""
"html-keyboard-response","72","691582","0.0-5.0-3.0-1.0-3.9","6981150699107501d80e74b6","not_provided","desktop","0","0","0","","","","","","working_memory","","null","<img class='upper2' src=images/squares/black.png><div class=""fixation"">+</div>","null","","","test","practice","9","1","s","null","","","","","","","","",""
"html-keyboard-response","73","692083","0.0-5.0-3.0-1.0-4.9","6981150699107501d80e74b6","not_provided","desktop","0","0","0","","","","","","working_memory","","null","<div class=""fixation"">Please respond faster</div>","null","","","","","","","","","","","","","","","","",""
"html-keyboard-response","74","693085","0.0-5.0-3.0-1.0-0.10","6981150699107501d80e74b6","not_provided","desktop","0","0","0","","","","","","working_memory","","null","<div class=""fixation"">+</div>","null","","","","","","","","","","","","","","","","",""
"html-keyboard-response","75","693288","0.0-5.0-3.0-1.0-1.10","6981150699107501d80e74b6","not_provided","desktop","0","0","0","","","","","","working_memory","","null","<img class='a' src=images/squares/magenta.png><img class='b' src=images/squares/blue.png><img class='e' src=images/squares/black.png><img class='f' src=images/squares/red.png><img class='h' src=images/squares/orange.png><img class='g' src=images/squares/green.png><img class='k' src=images/squares/brown.png><img class='j' src=images/squares/yellow.png><div class=""fixation"">+</div>","null","","","memory","practice","10","8","","","","","","","","","","",""
"html-keyboard-response","76","694189","0.0-5.0-3.0-1.0-2.10","6981150699107501d80e74b6","not_provided","desktop","0","0","0","","","","","","working_memory","","null","<div class=""fixation"">+</div>","null","","","","","","","","","","","","","","","","",""
"html-keyboard-response","77","700191","0.0-5.0-3.0-1.0-3.10","6981150699107501d80e74b6","not_provided","desktop","0","0","0","","","","","","working_memory","","null","<img class='b' src=images/squares/cyan.png><div class=""fixation"">+</div>","null","","","test","practice","10","8","k","null","","","","","","","","",""
"html-keyboard-response","78","700693","0.0-5.0-3.0-1.0-4.10","6981150699107501d80e74b6","not_provided","desktop","0","0","0","","","","","","working_memory","","null","<div class=""fixation"">Please respond faster</div>","null","","","","","","","","","","","","","","","","",""
"html-keyboard-response","79","701694","0.0-5.0-3.0-1.0-0.11","6981150699107501d80e74b6","not_provided","desktop","0","0","0","","","","","","working_memory","","null","<div class=""fixation"">+</div>","null","","","","","","","","","","","","","","","","",""
"html-keyboard-response","80","701896","0.0-5.0-3.0-1.0-1.11","6981150699107501d80e74b6","not_provided","desktop","0","0","0","","","","","","working_memory","","null","<img class='c' src=images/squares/brown.png><img class='f' src=images/squares/cyan.png><img class='i' src=images/squares/green.png><img class='l' src=images/squares/blue.png><div class=""fixation"">+</div>","null","","","memory","practice","11","4","","","","","","","","","","",""
"html-keyboard-response","81","702798","0.0-5.0-3.0-1.0-2.11","6981150699107501d80e74b6","not_provided","desktop","0","0","0","","","","","","working_memory","","null","<div class=""fixation"">+</div>","null","","","","","","","","","","","","","","","","",""
"html-keyboard-response","82","708800","0.0-5.0-3.0-1.0-3.11","6981150699107501d80e74b6","not_provided","desktop","0","0","0","","","","","","working_memory","","null","<img class='l' src=images/squares/red.png><div class=""fixation"">+</div>","null","","","test","practice","11","4","k","null","","","","","","","","",""
"html-keyboard-response","83","709301","0.0-5.0-3.0-1.0-4.11","6981150699107501d80e74b6","not_provided","desktop","0","0","0","","","","","","working_memory","","null","<div class=""fixation"">Please respond faster</div>","null","","","","","","","","","","","","","","","","",""
"html-keyboard-response","84","710303","0.0-5.0-3.0-1.0-0.12","6981150699107501d80e74b6","not_provided","desktop","0","0","0","","","","","","working_memory","","null","<div class=""fixation"">+</div>","null","","","","","","","","","","","","","","","","",""
"html-keyboard-response","85","710505","0.0-5.0-3.0-1.0-1.12","6981150699107501d80e74b6","not_provided","desktop","0","0","0","","","","","","working_memory","","null","<img class='a' src=images/squares/orange.png><img class='b' src=images/squares/black.png><img class='d' src=images/squares/brown.png><img class='f' src=images/squares/cyan.png><img class='i' src=images/squares/green.png><img class='h' src=images/squares/blue.png><img class='l' src=images/squares/red.png><img class='j' src=images/squares/yellow.png><div class=""fixation"">+</div>","null","","","memory","practice","12","8","","","","","","","","","","",""
"html-keyboard-response","86","711406","0.0-5.0-3.0-1.0-2.12","6981150699107501d80e74b6","not_provided","desktop","0","0","0","","","","","","working_memory","","null","<div class=""fixation"">+</div>","null","","","","","","","","","","","","","","","","",""
"html-keyboard-response","87","717408","0.0-5.0-3.0-1.0-3.12","6981150699107501d80e74b6","not_provided","desktop","0","0","0","","","","","","working_memory","","null","<img class='a' src=images/squares/orange.png><div class=""fixation"">+</div>","null","","","test","practice","12","8","s","null","","","","","","","","",""
"html-keyboard-response","88","717909","0.0-5.0-3.0-1.0-4.12","6981150699107501d80e74b6","not_provided","desktop","0","0","0","","","","","","working_memory","","null","<div class=""fixation"">Please respond faster</div>","null","","","","","","","","","","","","","","","","",""
"html-keyboard-response","89","718910","0.0-5.0-3.0-1.0-0.13","6981150699107501d80e74b6","not_provided","desktop","0","0","0","","","","","","working_memory","","null","<div class=""fixation"">+</div>","null","","","","","","","","","","","","","","","","",""
"html-keyboard-response","90","719112","0.0-5.0-3.0-1.0-1.13","6981150699107501d80e74b6","not_provided","desktop","0","0","0","","","","","","working_memory","","null","<img class='c' src=images/squares/magenta.png><img class='d' src=images/squares/cyan.png><img class='g' src=images/squares/green.png><img class='l' src=images/squares/red.png><div class=""fixation"">+</div>","null","","","memory","practice","13","4","","","","","","","","","","",""
"html-keyboard-response","91","720013","0.0-5.0-3.0-1.0-2.13","6981150699107501d80e74b6","not_provided","desktop","0","0","0","","","","","","working_memory","","null","<div class=""fixation"">+</div>","null","","","","","","","","","","","","","","","","",""
"html-keyboard-response","92","726015","0.0-5.0-3.0-1.0-3.13","6981150699107501d80e74b6","not_provided","desktop","0","0","0","","","","","","working_memory","","null","<img class='c' src=images/squares/orange.png><div class=""fixation"">+</div>","null","","","test","practice","13","4","k","null","","","","","","","","",""
"html-keyboard-response","93","726517","0.0-5.0-3.0-1.0-4.13","6981150699107501d80e74b6","not_provided","desktop","0","0","0","","","","","","working_memory","","null","<div class=""fixation"">Please respond faster</div>","null","","","","","","","","","","","","","","","","",""
"html-keyboard-response","94","727518","0.0-5.0-3.0-1.0-0.14","6981150699107501d80e74b6","not_provided","desktop","0","0","0","","","","","","working_memory","","null","<div class=""fixation"">+</div>","null","","","","","","","","","","","","","","","","",""
"html-keyboard-response","95","727720","0.0-5.0-3.0-1.0-1.14","6981150699107501d80e74b6","not_provided","desktop","0","0","0","","","","","","working_memory","","null","<img class='a' src=images/squares/orange.png><img class='d' src=images/squares/blue.png><img class='g' src=images/squares/green.png><img class='l' src=images/squares/yellow.png><div class=""fixation"">+</div>","null","","","memory","practice","14","4","","","","","","","","","","",""
"html-keyboard-response","96","728622","0.0-5.0-3.0-1.0-2.14","6981150699107501d80e74b6","not_provided","desktop","0","0","0","","","","","","working_memory","","null","<div class=""fixation"">+</div>","null","","","","","","","","","","","","","","","","",""
"html-keyboard-response","97","734624","0.0-5.0-3.0-1.0-3.14","6981150699107501d80e74b6","not_provided","desktop","0","0","0","","","","","","working_memory","","null","<img class='d' src=images/squares/blue.png><div class=""fixation"">+</div>","null","","","test","practice","14","4","s","null","","","","","","","","",""
"html-keyboard-response","98","735125","0.0-5.0-3.0-1.0-4.14","6981150699107501d80e74b6","not_provided","desktop","0","0","0","","","","","","working_memory","","null","<div class=""fixation"">Please respond faster</div>","null","","","","","","","","","","","","","","","","",""
"html-keyboard-response","99","744610","0.0-5.0-3.0-2.0-0.0","6981150699107501d80e74b6","not_provided","desktop","0","0","0","","","","","","working_memory","","9482","<p>Sorry. You made too many mistakes.<br>Let's do the practice session once again.<br><br><b>Press any key to continue</b></p>","س","","","","","","","","","","","","","","","","",""
"html-keyboard-response","100","772276","0.0-5.0-3.1-0.1","6981150699107501d80e74b6","not_provided","desktop","0","0","0","","","","","","working_memory","","27663","<p>We will now start some practice trials.<br><b>The practice trials will also include some trials in which you will need to remember only one square to make sure you understood the instructions.</b><br>You may already want to be ready with your fingers on '<b>s</b>' and '<b>k</b>'.<br><img class=""wm-example-img"" src=""images/examples/keyboard.png""><br><b style=""font-size:1.2em;"">&lsquo;S&rsquo; = SAME &nbsp;&nbsp;&nbsp; &lsquo;K&rsquo; = DIFFERENT</b><br><br><u>Please try to be as accurate as possible.</u><br><br><b>Press any key to begin</b></p>","enter","","","","","","","","","","","","","","","","",""
"html-keyboard-response","101","774277","0.0-5.0-3.1-1.1-0.15","6981150699107501d80e74b6","not_provided","desktop","0","0","0","","","","","","working_memory","","null","<div class=""fixation"">+</div>","null","","","","","","","","","","","","","","","","",""
"html-keyboard-response","102","774479","0.0-5.0-3.1-1.1-1.15","6981150699107501d80e74b6","not_provided","desktop","0","0","0","","","","","","working_memory","","null","<img class='a' src=images/squares/orange.png><img class='f' src=images/squares/magenta.png><img class='g' src=images/squares/red.png><img class='k' src=images/squares/green.png><div class=""fixation"">+</div>","null","","","memory","practice","15","4","","","","","","","","","","",""
"html-keyboard-response","103","775380","0.0-5.0-3.1-1.1-2.15","6981150699107501d80e74b6","not_provided","desktop","0","0","0","","","","","","working_memory","","null","<div class=""fixation"">+</div>","null","","","","","","","","","","","","","","","","",""
"html-keyboard-response","104","781382","0.0-5.0-3.1-1.1-3.15","6981150699107501d80e74b6","not_provided","desktop","0","0","0","","","","","","working_memory","","null","<img class='k' src=images/squares/green.png><div class=""fixation"">+</div>","null","","","test","practice","15","4","s","null","","","","","","","","",""
"html-keyboard-response","105","781883","0.0-5.0-3.1-1.1-4.15","6981150699107501d80e74b6","not_provided","desktop","0","0","0","","","","","","working_memory","","null","<div class=""fixation"">Please respond faster</div>","null","","","","","","","","","","","","","","","","",""
"html-keyboard-response","106","782885","0.0-5.0-3.1-1.1-0.16","6981150699107501d80e74b6","not_provided","desktop","0","0","0","","","","","","working_memory","","null","<div class=""fixation"">+</div>","null","","","","","","","","","","","","","","","","",""
"html-keyboard-response","107","783087","0.0-5.0-3.1-1.1-1.16","6981150699107501d80e74b6","not_provided","desktop","0","0","0","","","","","","working_memory","","null","<img class='b' src=images/squares/orange.png><img class='d' src=images/squares/brown.png><img class='i' src=images/squares/green.png><img class='j' src=images/squares/yellow.png><div class=""fixation"">+</div>","null","","","memory","practice","16","4","","","","","","","","","","",""
"html-keyboard-response","108","783988","0.0-5.0-3.1-1.1-2.16","6981150699107501d80e74b6","not_provided","desktop","0","0","0","","","","","","working_memory","","null","<div class=""fixation"">+</div>","null","","","","","","","","","","","","","","","","",""
"html-keyboard-response","109","789990","0.0-5.0-3.1-1.1-3.16","6981150699107501d80e74b6","not_provided","desktop","0","0","0","","","","","","working_memory","","null","<img class='j' src=images/squares/yellow.png><div class=""fixation"">+</div>","null","","","test","practice","16","4","s","null","","","","","","","","",""
"html-keyboard-response","110","790492","0.0-5.0-3.1-1.1-4.16","6981150699107501d80e74b6","not_provided","desktop","0","0","0","","","","","","working_memory","","null","<div class=""fixation"">Please respond faster</div>","null","","","","","","","","","","","","","","","","",""
"html-keyboard-response","111","791493","0.0-5.0-3.1-1.1-0.17","6981150699107501d80e74b6","not_provided","desktop","0","0","0","","","","","","working_memory","","null","<div class=""fixation"">+</div>","null","","","","","","","","","","","","","","","","",""
"html-keyboard-response","112","791696","0.0-5.0-3.1-1.1-1.17","6981150699107501d80e74b6","not_provided","desktop","0","0","0","","","","","","working_memory","","null","<img class='a' src=images/squares/orange.png><img class='b' src=images/squares/magenta.png><img class='d' src=images/squares/red.png><img class='e' src=images/squares/yellow.png><img class='i' src=images/squares/black.png><img class='h' src=images/squares/green.png><img class='l' src=images/squares/blue.png><img class='j' src=images/squares/cyan.png><div class=""fixation"">+</div>","null","","","memory","practice","17","8","","","","","","","","","","",""
"html-keyboard-response","113","792597","0.0-5.0-3.1-1.1-2.17","6981150699107501d80e74b6","not_provided","desktop","0","0","0","","","","","","working_memory","","null","<div class=""fixation"">+</div>","null","","","","","","","","","","","","","","","","",""
"html-keyboard-response","114","798599","0.0-5.0-3.1-1.1-3.17","6981150699107501d80e74b6","not_provided","desktop","0","0","0","","","","","","working_memory","","null","<img class='l' src=images/squares/blue.png><div class=""fixation"">+</div>","null","","","test","practice","17","8","s","null","","","","","","","","",""
"html-keyboard-response","115","799101","0.0-5.0-3.1-1.1-4.17","6981150699107501d80e74b6","not_provided","desktop","0","0","0","","","","","","working_memory","","null","<div class=""fixation"">Please respond faster</div>","null","","","","","","","","","","","","","","","","",""
"html-keyboard-response","116","800102","0.0-5.0-3.1-1.1-0.18","6981150699107501d80e74b6","not_provided","desktop","0","0","0","","","","","","working_memory","","null","<div class=""fixation"">+</div>","null","","","","","","","","","","","","","","","","",""
"html-keyboard-response","117","800303","0.0-5.0-3.1-1.1-1.18","6981150699107501d80e74b6","not_provided","desktop","0","0","0","","","","","","working_memory","","null","<img class='lower3' src=images/squares/black.png><div class=""fixation"">+</div>","null","","","memory","practice","18","1","","","","","","","","","","",""
"html-keyboard-response","118","801205","0.0-5.0-3.1-1.1-2.18","6981150699107501d80e74b6","not_provided","desktop","0","0","0","","","","","","working_memory","","null","<div class=""fixation"">+</div>","null","","","","","","","","","","","","","","","","",""
"html-keyboard-response","119","807206","0.0-5.0-3.1-1.1-3.18","6981150699107501d80e74b6","not_provided","desktop","0","0","0","","","","","","working_memory","","null","<img class='lower3' src=images/squares/black.png><div class=""fixation"">+</div>","null","","","test","practice","18","1","s","null","","","","","","","","",""
"html-keyboard-response","120","807708","0.0-5.0-3.1-1.1-4.18","6981150699107501d80e74b6","not_provided","desktop","0","0","0","","","","","","working_memory","","null","<div class=""fixation"">Please respond faster</div>","null","","","","","","","","","","","","","","","","",""
"html-keyboard-response","121","808709","0.0-5.0-3.1-1.1-0.19","6981150699107501d80e74b6","not_provided","desktop","0","0","0","","","","","","working_memory","","null","<div class=""fixation"">+</div>","null","","","","","","","","","","","","","","","","",""
"html-keyboard-response","122","808912","0.0-5.0-3.1-1.1-1.19","6981150699107501d80e74b6","not_provided","desktop","0","0","0","","","","","","working_memory","","null","<img class='a' src=images/squares/yellow.png><img class='c' src=images/squares/cyan.png><img class='e' src=images/squares/magenta.png><img class='d' src=images/squares/orange.png><img class='h' src=images/squares/black.png><img class='i' src=images/squares/green.png><img class='k' src=images/squares/brown.png><img class='j' src=images/squares/red.png><div class=""fixation"">+</div>","null","","","memory","practice","19","8","","","","","","","","","","",""
"html-keyboard-response","123","809814","0.0-5.0-3.1-1.1-2.19","6981150699107501d80e74b6","not_provided","desktop","0","0","0","","","","","","working_memory","","null","<div class=""fixation"">+</div>","null","","","","","","","","","","","","","","","","",""
"html-keyboard-response","124","815816","0.0-5.0-3.1-1.1-3.19","6981150699107501d80e74b6","not_provided","desktop","0","0","0","","","","","","working_memory","","null","<img class='d' src=images/squares/orange.png><div class=""fixation"">+</div>","null","","","test","practice","19","8","s","null","","","","","","","","",""
"html-keyboard-response","125","816318","0.0-5.0-3.1-1.1-4.19","6981150699107501d80e74b6","not_provided","desktop","0","0","0","","","","","","working_memory","","null","<div class=""fixation"">Please respond faster</div>","null","","","","","","","","","","","","","","","","",""
"html-keyboard-response","126","817320","0.0-5.0-3.1-1.1-0.20","6981150699107501d80e74b6","not_provided","desktop","0","0","0","","","","","","working_memory","","null","<div class=""fixation"">+</div>","null","","","","","","","","","","","","","","","","",""
"html-keyboard-response","127","817522","0.0-5.0-3.1-1.1-1.20","6981150699107501d80e74b6","not_provided","desktop","0","0","0","","","","","","working_memory","","null","<img class='lower1' src=images/squares/cyan.png><div class=""fixation"">+</div>","null","","","memory","practice","20","1","","","","","","","","","","",""
"html-keyboard-response","128","818423","0.0-5.0-3.1-1.1-2.20","6981150699107501d80e74b6","not_provided","desktop","0","0","0","","","","","","working_memory","","null","<div class=""fixation"">+</div>","null","","","","","","","","","","","","","","","","",""
"html-keyboard-response","129","824425","0.0-5.0-3.1-1.1-3.20","6981150699107501d80e74b6","not_provided","desktop","0","0","0","","","","","","working_memory","","null","<img class='lower1' src=images/squares/orange.png><div class=""fixation"">+</div>","null","","","test","practice","20","1","k","null","","","","","","","","",""
"html-keyboard-response","130","824926","0.0-5.0-3.1-1.1-4.20","6981150699107501d80e74b6","not_provided","desktop","0","0","0","","","","","","working_memory","","null","<div class=""fixation"">Please respond faster</div>","null","","","","","","","","","","","","","","","","",""
"html-keyboard-response","131","825927","0.0-5.0-3.1-1.1-0.21","6981150699107501d80e74b6","not_provided","desktop","0","0","0","","","","","","working_memory","","null","<div class=""fixation"">+</div>","null","","","","","","","","","","","","","","","","",""
"html-keyboard-response","132","826129","0.0-5.0-3.1-1.1-1.21","6981150699107501d80e74b6","not_provided","desktop","0","0","0","","","","","","working_memory","","null","<img class='c' src=images/squares/magenta.png><img class='a' src=images/squares/black.png><img class='d' src=images/squares/red.png><img class='e' src=images/squares/yellow.png><img class='h' src=images/squares/blue.png><img class='g' src=images/squares/brown.png><img class='j' src=images/squares/cyan.png><img class='l' src=images/squares/orange.png><div class=""fixation"">+</div>","null","","","memory","practice","21","8","","","","","","","","","","",""
"html-keyboard-response","133","827031","0.0-5.0-3.1-1.1-2.21","6981150699107501d80e74b6","not_provided","desktop","0","0","0","","","","","","working_memory","","null","<div class=""fixation"">+</div>","null","","","","","","","","","","","","","","","","",""
"html-keyboard-response","134","833032","0.0-5.0-3.1-1.1-3.21","6981150699107501d80e74b6","not_provided","desktop","0","0","0","","","","","","working_memory","","null","<img class='a' src=images/squares/black.png><div class=""fixation"">+</div>","null","","","test","practice","21","8","s","null","","","","","","","","",""
"html-keyboard-response","135","833533","0.0-5.0-3.1-1.1-4.21","6981150699107501d80e74b6","not_provided","desktop","0","0","0","","","","","","working_memory","","null","<div class=""fixation"">Please respond faster</div>","null","","","","","","","","","","","","","","","","",""
"html-keyboard-response","136","834535","0.0-5.0-3.1-1.1-0.22","6981150699107501d80e74b6","not_provided","desktop","0","0","0","","","","","","working_memory","","null","<div class=""fixation"">+</div>","null","","","","","","","","","","","","","","","","",""
"html-keyboard-response","137","834736","0.0-5.0-3.1-1.1-1.22","6981150699107501d80e74b6","not_provided","desktop","0","0","0","","","","","","working_memory","","null","<img class='c' src=images/squares/magenta.png><img class='f' src=images/squares/green.png><img class='i' src=images/squares/orange.png><img class='j' src=images/squares/black.png><div class=""fixation"">+</div>","null","","","memory","practice","22","4","","","","","","","","","","",""
"html-keyboard-response","138","835637","0.0-5.0-3.1-1.1-2.22","6981150699107501d80e74b6","not_provided","desktop","0","0","0","","","","","","working_memory","","null","<div class=""fixation"">+</div>","null","","","","","","","","","","","","","","","","",""
"html-keyboard-response","139","841639","0.0-5.0-3.1-1.1-3.22","6981150699107501d80e74b6","not_provided","desktop","0","0","0","","","","","","working_memory","","null","<img class='j' src=images/squares/cyan.png><div class=""fixation"">+</div>","null","","","test","practice","22","4","k","null","","","","","","","","",""
"html-keyboard-response","140","842140","0.0-5.0-3.1-1.1-4.22","6981150699107501d80e74b6","not_provided","desktop","0","0","0","","","","","","working_memory","","null","<div class=""fixation"">Please respond faster</div>","null","","","","","","","","","","","","","","","","",""
"html-keyboard-response","141","843142","0.0-5.0-3.1-1.1-0.23","6981150699107501d80e74b6","not_provided","desktop","0","0","0","","","","","","working_memory","","null","<div class=""fixation"">+</div>","null","","","","","","","","","","","","","","","","",""
"html-keyboard-response","142","843344","0.0-5.0-3.1-1.1-1.23","6981150699107501d80e74b6","not_provided","desktop","0","0","0","","","","","","working_memory","","null","<img class='b' src=images/squares/brown.png><img class='d' src=images/squares/black.png><img class='i' src=images/squares/cyan.png><img class='k' src=images/squares/red.png><div class=""fixation"">+</div>","null","","","memory","practice","23","4","","","","","","","","","","",""
"html-keyboard-response","143","844245","0.0-5.0-3.1-1.1-2.23","6981150699107501d80e74b6","not_provided","desktop","0","0","0","","","","","","working_memory","","null","<div class=""fixation"">+</div>","null","","","","","","","","","","","","","","","","",""
"html-keyboard-response","144","850247","0.0-5.0-3.1-1.1-3.23","6981150699107501d80e74b6","not_provided","desktop","0","0","0","","","","","","working_memory","","null","<img class='k' src=images/squares/red.png><div class=""fixation"">+</div>","null","","","test","practice","23","4","s","null","","","","","","","","",""
"html-keyboard-response","145","850748","0.0-5.0-3.1-1.1-4.23","6981150699107501d80e74b6","not_provided","desktop","0","0","0","","","","","","working_memory","","null","<div class=""fixation"">Please respond faster</div>","null","","","","","","","","","","","","","","","","",""
"html-keyboard-response","146","851750","0.0-5.0-3.1-1.1-0.24","6981150699107501d80e74b6","not_provided","desktop","0","0","0","","","","","","working_memory","","null","<div class=""fixation"">+</div>","null","","","","","","","","","","","","","","","","",""
"html-keyboard-response","147","851952","0.0-5.0-3.1-1.1-1.24","6981150699107501d80e74b6","not_provided","desktop","0","0","0","","","","","","working_memory","","null","<img class='b' src=images/squares/green.png><img class='a' src=images/squares/orange.png><img class='e' src=images/squares/brown.png><img class='d' src=images/squares/yellow.png><img class='h' src=images/squares/magenta.png><img class='i' src=images/squares/red.png><img class='k' src=images/squares/black.png><img class='j' src=images/squares/cyan.png><div class=""fixation"">+</div>","null","","","memory","practice","24","8","","","","","","","","","","",""
"html-keyboard-response","148","852853","0.0-5.0-3.1-1.1-2.24","6981150699107501d80e74b6","not_provided","desktop","0","0","0","","","","","","working_memory","","null","<div class=""fixation"">+</div>","null","","","","","","","","","","","","","","","","",""
"html-keyboard-response","149","858855","0.0-5.0-3.1-1.1-3.24","6981150699107501d80e74b6","not_provided","desktop","0","0","0","","","","","","working_memory","","null","<img class='a' src=images/squares/blue.png><div class=""fixation"">+</div>","null","","","test","practice","24","8","k","null","","","","","","","","",""
"html-keyboard-response","150","859357","0.0-5.0-3.1-1.1-4.24","6981150699107501d80e74b6","not_provided","desktop","0","0","0","","","","","","working_memory","","null","<div class=""fixation"">Please respond faster</div>","null","","","","","","","","","","","","","","","","",""
"html-keyboard-response","151","860358","0.0-5.0-3.1-1.1-0.25","6981150699107501d80e74b6","not_provided","desktop","0","0","0","","","","","","working_memory","","null","<div class=""fixation"">+</div>","null","","","","","","","","","","","","","","","","",""
"html-keyboard-response","152","860560","0.0-5.0-3.1-1.1-1.25","6981150699107501d80e74b6","not_provided","desktop","0","0","0","","","","","","working_memory","","null","<img class='upper2' src=images/squares/black.png><div class=""fixation"">+</div>","null","","","memory","practice","25","1","","","","","","","","","","",""
"html-keyboard-response","153","861461","0.0-5.0-3.1-1.1-2.25","6981150699107501d80e74b6","not_provided","desktop","0","0","0","","","","","","working_memory","","null","<div class=""fixation"">+</div>","null","","","","","","","","","","","","","","","","",""
"html-keyboard-response","154","867463","0.0-5.0-3.1-1.1-3.25","6981150699107501d80e74b6","not_provided","desktop","0","0","0","","","","","","working_memory","","null","<img class='upper2' src=images/squares/brown.png><div class=""fixation"">+</div>","null","","","test","practice","25","1","k","null","","","","","","","","",""
"html-keyboard-response","155","867964","0.0-5.0-3.1-1.1-4.25","6981150699107501d80e74b6","not_provided","desktop","0","0","0","","","","","","working_memory","","null","<div class=""fixation"">Please respond faster</div>","null","","","","","","","","","","","","","","","","",""
"html-keyboard-response","156","868966","0.0-5.0-3.1-1.1-0.26","6981150699107501d80e74b6","not_provided","desktop","0","0","0","","","","","","working_memory","","null","<div class=""fixation"">+</div>","null","","","","","","","","","","","","","","","","",""
"html-keyboard-response","157","869168","0.0-5.0-3.1-1.1-1.26","6981150699107501d80e74b6","not_provided","desktop","0","0","0","","","","","","working_memory","","null","<img class='b' src=images/squares/black.png><img class='c' src=images/squares/green.png><img class='f' src=images/squares/orange.png><img class='d' src=images/squares/brown.png><img class='h' src=images/squares/magenta.png><img class='i' src=images/squares/red.png><img class='j' src=images/squares/blue.png><img class='k' src=images/squares/yellow.png><div class=""fixation"">+</div>","null","","","memory","practice","26","8","","","","","","","","","","",""
"html-keyboard-response","158","870070","0.0-5.0-3.1-1.1-2.26","6981150699107501d80e74b6","not_provided","desktop","0","0","0","","","","","","working_memory","","null","<div class=""fixation"">+</div>","null","","","","","","","","","","","","","","","","",""
"html-keyboard-response","159","876072","0.0-5.0-3.1-1.1-3.26","6981150699107501d80e74b6","not_provided","desktop","0","0","0","","","","","","working_memory","","null","<img class='k' src=images/squares/cyan.png><div class=""fixation"">+</div>","null","","","test","practice","26","8","k","null","","","","","","","","",""
"html-keyboard-response","160","876574","0.0-5.0-3.1-1.1-4.26","6981150699107501d80e74b6","not_provided","desktop","0","0","0","","","","","","working_memory","","null","<div class=""fixation"">Please respond faster</div>","null","","","","","","","","","","","","","","","","",""
"html-keyboard-response","161","877575","0.0-5.0-3.1-1.1-0.27","6981150699107501d80e74b6","not_provided","desktop","0","0","0","","","","","","working_memory","","null","<div class=""fixation"">+</div>","null","","","","","","","","","","","","","","","","",""
"html-keyboard-response","162","877778","0.0-5.0-3.1-1.1-1.27","6981150699107501d80e74b6","not_provided","desktop","0","0","0","","","","","","working_memory","","null","<img class='c' src=images/squares/magenta.png><img class='b' src=images/squares/blue.png><img class='d' src=images/squares/orange.png><img class='f' src=images/squares/cyan.png><img class='g' src=images/squares/black.png><img class='i' src=images/squares/red.png><img class='l' src=images/squares/yellow.png><img class='k' src=images/squares/brown.png><div class=""fixation"">+</div>","null","","","memory","practice","27","8","","","","","","","","","","",""
"html-keyboard-response","163","878679","0.0-5.0-3.1-1.1-2.27","6981150699107501d80e74b6","not_provided","desktop","0","0","0","","","","","","working_memory","","null","<div class=""fixation"">+</div>","null","","","","","","","","","","","","","","","","",""
"html-keyboard-response","164","884680","0.0-5.0-3.1-1.1-3.27","6981150699107501d80e74b6","not_provided","desktop","0","0","0","","","","","","working_memory","","null","<img class='i' src=images/squares/green.png><div class=""fixation"">+</div>","null","","","test","practice","27","8","k","null","","","","","","","","",""
"html-keyboard-response","165","885181","0.0-5.0-3.1-1.1-4.27","6981150699107501d80e74b6","not_provided","desktop","0","0","0","","","","","","working_memory","","null","<div class=""fixation"">Please respond faster</div>","null","","","","","","","","","","","","","","","","",""
"html-keyboard-response","166","886183","0.0-5.0-3.1-1.1-0.28","6981150699107501d80e74b6","not_provided","desktop","0","0","0","","","","","","working_memory","","null","<div class=""fixation"">+</div>","null","","","","","","","","","","","","","","","","",""
"html-keyboard-response","167","886384","0.0-5.0-3.1-1.1-1.28","6981150699107501d80e74b6","not_provided","desktop","0","0","0","","","","","","working_memory","","null","<img class='lower3' src=images/squares/blue.png><div class=""fixation"">+</div>","null","","","memory","practice","28","1","","","","","","","","","","",""
"html-keyboard-response","168","887286","0.0-5.0-3.1-1.1-2.28","6981150699107501d80e74b6","not_provided","desktop","0","0","0","","","","","","working_memory","","null","<div class=""fixation"">+</div>","null","","","","","","","","","","","","","","","","",""
"html-keyboard-response","169","893288","0.0-5.0-3.1-1.1-3.28","6981150699107501d80e74b6","not_provided","desktop","0","0","0","","","","","","working_memory","","null","<img class='lower3' src=images/squares/orange.png><div class=""fixation"">+</div>","null","","","test","practice","28","1","k","null","","","","","","","","",""
"html-keyboard-response","170","893789","0.0-5.0-3.1-1.1-4.28","6981150699107501d80e74b6","not_provided","desktop","0","0","0","","","","","","working_memory","","null","<div class=""fixation"">Please respond faster</div>","null","","","","","","","","","","","","","","","","",""
"html-keyboard-response","171","894791","0.0-5.0-3.1-1.1-0.29","6981150699107501d80e74b6","not_provided","desktop","0","0","0","","","","","","working_memory","","null","<div class=""fixation"">+</div>","null","","","","","","","","","","","","","","","","",""
"html-keyboard-response","172","894992","0.0-5.0-3.1-1.1-1.29","6981150699107501d80e74b6","not_provided","desktop","0","0","0","","","","","","working_memory","","null","<img class='upper3' src=images/squares/green.png><div class=""fixation"">+</div>","null","","","memory","practice","29","1","","","","","","","","","","",""
"html-keyboard-response","173","895894","0.0-5.0-3.1-1.1-2.29","6981150699107501d80e74b6","not_provided","desktop","0","0","0","","","","","","working_memory","","null","<div class=""fixation"">+</div>","null","","","","","","","","","","","","","","","","",""
"html-keyboard-response","174","901895","0.0-5.0-3.1-1.1-3.29","6981150699107501d80e74b6","not_provided","desktop","0","0","0","","","","","","working_memory","","null","<img class='upper3' src=images/squares/green.png><div class=""fixation"">+</div>","null","","","test","practice","29","1","s","null","","","","","","","","",""
"html-keyboard-response","175","902396","0.0-5.0-3.1-1.1-4.29","6981150699107501d80e74b6","not_provided","desktop","0","0","0","","","","","","working_memory","","null","<div class=""fixation"">Please respond faster</div>","null","","","","","","","","","","","","","","","","",""
"html-keyboard-response","176","928302","0.0-5.0-3.1-2.1-0.1","6981150699107501d80e74b6","not_provided","desktop","1","1","0","","","","","","working_memory","","25903","<p>Sorry. You made too many mistakes.<br>Let's do the practice session once again.<br><br><b>Press any key to continue</b></p>","s","","","","","","","","","","","","","","","","",""
"html-keyboard-response","177","932261","0.0-5.0-3.2-0.2","6981150699107501d80e74b6","not_provided","desktop","1","1","0","","","","","","working_memory","","3957","<p>We will now start some practice trials.<br><b>The practice trials will also include some trials in which you will need to remember only one square to make sure you understood the instructions.</b><br>You may already want to be ready with your fingers on '<b>s</b>' and '<b>k</b>'.<br><img class=""wm-example-img"" src=""images/examples/keyboard.png""><br><b style=""font-size:1.2em;"">&lsquo;S&rsquo; = SAME &nbsp;&nbsp;&nbsp; &lsquo;K&rsquo; = DIFFERENT</b><br><br><u>Please try to be as accurate as possible.</u><br><br><b>Press any key to begin</b></p>","s","","","","","","","","","","","","","","","","",""
"html-keyboard-response","178","934262","0.0-5.0-3.2-1.2-0.30","6981150699107501d80e74b6","not_provided","desktop","1","1","0","","","","","","working_memory","","null","<div class=""fixation"">+</div>","null","","","","","","","","","","","","","","","","",""
"html-keyboard-response","179","934464","0.0-5.0-3.2-1.2-1.30","6981150699107501d80e74b6","not_provided","desktop","1","1","0","","","","","","working_memory","","null","<img class='lower3' src=images/squares/brown.png><div class=""fixation"">+</div>","null","","","memory","practice","30","1","","","","","","","","","","",""
"html-keyboard-response","180","935366","0.0-5.0-3.2-1.2-2.30","6981150699107501d80e74b6","not_provided","desktop","1","1","0","","","","","","working_memory","","null","<div class=""fixation"">+</div>","null","","","","","","","","","","","","","","","","",""
"html-keyboard-response","181","936998","0.0-5.0-3.2-1.2-3.30","6981150699107501d80e74b6","not_provided","desktop","1","1","0","","","","","","working_memory","","1631","<img class='lower3' src=images/squares/cyan.png><div class=""fixation"">+</div>","k","","","test","practice","30","1","k","true","","","","","","","","",""
"html-keyboard-response","182","937500","0.0-5.0-3.2-1.2-4.30","6981150699107501d80e74b6","not_provided","desktop","1","1","0","","","","","","working_memory","","null","<div class=""fixation"">Correct</div>","null","","","","","","","","","","","","","","","","",""
"html-keyboard-response","183","938501","0.0-5.0-3.2-1.2-0.31","6981150699107501d80e74b6","not_provided","desktop","1","1","0","","","","","","working_memory","","null","<div class=""fixation"">+</div>","null","","","","","","","","","","","","","","","","",""
"html-keyboard-response","184","938703","0.0-5.0-3.2-1.2-1.31","6981150699107501d80e74b6","not_provided","desktop","1","1","0","","","","","","working_memory","","null","<img class='b' src=images/squares/red.png><img class='e' src=images/squares/brown.png><img class='g' src=images/squares/green.png><img class='k' src=images/squares/cyan.png><div class=""fixation"">+</div>","null","","","memory","practice","31","4","","","","","","","","","","",""
"html-keyboard-response","185","939604","0.0-5.0-3.2-1.2-2.31","6981150699107501d80e74b6","not_provided","desktop","1","1","0","","","","","","working_memory","","null","<div class=""fixation"">+</div>","null","","","","","","","","","","","","","","","","",""
"html-keyboard-response","186","941286","0.0-5.0-3.2-1.2-3.31","6981150699107501d80e74b6","not_provided","desktop","1","1","0","","","","","","working_memory","","1680","<img class='k' src=images/squares/cyan.png><div class=""fixation"">+</div>","s","","","test","practice","31","4","s","true","","","","","","","","",""
"html-keyboard-response","187","941787","0.0-5.0-3.2-1.2-4.31","6981150699107501d80e74b6","not_provided","desktop","1","1","0","","","","","","working_memory","","null","<div class=""fixation"">Correct</div>","null","","","","","","","","","","","","","","","","",""
"html-keyboard-response","188","942788","0.0-5.0-3.2-1.2-0.32","6981150699107501d80e74b6","not_provided","desktop","1","1","0","","","","","","working_memory","","null","<div class=""fixation"">+</div>","null","","","","","","","","","","","","","","","","",""
"html-keyboard-response","189","942990","0.0-5.0-3.2-1.2-1.32","6981150699107501d80e74b6","not_provided","desktop","1","1","0","","","","","","working_memory","","null","<img class='c' src=images/squares/green.png><img class='f' src=images/squares/yellow.png><img class='g' src=images/squares/black.png><img class='j' src=images/squares/red.png><div class=""fixation"">+</div>","null","","","memory","practice","32","4","","","","","","","","","","",""
"html-keyboard-response","190","943892","0.0-5.0-3.2-1.2-2.32","6981150699107501d80e74b6","not_provided","desktop","1","1","0","","","","","","working_memory","","null","<div class=""fixation"">+</div>","null","","","","","","","","","","","","","","","","",""
"html-keyboard-response","191","945222","0.0-5.0-3.2-1.2-3.32","6981150699107501d80e74b6","not_provided","desktop","1","1","0","","","","","","working_memory","","1329","<img class='g' src=images/squares/cyan.png><div class=""fixation"">+</div>","k","","","test","practice","32","4","k","true","","","","","","","","",""
"html-keyboard-response","192","945724","0.0-5.0-3.2-1.2-4.32","6981150699107501d80e74b6","not_provided","desktop","1","1","0","","","","","","working_memory","","null","<div class=""fixation"">Correct</div>","null","","","","","","","","","","","","","","","","",""
"html-keyboard-response","193","946725","0.0-5.0-3.2-1.2-0.33","6981150699107501d80e74b6","not_provided","desktop","1","1","0","","","","","","working_memory","","null","<div class=""fixation"">+</div>","null","","","","","","","","","","","","","","","","",""
"html-keyboard-response","194","946927","0.0-5.0-3.2-1.2-1.33","6981150699107501d80e74b6","not_provided","desktop","1","1","0","","","","","","working_memory","","null","<img class='b' src=images/squares/orange.png><img class='d' src=images/squares/magenta.png><img class='i' src=images/squares/yellow.png><img class='k' src=images/squares/blue.png><div class=""fixation"">+</div>","null","","","memory","practice","33","4","","","","","","","","","","",""
"html-keyboard-response","195","947828","0.0-5.0-3.2-1.2-2.33","6981150699107501d80e74b6","not_provided","desktop","1","1","0","","","","","","working_memory","","null","<div class=""fixation"">+</div>","null","","","","","","","","","","","","","","","","",""
"html-keyboard-response","196","949222","0.0-5.0-3.2-1.2-3.33","6981150699107501d80e74b6","not_provided","desktop","1","1","0","","","","","","working_memory","","1393","<img class='k' src=images/squares/blue.png><div class=""fixation"">+</div>","k","","","test","practice","33","4","s","false","","","","","","","","",""
"html-keyboard-response","197","949724","0.0-5.0-3.2-1.2-4.33","6981150699107501d80e74b6","not_provided","desktop","1","1","0","","","","","","working_memory","","null","<div class=""fixation"">Incorrect</div>","null","","","","","","","","","","","","","","","","",""
"html-keyboard-response","198","950725","0.0-5.0-3.2-1.2-0.34","6981150699107501d80e74b6","not_provided","desktop","1","1","0","","","","","","working_memory","","null","<div class=""fixation"">+</div>","null","","","","","","","","","","","","","","","","",""
"html-keyboard-response","199","950927","0.0-5.0-3.2-1.2-1.34","6981150699107501d80e74b6","not_provided","desktop","1","1","0","","","","","","working_memory","","null","<img class='b' src=images/squares/green.png><img class='a' src=images/squares/cyan.png><img class='d' src=images/squares/orange.png><img class='f' src=images/squares/magenta.png><img class='i' src=images/squares/blue.png><img class='g' src=images/squares/brown.png><img class='k' src=images/squares/red.png><img class='j' src=images/squares/yellow.png><div class=""fixation"">+</div>","null","","","memory","practice","34","8","","","","","","","","","","",""
"html-keyboard-response","200","951828","0.0-5.0-3.2-1.2-2.34","6981150699107501d80e74b6","not_provided","desktop","1","1","0","","","","","","working_memory","","null","<div class=""fixation"">+</div>","null","","","","","","","","","","","","","","","","",""
"html-keyboard-response","201","953150","0.0-5.0-3.2-1.2-3.34","6981150699107501d80e74b6","not_provided","desktop","1","1","0","","","","","","working_memory","","1320","<img class='k' src=images/squares/black.png><div class=""fixation"">+</div>","k","","","test","practice","34","8","k","true","","","","","","","","",""
"html-keyboard-response","202","953651","0.0-5.0-3.2-1.2-4.34","6981150699107501d80e74b6","not_provided","desktop","1","1","0","","","","","","working_memory","","null","<div class=""fixation"">Correct</div>","null","","","","","","","","","","","","","","","","",""
"html-keyboard-response","203","954652","0.0-5.0-3.2-1.2-0.35","6981150699107501d80e74b6","not_provided","desktop","1","1","0","","","","","","working_memory","","null","<div class=""fixation"">+</div>","null","","","","","","","","","","","","","","","","",""
"html-keyboard-response","204","954854","0.0-5.0-3.2-1.2-1.35","6981150699107501d80e74b6","not_provided","desktop","1","1","0","","","","","","working_memory","","null","<img class='c' src=images/squares/cyan.png><img class='d' src=images/squares/orange.png><img class='h' src=images/squares/yellow.png><img class='k' src=images/squares/black.png><div class=""fixation"">+</div>","null","","","memory","practice","35","4","","","","","","","","","","",""
"html-keyboard-response","205","955755","0.0-5.0-3.2-1.2-2.35","6981150699107501d80e74b6","not_provided","desktop","1","1","0","","","","","","working_memory","","null","<div class=""fixation"">+</div>","null","","","","","","","","","","","","","","","","",""
"html-keyboard-response","206","957223","0.0-5.0-3.2-1.2-3.35","6981150699107501d80e74b6","not_provided","desktop","1","1","0","","","","","","working_memory","","1466","<img class='d' src=images/squares/orange.png><div class=""fixation"">+</div>","s","","","test","practice","35","4","s","true","","","","","","","","",""
"html-keyboard-response","207","957724","0.0-5.0-3.2-1.2-4.35","6981150699107501d80e74b6","not_provided","desktop","1","1","0","","","","","","working_memory","","null","<div class=""fixation"">Correct</div>","null","","","","","","","","","","","","","","","","",""
"html-keyboard-response","208","958725","0.0-5.0-3.2-1.2-0.36","6981150699107501d80e74b6","not_provided","desktop","1","1","0","","","","","","working_memory","","null","<div class=""fixation"">+</div>","null","","","","","","","","","","","","","","","","",""
"html-keyboard-response","209","958926","0.0-5.0-3.2-1.2-1.36","6981150699107501d80e74b6","not_provided","desktop","1","1","0","","","","","","working_memory","","null","<img class='upper3' src=images/squares/orange.png><div class=""fixation"">+</div>","null","","","memory","practice","36","1","","","","","","","","","","",""
"html-keyboard-response","210","959828","0.0-5.0-3.2-1.2-2.36","6981150699107501d80e74b6","not_provided","desktop","1","1","0","","","","","","working_memory","","null","<div class=""fixation"">+</div>","null","","","","","","","","","","","","","","","","",""
"html-keyboard-response","211","960839","0.0-5.0-3.2-1.2-3.36","6981150699107501d80e74b6","not_provided","desktop","1","1","0","","","","","","working_memory","","1010","<img class='upper3' src=images/squares/orange.png><div class=""fixation"">+</div>","s","","","test","practice","36","1","s","true","","","","","","","","",""
"html-keyboard-response","212","961340","0.0-5.0-3.2-1.2-4.36","6981150699107501d80e74b6","not_provided","desktop","1","1","0","","","","","","working_memory","","null","<div class=""fixation"">Correct</div>","null","","","","","","","","","","","","","","","","",""
"html-keyboard-response","213","962341","0.0-5.0-3.2-1.2-0.37","6981150699107501d80e74b6","not_provided","desktop","1","1","0","","","","","","working_memory","","null","<div class=""fixation"">+</div>","null","","","","","","","","","","","","","","","","",""
"html-keyboard-response","214","962543","0.0-5.0-3.2-1.2-1.37","6981150699107501d80e74b6","not_provided","desktop","1","1","0","","","","","","working_memory","","null","<img class='lower1' src=images/squares/blue.png><div class=""fixation"">+</div>","null","","","memory","practice","37","1","","","","","","","","","","",""
"html-keyboard-response","215","963444","0.0-5.0-3.2-1.2-2.37","6981150699107501d80e74b6","not_provided","desktop","1","1","0","","","","","","working_memory","","null","<div class=""fixation"">+</div>","null","","","","","","","","","","","","","","","","",""
"html-keyboard-response","216","964630","0.0-5.0-3.2-1.2-3.37","6981150699107501d80e74b6","not_provided","desktop","1","1","0","","","","","","working_memory","","1185","<img class='lower1' src=images/squares/black.png><div class=""fixation"">+</div>","k","","","test","practice","37","1","k","true","","","","","","","","",""
"html-keyboard-response","217","965132","0.0-5.0-3.2-1.2-4.37","6981150699107501d80e74b6","not_provided","desktop","1","1","0","","","","","","working_memory","","null","<div class=""fixation"">Correct</div>","null","","","","","","","","","","","","","","","","",""
"html-keyboard-response","218","966133","0.0-5.0-3.2-1.2-0.38","6981150699107501d80e74b6","not_provided","desktop","1","1","0","","","","","","working_memory","","null","<div class=""fixation"">+</div>","null","","","","","","","","","","","","","","","","",""
"html-keyboard-response","219","966335","0.0-5.0-3.2-1.2-1.38","6981150699107501d80e74b6","not_provided","desktop","1","1","0","","","","","","working_memory","","null","<img class='a' src=images/squares/blue.png><img class='e' src=images/squares/magenta.png><img class='g' src=images/squares/yellow.png><img class='j' src=images/squares/brown.png><div class=""fixation"">+</div>","null","","","memory","practice","38","4","","","","","","","","","","",""
"html-keyboard-response","220","967236","0.0-5.0-3.2-1.2-2.38","6981150699107501d80e74b6","not_provided","desktop","1","1","0","","","","","","working_memory","","null","<div class=""fixation"">+</div>","null","","","","","","","","","","","","","","","","",""
"html-keyboard-response","221","968430","0.0-5.0-3.2-1.2-3.38","6981150699107501d80e74b6","not_provided","desktop","1","1","0","","","","","","working_memory","","1193","<img class='g' src=images/squares/yellow.png><div class=""fixation"">+</div>","s","","","test","practice","38","4","s","true","","","","","","","","",""
"html-keyboard-response","222","968931","0.0-5.0-3.2-1.2-4.38","6981150699107501d80e74b6","not_provided","desktop","1","1","0","","","","","","working_memory","","null","<div class=""fixation"">Correct</div>","null","","","","","","","","","","","","","","","","",""
"html-keyboard-response","223","969932","0.0-5.0-3.2-1.2-0.39","6981150699107501d80e74b6","not_provided","desktop","1","1","0","","","","","","working_memory","","null","<div class=""fixation"">+</div>","null","","","","","","","","","","","","","","","","",""
"html-keyboard-response","224","970135","0.0-5.0-3.2-1.2-1.39","6981150699107501d80e74b6","not_provided","desktop","1","1","0","","","","","","working_memory","","null","<img class='b' src=images/squares/red.png><img class='c' src=images/squares/blue.png><img class='e' src=images/squares/green.png><img class='d' src=images/squares/black.png><img class='g' src=images/squares/yellow.png><img class='h' src=images/squares/brown.png><img class='l' src=images/squares/orange.png><img class='j' src=images/squares/magenta.png><div class=""fixation"">+</div>","null","","","memory","practice","39","8","","","","","","","","","","",""
"html-keyboard-response","225","971036","0.0-5.0-3.2-1.2-2.39","6981150699107501d80e74b6","not_provided","desktop","1","1","0","","","","","","working_memory","","null","<div class=""fixation"">+</div>","null","","","","","","","","","","","","","","","","",""
"html-keyboard-response","226","972399","0.0-5.0-3.2-1.2-3.39","6981150699107501d80e74b6","not_provided","desktop","1","1","0","","","","","","working_memory","","1361","<img class='j' src=images/squares/magenta.png><div class=""fixation"">+</div>","k","","","test","practice","39","8","s","false","","","","","","","","",""
"html-keyboard-response","227","972900","0.0-5.0-3.2-1.2-4.39","6981150699107501d80e74b6","not_provided","desktop","1","1","0","","","","","","working_memory","","null","<div class=""fixation"">Incorrect</div>","null","","","","","","","","","","","","","","","","",""
"html-keyboard-response","228","973902","0.0-5.0-3.2-1.2-0.40","6981150699107501d80e74b6","not_provided","desktop","1","1","0","","","","","","working_memory","","null","<div class=""fixation"">+</div>","null","","","","","","","","","","","","","","","","",""
"html-keyboard-response","229","974104","0.0-5.0-3.2-1.2-1.40","6981150699107501d80e74b6","not_provided","desktop","1","1","0","","","","","","working_memory","","null","<img class='c' src=images/squares/magenta.png><img class='f' src=images/squares/blue.png><img class='g' src=images/squares/orange.png><img class='l' src=images/squares/brown.png><div class=""fixation"">+</div>","null","","","memory","practice","40","4","","","","","","","","","","",""
"html-keyboard-response","230","975005","0.0-5.0-3.2-1.2-2.40","6981150699107501d80e74b6","not_provided","desktop","1","1","0","","","","","","working_memory","","null","<div class=""fixation"">+</div>","null","","","","","","","","","","","","","","","","",""
"html-keyboard-response","231","976567","0.0-5.0-3.2-1.2-3.40","6981150699107501d80e74b6","not_provided","desktop","1","1","0","","","","","","working_memory","","1560","<img class='f' src=images/squares/blue.png><div class=""fixation"">+</div>","s","","","test","practice","40","4","s","true","","","","","","","","",""
"html-keyboard-response","232","977068","0.0-5.0-3.2-1.2-4.40","6981150699107501d80e74b6","not_provided","desktop","1","1","0","","","","","","working_memory","","null","<div class=""fixation"">Correct</div>","null","","","","","","","","","","","","","","","","",""
"html-keyboard-response","233","978069","0.0-5.0-3.2-1.2-0.41","6981150699107501d80e74b6","not_provided","desktop","1","1","0","","","","","","working_memory","","null","<div class=""fixation"">+</div>","null","","","","","","","","","","","","","","","","",""
"html-keyboard-response","234","978271","0.0-5.0-3.2-1.2-1.41","6981150699107501d80e74b6","not_provided","desktop","1","1","0","","","","","","working_memory","","null","<img class='lower2' src=images/squares/yellow.png><div class=""fixation"">+</div>","null","","","memory","practice","41","1","","","","","","","","","","",""
"html-keyboard-response","235","979172","0.0-5.0-3.2-1.2-2.41","6981150699107501d80e74b6","not_provided","desktop","1","1","0","","","","","","working_memory","","null","<div class=""fixation"">+</div>","null","","","","","","","","","","","","","","","","",""
"html-keyboard-response","236","980279","0.0-5.0-3.2-1.2-3.41","6981150699107501d80e74b6","not_provided","desktop","1","1","0","","","","","","working_memory","","1106","<img class='lower2' src=images/squares/blue.png><div class=""fixation"">+</div>","k","","","test","practice","41","1","k","true","","","","","","","","",""
"html-keyboard-response","237","980780","0.0-5.0-3.2-1.2-4.41","6981150699107501d80e74b6","not_provided","desktop","1","1","0","","","","","","working_memory","","null","<div class=""fixation"">Correct</div>","null","","","","","","","","","","","","","","","","",""
"html-keyboard-response","238","981781","0.0-5.0-3.2-1.2-0.42","6981150699107501d80e74b6","not_provided","desktop","1","1","0","","","","","","working_memory","","null","<div class=""fixation"">+</div>","null","","","","","","","","","","","","","","","","",""
"html-keyboard-response","239","981983","0.0-5.0-3.2-1.2-1.42","6981150699107501d80e74b6","not_provided","desktop","1","1","0","","","","","","working_memory","","null","<img class='upper1' src=images/squares/red.png><div class=""fixation"">+</div>","null","","","memory","practice","42","1","","","","","","","","","","",""
"html-keyboard-response","240","982884","0.0-5.0-3.2-1.2-2.42","6981150699107501d80e74b6","not_provided","desktop","1","1","0","","","","","","working_memory","","null","<div class=""fixation"">+</div>","null","","","","","","","","","","","","","","","","",""
"html-keyboard-response","241","983839","0.0-5.0-3.2-1.2-3.42","6981150699107501d80e74b6","not_provided","desktop","1","1","0","","","","","","working_memory","","953","<img class='upper1' src=images/squares/red.png><div class=""fixation"">+</div>","s","","","test","practice","42","1","s","true","","","","","","","","",""
"html-keyboard-response","242","984340","0.0-5.0-3.2-1.2-4.42","6981150699107501d80e74b6","not_provided","desktop","1","1","0","","","","","","working_memory","","null","<div class=""fixation"">Correct</div>","null","","","","","","","","","","","","","","","","",""
"html-keyboard-response","243","985342","0.0-5.0-3.2-1.2-0.43","6981150699107501d80e74b6","not_provided","desktop","1","1","0","","","","","","working_memory","","null","<div class=""fixation"">+</div>","null","","","","","","","","","","","","","","","","",""
"html-keyboard-response","244","985544","0.0-5.0-3.2-1.2-1.43","6981150699107501d80e74b6","not_provided","desktop","1","1","0","","","","","","working_memory","","null","<img class='a' src=images/squares/black.png><img class='f' src=images/squares/green.png><img class='h' src=images/squares/orange.png><img class='l' src=images/squares/blue.png><div class=""fixation"">+</div>","null","","","memory","practice","43","4","","","","","","","","","","",""
"html-keyboard-response","245","986445","0.0-5.0-3.2-1.2-2.43","6981150699107501d80e74b6","not_provided","desktop","1","1","0","","","","","","working_memory","","null","<div class=""fixation"">+</div>","null","","","","","","","","","","","","","","","","",""
"html-keyboard-response","246","987470","0.0-5.0-3.2-1.2-3.43","6981150699107501d80e74b6","not_provided","desktop","1","1","0","","","","","","working_memory","","1024","<img class='f' src=images/squares/green.png><div class=""fixation"">+</div>","s","","","test","practice","43","4","s","true","","","","","","","","",""
"html-keyboard-response","247","987972","0.0-5.0-3.2-1.2-4.43","6981150699107501d80e74b6","not_provided","desktop","1","1","0","","","","","","working_memory","","null","<div class=""fixation"">Correct</div>","null","","","","","","","","","","","","","","","","",""
"html-keyboard-response","248","988973","0.0-5.0-3.2-1.2-0.44","6981150699107501d80e74b6","not_provided","desktop","1","1","0","","","","","","working_memory","","null","<div class=""fixation"">+</div>","null","","","","","","","","","","","","","","","","",""
"html-keyboard-response","249","989176","0.0-5.0-3.2-1.2-1.44","6981150699107501d80e74b6","not_provided","desktop","1","1","0","","","","","","working_memory","","null","<img class='a' src=images/squares/cyan.png><img class='f' src=images/squares/red.png><img class='i' src=images/squares/green.png><img class='k' src=images/squares/blue.png><div class=""fixation"">+</div>","null","","","memory","practice","44","4","","","","","","","","","","",""
"html-keyboard-response","250","990077","0.0-5.0-3.2-1.2-2.44","6981150699107501d80e74b6","not_provided","desktop","1","1","0","","","","","","working_memory","","null","<div class=""fixation"">+</div>","null","","","","","","","","","","","","","","","","",""
"html-keyboard-response","251","991079","0.0-5.0-3.2-1.2-3.44","6981150699107501d80e74b6","not_provided","desktop","1","1","0","","","","","","working_memory","","1000","<img class='k' src=images/squares/blue.png><div class=""fixation"">+</div>","s","","","test","practice","44","4","s","true","","","","","","","","",""
"html-keyboard-response","252","991580","0.0-5.0-3.2-1.2-4.44","6981150699107501d80e74b6","not_provided","desktop","1","1","0","","","","","","working_memory","","null","<div class=""fixation"">Correct</div>","null","","","","","","","","","","","","","","","","",""
"html-keyboard-response","253","1018896","0.0-5.0-4.0","6981150699107501d80e74b6","not_provided","desktop","1","1","0","","","","","","working_memory","","27314","<div style=""text-align:center;font-family:sans-serif;""><p>Good job! You have finished the practice.</p><p>We will now start the real experiment.</p><p>Please try to be as accurate as possible.</p><p><b><u>Note: random guessing may risk your payment.</u></b></p><br><p><b>Press any key to begin.</b></p></div>","s","","","","","","","","","","","","","","","","",""
"html-keyboard-response","254","1019897","0.0-5.0-5.0-0.0","6981150699107501d80e74b6","not_provided","desktop","1","1","0","","","","","","working_memory","","null","<div class=""fixation"">+</div>","null","","","","","","","","","","","","","","","","",""
"html-keyboard-response","255","1020099","0.0-5.0-5.0-1.0","6981150699107501d80e74b6","not_provided","desktop","1","1","0","","","","","","working_memory","","null","<img class='c' src=images/squares/brown.png><img class='f' src=images/squares/yellow.png><img class='g' src=images/squares/magenta.png><img class='j' src=images/squares/cyan.png><div class=""fixation"">+</div>","null","","","memory","exp","0","","","","","","","","","","","",""
"html-keyboard-response","256","1021001","0.0-5.0-5.0-2.0","6981150699107501d80e74b6","not_provided","desktop","1","1","0","","","","","","working_memory","","null","<div class=""fixation"">+</div>","null","","","","","","","","","","","","","","","","",""
"html-keyboard-response","257","1024255","0.0-5.0-5.0-3.0","6981150699107501d80e74b6","not_provided","desktop","1","1","0","","","","","","working_memory","","3252","<img class='c' src=images/squares/brown.png><div class=""fixation"">+</div>","k","","","test_squares","exp","0","4","s","false","sk","s","","","","","","",""
"html-keyboard-response","258","1024756","0.0-5.0-5.0-4.0","6981150699107501d80e74b6","not_provided","desktop","1","1","0","","","","","","working_memory","","null","<div class=""fixation"">Incorrect</div>","null","","","","","","","","","","","","","","","","",""
"html-keyboard-response","259","1025758","0.0-5.0-5.0-0.1","6981150699107501d80e74b6","not_provided","desktop","1","1","0","","","","","","working_memory","","null","<div class=""fixation"">+</div>","null","","","","","","","","","","","","","","","","",""
"html-keyboard-response","260","1025960","0.0-5.0-5.0-1.1","6981150699107501d80e74b6","not_provided","desktop","1","1","0","","","","","","working_memory","","null","<img class='c' src=images/squares/black.png><img class='a' src=images/squares/cyan.png><img class='e' src=images/squares/orange.png><img class='d' src=images/squares/blue.png><img class='h' src=images/squares/magenta.png><img class='g' src=images/squares/green.png><img class='l' src=images/squares/yellow.png><img class='j' src=images/squares/red.png><div class=""fixation"">+</div>","null","","","memory","exp","1","","","","","","","","","","","",""
"html-keyboard-response","261","1026862","0.0-5.0-5.0-2.1","6981150699107501d80e74b6","not_provided","desktop","1","1","0","","","","","","working_memory","","null","<div class=""fixation"">+</div>","null","","","","","","","","","","","","","","","","",""
"html-keyboard-response","262","1028439","0.0-5.0-5.0-3.1","6981150699107501d80e74b6","not_provided","desktop","1","1","0","","","","","","working_memory","","1576","<img class='h' src=images/squares/brown.png><div class=""fixation"">+</div>","s","","","test_squares","exp","1","8","k","false","sk","d","","","","","","",""
"html-keyboard-response","263","1028941","0.0-5.0-5.0-4.1","6981150699107501d80e74b6","not_provided","desktop","1","1","0","","","","","","working_memory","","null","<div class=""fixation"">Incorrect</div>","null","","","","","","","","","","","","","","","","",""
"html-keyboard-response","264","1029942","0.0-5.0-5.0-0.2","6981150699107501d80e74b6","not_provided","desktop","1","1","0","","","","","","working_memory","","null","<div class=""fixation"">+</div>","null","","","","","","","","","","","","","","","","",""
"html-keyboard-response","265","1030145","0.0-5.0-5.0-1.2","6981150699107501d80e74b6","not_provided","desktop","1","1","0","","","","","","working_memory","","null","<img class='b' src=images/squares/green.png><img class='a' src=images/squares/black.png><img class='e' src=images/squares/red.png><img class='f' src=images/squares/blue.png><img class='i' src=images/squares/orange.png><img class='g' src=images/squares/yellow.png><img class='j' src=images/squares/cyan.png><img class='l' src=images/squares/brown.png><div class=""fixation"">+</div>","null","","","memory","exp","2","","","","","","","","","","","",""
"html-keyboard-response","266","1031046","0.0-5.0-5.0-2.2","6981150699107501d80e74b6","not_provided","desktop","1","1","0","","","","","","working_memory","","null","<div class=""fixation"">+</div>","null","","","","","","","","","","","","","","","","",""
"html-keyboard-response","267","1032952","0.0-5.0-5.0-3.2","6981150699107501d80e74b6","not_provided","desktop","1","1","0","","","","","","working_memory","","1904","<img class='a' src=images/squares/magenta.png><div class=""fixation"">+</div>","k","","","test_squares","exp","2","8","k","true","sk","d","","","","","","",""
"html-keyboard-response","268","1033453","0.0-5.0-5.0-4.2","6981150699107501d80e74b6","not_provided","desktop","1","1","0","","","","","","working_memory","","null","<div class=""fixation"">Correct</div>","null","","","","","","","","","","","","","","","","",""
"html-keyboard-response","269","1034454","0.0-5.0-5.0-0.3","6981150699107501d80e74b6","not_provided","desktop","1","1","0","","","","","","working_memory","","null","<div class=""fixation"">+</div>","null","","","","","","","","","","","","","","","","",""
"html-keyboard-response","270","1034657","0.0-5.0-5.0-1.3","6981150699107501d80e74b6","not_provided","desktop","1","1","0","","","","","","working_memory","","null","<img class='a' src=images/squares/green.png><img class='f' src=images/squares/yellow.png><img class='g' src=images/squares/cyan.png><img class='l' src=images/squares/blue.png><div class=""fixation"">+</div>","null","","","memory","exp","3","","","","","","","","","","","",""
"html-keyboard-response","271","1035558","0.0-5.0-5.0-2.3","6981150699107501d80e74b6","not_provided","desktop","1","1","0","","","","","","working_memory","","null","<div class=""fixation"">+</div>","null","","","","","","","","","","","","","","","","",""
"html-keyboard-response","272","1037176","0.0-5.0-5.0-3.3","6981150699107501d80e74b6","not_provided","desktop","1","1","0","","","","","","working_memory","","1616","<img class='f' src=images/squares/orange.png><div class=""fixation"">+</div>","s","","","test_squares","exp","3","4","k","false","sk","d","","","","","","",""
"html-keyboard-response","273","1037677","0.0-5.0-5.0-4.3","6981150699107501d80e74b6","not_provided","desktop","1","1","0","","","","","","working_memory","","null","<div class=""fixation"">Incorrect</div>","null","","","","","","","","","","","","","","","","",""
"html-keyboard-response","274","1038678","0.0-5.0-5.0-0.4","6981150699107501d80e74b6","not_provided","desktop","1","1","0","","","","","","working_memory","","null","<div class=""fixation"">+</div>","null","","","","","","","","","","","","","","","","",""
"html-keyboard-response","275","1038881","0.0-5.0-5.0-1.4","6981150699107501d80e74b6","not_provided","desktop","1","1","0","","","","","","working_memory","","null","<img class='a' src=images/squares/yellow.png><img class='c' src=images/squares/orange.png><img class='f' src=images/squares/magenta.png><img class='e' src=images/squares/green.png><img class='g' src=images/squares/black.png><img class='h' src=images/squares/brown.png><img class='l' src=images/squares/cyan.png><img class='j' src=images/squares/red.png><div class=""fixation"">+</div>","null","","","memory","exp","4","","","","","","","","","","","",""
"html-keyboard-response","276","1039783","0.0-5.0-5.0-2.4","6981150699107501d80e74b6","not_provided","desktop","1","1","0","","","","","","working_memory","","null","<div class=""fixation"">+</div>","null","","","","","","","","","","","","","","","","",""
"html-keyboard-response","277","1041655","0.0-5.0-5.0-3.4","6981150699107501d80e74b6","not_provided","desktop","1","1","0","","","","","","working_memory","","1871","<img class='f' src=images/squares/blue.png><div class=""fixation"">+</div>","k","","","test_squares","exp","4","8","k","true","sk","d","","","","","","",""
"html-keyboard-response","278","1042157","0.0-5.0-5.0-4.4","6981150699107501d80e74b6","not_provided","desktop","1","1","0","","","","","","working_memory","","null","<div class=""fixation"">Correct</div>","null","","","","","","","","","","","","","","","","",""
"html-keyboard-response","279","1043158","0.0-5.0-5.0-0.5","6981150699107501d80e74b6","not_provided","desktop","1","1","0","","","","","","working_memory","","null","<div class=""fixation"">+</div>","null","","","","","","","","","","","","","","","","",""
"html-keyboard-response","280","1043360","0.0-5.0-5.0-1.5","6981150699107501d80e74b6","not_provided","desktop","1","1","0","","","","","","working_memory","","null","<img class='b' src=images/squares/magenta.png><img class='a' src=images/squares/orange.png><img class='f' src=images/squares/black.png><img class='d' src=images/squares/blue.png><img class='h' src=images/squares/yellow.png><img class='g' src=images/squares/brown.png><img class='l' src=images/squares/green.png><img class='k' src=images/squares/cyan.png><div class=""fixation"">+</div>","null","","","memory","exp","5","","","","","","","","","","","",""
"html-keyboard-response","281","1044261","0.0-5.0-5.0-2.5","6981150699107501d80e74b6","not_provided","desktop","1","1","0","","","","","","working_memory","","null","<div class=""fixation"">+</div>","null","","","","","","","","","","","","","","","","",""
"html-keyboard-response","282","1045784","0.0-5.0-5.0-3.5","6981150699107501d80e74b6","not_provided","desktop","1","1","0","","","","","","working_memory","","1521","<img class='d' src=images/squares/blue.png><div class=""fixation"">+</div>","k","","","test_squares","exp","5","8","s","false","sk","s","","","","","","",""
"html-keyboard-response","283","1046285","0.0-5.0-5.0-4.5","6981150699107501d80e74b6","not_provided","desktop","1","1","0","","","","","","working_memory","","null","<div class=""fixation"">Incorrect</div>","null","","","","","","","","","","","","","","","","",""
"html-keyboard-response","284","1047287","0.0-5.0-5.0-0.6","6981150699107501d80e74b6","not_provided","desktop","1","1","0","","","","","","working_memory","","null","<div class=""fixation"">+</div>","null","","","","","","","","","","","","","","","","",""
"html-keyboard-response","285","1047489","0.0-5.0-5.0-1.6","6981150699107501d80e74b6","not_provided","desktop","1","1","0","","","","","","working_memory","","null","<img class='c' src=images/squares/green.png><img class='d' src=images/squares/red.png><img class='g' src=images/squares/magenta.png><img class='l' src=images/squares/black.png><div class=""fixation"">+</div>","null","","","memory","exp","6","","","","","","","","","","","",""
"html-keyboard-response","286","1048390","0.0-5.0-5.0-2.6","6981150699107501d80e74b6","not_provided","desktop","1","1","0","","","","","","working_memory","","null","<div class=""fixation"">+</div>","null","","","","","","","","","","","","","","","","",""
"html-keyboard-response","287","1050072","0.0-5.0-5.0-3.6","6981150699107501d80e74b6","not_provided","desktop","1","1","0","","","","","","working_memory","","1680","<img class='c' src=images/squares/brown.png><div class=""fixation"">+</div>","s","","","test_squares","exp","6","4","k","false","sk","d","","","","","","",""
"html-keyboard-response","288","1050573","0.0-5.0-5.0-4.6","6981150699107501d80e74b6","not_provided","desktop","1","1","0","","","","","","working_memory","","null","<div class=""fixation"">Incorrect</div>","null","","","","","","","","","","","","","","","","",""
"html-keyboard-response","289","1051574","0.0-5.0-5.0-0.7","6981150699107501d80e74b6","not_provided","desktop","1","1","0","","","","","","working_memory","","null","<div class=""fixation"">+</div>","null","","","","","","","","","","","","","","","","",""
"html-keyboard-response","290","1051776","0.0-5.0-5.0-1.7","6981150699107501d80e74b6","not_provided","desktop","1","1","0","","","","","","working_memory","","null","<img class='a' src=images/squares/cyan.png><img class='e' src=images/squares/orange.png><img class='i' src=images/squares/red.png><img class='l' src=images/squares/blue.png><div class=""fixation"">+</div>","null","","","memory","exp","7","","","","","","","","","","","",""
"html-keyboard-response","291","1052677","0.0-5.0-5.0-2.7","6981150699107501d80e74b6","not_provided","desktop","1","1","0","","","","","","working_memory","","null","<div class=""fixation"">+</div>","null","","","","","","","","","","","","","","","","",""
"html-keyboard-response","292","1054640","0.0-5.0-5.0-3.7","6981150699107501d80e74b6","not_provided","desktop","1","1","0","","","","","","working_memory","","1961","<img class='a' src=images/squares/brown.png><div class=""fixation"">+</div>","k","","","test_squares","exp","7","4","k","true","sk","d","","","","","","",""
"html-keyboard-response","293","1055141","0.0-5.0-5.0-4.7","6981150699107501d80e74b6","not_provided","desktop","1","1","0","","","","","","working_memory","","null","<div class=""fixation"">Correct</div>","null","","","","","","","","","","","","","","","","",""
"html-keyboard-response","294","1056143","0.0-5.0-5.0-0.8","6981150699107501d80e74b6","not_provided","desktop","1","1","0","","","","","","working_memory","","null","<div class=""fixation"">+</div>","null","","","","","","","","","","","","","","","","",""
"html-keyboard-response","295","1056345","0.0-5.0-5.0-1.8","6981150699107501d80e74b6","not_provided","desktop","1","1","0","","","","","","working_memory","","null","<img class='c' src=images/squares/green.png><img class='a' src=images/squares/yellow.png><img class='f' src=images/squares/blue.png><img class='d' src=images/squares/cyan.png><img class='h' src=images/squares/orange.png><img class='i' src=images/squares/black.png><img class='k' src=images/squares/magenta.png><img class='l' src=images/squares/brown.png><div class=""fixation"">+</div>","null","","","memory","exp","8","","","","","","","","","","","",""
"html-keyboard-response","296","1057246","0.0-5.0-5.0-2.8","6981150699107501d80e74b6","not_provided","desktop","1","1","0","","","","","","working_memory","","null","<div class=""fixation"">+</div>","null","","","","","","","","","","","","","","","","",""
"html-keyboard-response","297","1058608","0.0-5.0-5.0-3.8","6981150699107501d80e74b6","not_provided","desktop","1","1","0","","","","","","working_memory","","1360","<img class='a' src=images/squares/yellow.png><div class=""fixation"">+</div>","s","","","test_squares","exp","8","8","s","true","sk","s","","","","","","",""
