"trial_type","trial_index","time_elapsed","internal_node_id","subject_id","study_id","device_type","blur_count","fullscreen_exit_count","failed_attention_checks","success","timeout","failed_images","failed_audio","failed_video","phase","value","rt","stimulus","response","view_history","question_order","trial_name","block_type","trial_num","set_size","correct_response","accuracy","mapping","condition","prompt","flipped","attention","expected_answer","category","question_index","task"
"pavlovia","0","1402","0.0-0.0","69728435c9476fe76dd2ab2f","not_provided","desktop","0","0","1","","","","","","","","","","","","","","","","","","","","","","","","","","",""
"preload","1","1896","0.0-2.0","69728435c9476fe76dd2ab2f","not_provided","desktop","0","0","1","true","false","[]","[]","[]","","","","","","","","","","","","","","","","","","","","","",""
"html-keyboard-response","2","12202","0.0-3.0-0.0","69728435c9476fe76dd2ab2f","not_provided","desktop","0","0","1","","","","","","captcha","","","","","","","","","","","","","","","","","","","","",""
"fullscreen","3","18286","0.0-4.0","69728435c9476fe76dd2ab2f","not_provided","desktop","0","0","1","true","","","","","setup","","","","","","","","","","","","","","","","","","","","",""
"call-function","4","18286","0.0-5.0-0.0","69728435c9476fe76dd2ab2f","not_provided","desktop","0","0","1","","","","","","working_memory","","","","","","","","","","","","","","","","","","","","",""
"html-keyboard-response","5","34449","0.0-5.0-1.0","69728435c9476fe76dd2ab2f","not_provided","desktop","0","0","1","","","","","","working_memory","","16161","<div style=""text-align:center;font-family:sans-serif;""><p>Welcome to the luck game experiment!</p><p>This two-day experiment takes part in a study aimed at developing better clinical treatments.</p><p>We appreciate your participation and require your full concentration.</p><br><p>This is a two-day study. Payment (£6/hour) is only given upon completing both parts today and tomorrow.</p><p>You must finish the second part for compensation. After today, you'll receive an invitation for tomorrow's session.</p><p>Please ensure you can attend both sessions before proceeding. Otherwise, you may exit now.</p><p>If you have any questions, please contact us via prolific.</p><br><p>Please stay attentive and in fullscreen mode to ensure payment.</p><p>Thank you for participating!</p><br><p id=""continue-prompt"" style=""visibility:hidden;""><b>Press any key to continue.</b></p></div>"," ","","","","","","","","","","","","","","","","",""
"instructions","6","113775","0.0-5.0-2.0-0.0","69728435c9476fe76dd2ab2f","not_provided","desktop","0","0","1","","","","","","working_memory","","79325","","","[{""page_index"":0,""viewing_time"":2147},{""page_index"":1,""viewing_time"":1326},{""page_index"":2,""viewing_time"":9152},{""page_index"":3,""viewing_time"":18182},{""page_index"":4,""viewing_time"":8442},{""page_index"":5,""viewing_time"":10630},{""page_index"":6,""viewing_time"":14586},{""page_index"":7,""viewing_time"":10940},{""page_index"":8,""viewing_time"":3920}]","","","","","","","","","","","","","","","",""
"survey-multi-choice","7","138264","0.0-5.0-2.0-1.0","69728435c9476fe76dd2ab2f","not_provided","desktop","0","0","1","","","","","","working_memory","","24487","","{""set_size"":""4 or 8"",""steps"":""True"",""choose_square"":""Press the 's' or 'k' key."",""remember"":""The colors and locations of the 'memory' squares"",""task"":""To tell if the 'test' square is in the same color as the square previously appearing in this location""}","","[0,1,2,3,4]","test_squares_quiz","","","","","","","","","","","","","",""
"html-keyboard-response","8","145184","0.0-5.0-3.0-0.0","69728435c9476fe76dd2ab2f","not_provided","desktop","0","0","1","","","","","","working_memory","","6918","<p>We will now start some practice trials.<br><b>The practice trials will also include some trials in which you will need to remember only one square to make sure you understood the instructions.</b><br>You may already want to be ready with your fingers on '<b>s</b>' and '<b>k</b>'.<br><img class=""wm-example-img"" src=""images/examples/keyboard.png""><br><b style=""font-size:1.2em;"">&lsquo;S&rsquo; = SAME &nbsp;&nbsp;&nbsp; &lsquo;K&rsquo; = DIFFERENT</b><br><br><u>Please try to be as accurate as possible.</u><br><br><b>Press any key to begin</b></p>"," ","","","","","","","","","","","","","","","","",""
"html-keyboard-response","9","147204","0.0-5.0-3.0-1.0-0.0","69728435c9476fe76dd2ab2f","not_provided","desktop","0","0","1","","","","","","working_memory","","null","<div class=""fixation"">+</div>","null","","","","","","","","","","","","","","","","",""
"html-keyboard-response","10","147408","0.0-5.0-3.0-1.0-1.0","69728435c9476fe76dd2ab2f","not_provided","desktop","0","0","1","","","","","","working_memory","","null","<img class='lower3' src=images/squares/cyan.png><div class=""fixation"">+</div>","null","","","memory","practice","0","1","","","","","","","","","","",""
"html-keyboard-response","11","148310","0.0-5.0-3.0-1.0-2.0","69728435c9476fe76dd2ab2f","not_provided","desktop","0","0","1","","","","","","working_memory","","null","<div class=""fixation"">+</div>","null","","","","","","","","","","","","","","","","",""
"html-keyboard-response","12","154315","0.0-5.0-3.0-1.0-3.0","69728435c9476fe76dd2ab2f","not_provided","desktop","0","0","1","","","","","","working_memory","","null","<img class='lower3' src=images/squares/yellow.png><div class=""fixation"">+</div>","null","","","test","practice","0","1","k","null","","","","","","","","",""
"html-keyboard-response","13","154817","0.0-5.0-3.0-1.0-4.0","69728435c9476fe76dd2ab2f","not_provided","desktop","0","0","1","","","","","","working_memory","","null","<div class=""fixation"">Please respond faster</div>","null","","","","","","","","","","","","","","","","",""
"html-keyboard-response","14","155820","0.0-5.0-3.0-1.0-0.1","69728435c9476fe76dd2ab2f","not_provided","desktop","0","0","1","","","","","","working_memory","","null","<div class=""fixation"">+</div>","null","","","","","","","","","","","","","","","","",""
"html-keyboard-response","15","156023","0.0-5.0-3.0-1.0-1.1","69728435c9476fe76dd2ab2f","not_provided","desktop","0","0","1","","","","","","working_memory","","null","<img class='a' src=images/squares/red.png><img class='b' src=images/squares/green.png><img class='e' src=images/squares/yellow.png><img class='f' src=images/squares/magenta.png><img class='i' src=images/squares/orange.png><img class='g' src=images/squares/cyan.png><img class='j' src=images/squares/blue.png><img class='l' src=images/squares/black.png><div class=""fixation"">+</div>","null","","","memory","practice","1","8","","","","","","","","","","",""
"html-keyboard-response","16","156928","0.0-5.0-3.0-1.0-2.1","69728435c9476fe76dd2ab2f","not_provided","desktop","0","0","1","","","","","","working_memory","","null","<div class=""fixation"">+</div>","null","","","","","","","","","","","","","","","","",""
"html-keyboard-response","17","158159","0.0-5.0-3.0-1.0-3.1","69728435c9476fe76dd2ab2f","not_provided","desktop","0","0","1","","","","","","working_memory","","1231","<img class='e' src=images/squares/yellow.png><div class=""fixation"">+</div>","s","","","test","practice","1","8","s","true","","","","","","","","",""
"html-keyboard-response","18","158661","0.0-5.0-3.0-1.0-4.1","69728435c9476fe76dd2ab2f","not_provided","desktop","0","0","1","","","","","","working_memory","","null","<div class=""fixation"">Correct</div>","null","","","","","","","","","","","","","","","","",""
"html-keyboard-response","19","159665","0.0-5.0-3.0-1.0-0.2","69728435c9476fe76dd2ab2f","not_provided","desktop","0","0","1","","","","","","working_memory","","null","<div class=""fixation"">+</div>","null","","","","","","","","","","","","","","","","",""
"html-keyboard-response","20","159869","0.0-5.0-3.0-1.0-1.2","69728435c9476fe76dd2ab2f","not_provided","desktop","0","0","1","","","","","","working_memory","","null","<img class='a' src=images/squares/green.png><img class='c' src=images/squares/magenta.png><img class='d' src=images/squares/red.png><img class='e' src=images/squares/orange.png><img class='h' src=images/squares/brown.png><img class='g' src=images/squares/yellow.png><img class='k' src=images/squares/black.png><img class='j' src=images/squares/blue.png><div class=""fixation"">+</div>","null","","","memory","practice","2","8","","","","","","","","","","",""
"html-keyboard-response","21","160775","0.0-5.0-3.0-1.0-2.2","69728435c9476fe76dd2ab2f","not_provided","desktop","0","0","1","","","","","","working_memory","","null","<div class=""fixation"">+</div>","null","","","","","","","","","","","","","","","","",""
"html-keyboard-response","22","161759","0.0-5.0-3.0-1.0-3.2","69728435c9476fe76dd2ab2f","not_provided","desktop","0","0","1","","","","","","working_memory","","982","<img class='e' src=images/squares/orange.png><div class=""fixation"">+</div>","k","","","test","practice","2","8","s","false","","","","","","","","",""
"html-keyboard-response","23","162274","0.0-5.0-3.0-1.0-4.2","69728435c9476fe76dd2ab2f","not_provided","desktop","0","0","1","","","","","","working_memory","","null","<div class=""fixation"">Incorrect</div>","null","","","","","","","","","","","","","","","","",""
"html-keyboard-response","24","163289","0.0-5.0-3.0-1.0-0.3","69728435c9476fe76dd2ab2f","not_provided","desktop","0","0","1","","","","","","working_memory","","null","<div class=""fixation"">+</div>","null","","","","","","","","","","","","","","","","",""
"html-keyboard-response","25","163492","0.0-5.0-3.0-1.0-1.3","69728435c9476fe76dd2ab2f","not_provided","desktop","0","0","1","","","","","","working_memory","","null","<img class='a' src=images/squares/red.png><img class='c' src=images/squares/blue.png><img class='f' src=images/squares/orange.png><img class='e' src=images/squares/green.png><img class='i' src=images/squares/magenta.png><img class='h' src=images/squares/brown.png><img class='k' src=images/squares/yellow.png><img class='l' src=images/squares/black.png><div class=""fixation"">+</div>","null","","","memory","practice","3","8","","","","","","","","","","",""
"html-keyboard-response","26","164400","0.0-5.0-3.0-1.0-2.3","69728435c9476fe76dd2ab2f","not_provided","desktop","0","0","1","","","","","","working_memory","","null","<div class=""fixation"">+</div>","null","","","","","","","","","","","","","","","","",""
"html-keyboard-response","27","165431","0.0-5.0-3.0-1.0-3.3","69728435c9476fe76dd2ab2f","not_provided","desktop","0","0","1","","","","","","working_memory","","1030","<img class='a' src=images/squares/red.png><div class=""fixation"">+</div>","s","","","test","practice","3","8","s","true","","","","","","","","",""
"html-keyboard-response","28","165932","0.0-5.0-3.0-1.0-4.3","69728435c9476fe76dd2ab2f","not_provided","desktop","0","0","1","","","","","","working_memory","","null","<div class=""fixation"">Correct</div>","null","","","","","","","","","","","","","","","","",""
"html-keyboard-response","29","166945","0.0-5.0-3.0-1.0-0.4","69728435c9476fe76dd2ab2f","not_provided","desktop","0","0","1","","","","","","working_memory","","null","<div class=""fixation"">+</div>","null","","","","","","","","","","","","","","","","",""
"html-keyboard-response","30","167151","0.0-5.0-3.0-1.0-1.4","69728435c9476fe76dd2ab2f","not_provided","desktop","0","0","1","","","","","","working_memory","","null","<img class='b' src=images/squares/orange.png><img class='c' src=images/squares/red.png><img class='f' src=images/squares/magenta.png><img class='d' src=images/squares/black.png><img class='h' src=images/squares/brown.png><img class='i' src=images/squares/yellow.png><img class='l' src=images/squares/green.png><img class='j' src=images/squares/blue.png><div class=""fixation"">+</div>","null","","","memory","practice","4","8","","","","","","","","","","",""
"html-keyboard-response","31","168052","0.0-5.0-3.0-1.0-2.4","69728435c9476fe76dd2ab2f","not_provided","desktop","0","0","1","","","","","","working_memory","","null","<div class=""fixation"">+</div>","null","","","","","","","","","","","","","","","","",""
"html-keyboard-response","32","168885","0.0-5.0-3.0-1.0-3.4","69728435c9476fe76dd2ab2f","not_provided","desktop","0","0","1","","","","","","working_memory","","832","<img class='d' src=images/squares/black.png><div class=""fixation"">+</div>","k","","","test","practice","4","8","s","false","","","","","","","","",""
"html-keyboard-response","33","169401","0.0-5.0-3.0-1.0-4.4","69728435c9476fe76dd2ab2f","not_provided","desktop","0","0","1","","","","","","working_memory","","null","<div class=""fixation"">Incorrect</div>","null","","","","","","","","","","","","","","","","",""
"html-keyboard-response","34","170402","0.0-5.0-3.0-1.0-0.5","69728435c9476fe76dd2ab2f","not_provided","desktop","0","0","1","","","","","","working_memory","","null","<div class=""fixation"">+</div>","null","","","","","","","","","","","","","","","","",""
"html-keyboard-response","35","170607","0.0-5.0-3.0-1.0-1.5","69728435c9476fe76dd2ab2f","not_provided","desktop","0","0","1","","","","","","working_memory","","null","<img class='c' src=images/squares/orange.png><img class='a' src=images/squares/green.png><img class='e' src=images/squares/red.png><img class='f' src=images/squares/magenta.png><img class='g' src=images/squares/blue.png><img class='i' src=images/squares/cyan.png><img class='l' src=images/squares/yellow.png><img class='k' src=images/squares/black.png><div class=""fixation"">+</div>","null","","","memory","practice","5","8","","","","","","","","","","",""
"html-keyboard-response","36","171508","0.0-5.0-3.0-1.0-2.5","69728435c9476fe76dd2ab2f","not_provided","desktop","0","0","1","","","","","","working_memory","","null","<div class=""fixation"">+</div>","null","","","","","","","","","","","","","","","","",""
"html-keyboard-response","37","173591","0.0-5.0-3.0-1.0-3.5","69728435c9476fe76dd2ab2f","not_provided","desktop","0","0","1","","","","","","working_memory","","2081","<img class='f' src=images/squares/brown.png><div class=""fixation"">+</div>","s","","","test","practice","5","8","k","false","","","","","","","","",""
"html-keyboard-response","38","174094","0.0-5.0-3.0-1.0-4.5","69728435c9476fe76dd2ab2f","not_provided","desktop","0","0","1","","","","","","working_memory","","null","<div class=""fixation"">Incorrect</div>","null","","","","","","","","","","","","","","","","",""
"html-keyboard-response","39","175100","0.0-5.0-3.0-1.0-0.6","69728435c9476fe76dd2ab2f","not_provided","desktop","0","0","1","","","","","","working_memory","","null","<div class=""fixation"">+</div>","null","","","","","","","","","","","","","","","","",""
"html-keyboard-response","40","175303","0.0-5.0-3.0-1.0-1.6","69728435c9476fe76dd2ab2f","not_provided","desktop","0","0","1","","","","","","working_memory","","null","<img class='b' src=images/squares/black.png><img class='c' src=images/squares/cyan.png><img class='e' src=images/squares/green.png><img class='d' src=images/squares/orange.png><img class='i' src=images/squares/yellow.png><img class='g' src=images/squares/red.png><img class='l' src=images/squares/brown.png><img class='j' src=images/squares/magenta.png><div class=""fixation"">+</div>","null","","","memory","practice","6","8","","","","","","","","","","",""
"html-keyboard-response","41","176213","0.0-5.0-3.0-1.0-2.6","69728435c9476fe76dd2ab2f","not_provided","desktop","0","0","1","","","","","","working_memory","","null","<div class=""fixation"">+</div>","null","","","","","","","","","","","","","","","","",""
"html-keyboard-response","42","177015","0.0-5.0-3.0-1.0-3.6","69728435c9476fe76dd2ab2f","not_provided","desktop","0","0","1","","","","","","working_memory","","801","<img class='j' src=images/squares/magenta.png><div class=""fixation"">+</div>","k","","","test","practice","6","8","s","false","","","","","","","","",""
"html-keyboard-response","43","177524","0.0-5.0-3.0-1.0-4.6","69728435c9476fe76dd2ab2f","not_provided","desktop","0","0","1","","","","","","working_memory","","null","<div class=""fixation"">Incorrect</div>","null","","","","","","","","","","","","","","","","",""
"html-keyboard-response","44","178538","0.0-5.0-3.0-1.0-0.7","69728435c9476fe76dd2ab2f","not_provided","desktop","0","0","1","","","","","","working_memory","","null","<div class=""fixation"">+</div>","null","","","","","","","","","","","","","","","","",""
"html-keyboard-response","45","178740","0.0-5.0-3.0-1.0-1.7","69728435c9476fe76dd2ab2f","not_provided","desktop","0","0","1","","","","","","working_memory","","null","<img class='b' src=images/squares/yellow.png><img class='c' src=images/squares/black.png><img class='f' src=images/squares/red.png><img class='e' src=images/squares/green.png><img class='h' src=images/squares/brown.png><img class='i' src=images/squares/blue.png><img class='k' src=images/squares/orange.png><img class='l' src=images/squares/magenta.png><div class=""fixation"">+</div>","null","","","memory","practice","7","8","","","","","","","","","","",""
"html-keyboard-response","46","179645","0.0-5.0-3.0-1.0-2.7","69728435c9476fe76dd2ab2f","not_provided","desktop","0","0","1","","","","","","working_memory","","null","<div class=""fixation"">+</div>","null","","","","","","","","","","","","","","","","",""
"html-keyboard-response","47","180328","0.0-5.0-3.0-1.0-3.7","69728435c9476fe76dd2ab2f","not_provided","desktop","0","0","1","","","","","","working_memory","","681","<img class='l' src=images/squares/cyan.png><div class=""fixation"">+</div>","s","","","test","practice","7","8","k","false","","","","","","","","",""
"html-keyboard-response","48","180837","0.0-5.0-3.0-1.0-4.7","69728435c9476fe76dd2ab2f","not_provided","desktop","0","0","1","","","","","","working_memory","","null","<div class=""fixation"">Incorrect</div>","null","","","","","","","","","","","","","","","","",""
"html-keyboard-response","49","181850","0.0-5.0-3.0-1.0-0.8","69728435c9476fe76dd2ab2f","not_provided","desktop","0","0","1","","","","","","working_memory","","null","<div class=""fixation"">+</div>","null","","","","","","","","","","","","","","","","",""
"html-keyboard-response","50","182052","0.0-5.0-3.0-1.0-1.8","69728435c9476fe76dd2ab2f","not_provided","desktop","0","0","1","","","","","","working_memory","","null","<img class='a' src=images/squares/red.png><img class='d' src=images/squares/green.png><img class='h' src=images/squares/cyan.png><img class='j' src=images/squares/orange.png><div class=""fixation"">+</div>","null","","","memory","practice","8","4","","","","","","","","","","",""
"html-keyboard-response","51","182959","0.0-5.0-3.0-1.0-2.8","69728435c9476fe76dd2ab2f","not_provided","desktop","0","0","1","","","","","","working_memory","","null","<div class=""fixation"">+</div>","null","","","","","","","","","","","","","","","","",""
"html-keyboard-response","52","183599","0.0-5.0-3.0-1.0-3.8","69728435c9476fe76dd2ab2f","not_provided","desktop","0","0","1","","","","","","working_memory","","639","<img class='a' src=images/squares/magenta.png><div class=""fixation"">+</div>","k","","","test","practice","8","4","k","true","","","","","","","","",""
"html-keyboard-response","53","184114","0.0-5.0-3.0-1.0-4.8","69728435c9476fe76dd2ab2f","not_provided","desktop","0","0","1","","","","","","working_memory","","null","<div class=""fixation"">Correct</div>","null","","","","","","","","","","","","","","","","",""
"html-keyboard-response","54","185119","0.0-5.0-3.0-1.0-0.9","69728435c9476fe76dd2ab2f","not_provided","desktop","0","0","1","","","","","","working_memory","","null","<div class=""fixation"">+</div>","null","","","","","","","","","","","","","","","","",""
"html-keyboard-response","55","185323","0.0-5.0-3.0-1.0-1.9","69728435c9476fe76dd2ab2f","not_provided","desktop","0","0","1","","","","","","working_memory","","null","<img class='upper1' src=images/squares/green.png><div class=""fixation"">+</div>","null","","","memory","practice","9","1","","","","","","","","","","",""
"html-keyboard-response","56","186230","0.0-5.0-3.0-1.0-2.9","69728435c9476fe76dd2ab2f","not_provided","desktop","0","0","1","","","","","","working_memory","","null","<div class=""fixation"">+</div>","null","","","","","","","","","","","","","","","","",""
"html-keyboard-response","57","187125","0.0-5.0-3.0-1.0-3.9","69728435c9476fe76dd2ab2f","not_provided","desktop","0","0","1","","","","","","working_memory","","894","<img class='upper1' src=images/squares/green.png><div class=""fixation"">+</div>","s","","","test","practice","9","1","s","true","","","","","","","","",""
"html-keyboard-response","58","187634","0.0-5.0-3.0-1.0-4.9","69728435c9476fe76dd2ab2f","not_provided","desktop","0","0","1","","","","","","working_memory","","null","<div class=""fixation"">Correct</div>","null","","","","","","","","","","","","","","","","",""
"html-keyboard-response","59","188646","0.0-5.0-3.0-1.0-0.10","69728435c9476fe76dd2ab2f","not_provided","desktop","0","0","1","","","","","","working_memory","","null","<div class=""fixation"">+</div>","null","","","","","","","","","","","","","","","","",""
"html-keyboard-response","60","188850","0.0-5.0-3.0-1.0-1.10","69728435c9476fe76dd2ab2f","not_provided","desktop","0","0","1","","","","","","working_memory","","null","<img class='a' src=images/squares/orange.png><img class='b' src=images/squares/magenta.png><img class='d' src=images/squares/blue.png><img class='f' src=images/squares/yellow.png><img class='h' src=images/squares/green.png><img class='g' src=images/squares/red.png><img class='l' src=images/squares/brown.png><img class='k' src=images/squares/cyan.png><div class=""fixation"">+</div>","null","","","memory","practice","10","8","","","","","","","","","","",""
"html-keyboard-response","61","189757","0.0-5.0-3.0-1.0-2.10","69728435c9476fe76dd2ab2f","not_provided","desktop","0","0","1","","","","","","working_memory","","null","<div class=""fixation"">+</div>","null","","","","","","","","","","","","","","","","",""
"html-keyboard-response","62","191223","0.0-5.0-3.0-1.0-3.10","69728435c9476fe76dd2ab2f","not_provided","desktop","0","0","1","","","","","","working_memory","","1465","<img class='b' src=images/squares/black.png><div class=""fixation"">+</div>","s","","","test","practice","10","8","k","false","","","","","","","","",""
"html-keyboard-response","63","191728","0.0-5.0-3.0-1.0-4.10","69728435c9476fe76dd2ab2f","not_provided","desktop","0","0","1","","","","","","working_memory","","null","<div class=""fixation"">Incorrect</div>","null","","","","","","","","","","","","","","","","",""
"html-keyboard-response","64","192731","0.0-5.0-3.0-1.0-0.11","69728435c9476fe76dd2ab2f","not_provided","desktop","0","0","1","","","","","","working_memory","","null","<div class=""fixation"">+</div>","null","","","","","","","","","","","","","","","","",""
"html-keyboard-response","65","192935","0.0-5.0-3.0-1.0-1.11","69728435c9476fe76dd2ab2f","not_provided","desktop","0","0","1","","","","","","working_memory","","null","<img class='upper3' src=images/squares/blue.png><div class=""fixation"">+</div>","null","","","memory","practice","11","1","","","","","","","","","","",""
"html-keyboard-response","66","193843","0.0-5.0-3.0-1.0-2.11","69728435c9476fe76dd2ab2f","not_provided","desktop","0","0","1","","","","","","working_memory","","null","<div class=""fixation"">+</div>","null","","","","","","","","","","","","","","","","",""
"html-keyboard-response","67","194479","0.0-5.0-3.0-1.0-3.11","69728435c9476fe76dd2ab2f","not_provided","desktop","0","0","1","","","","","","working_memory","","635","<img class='upper3' src=images/squares/red.png><div class=""fixation"">+</div>","k","","","test","practice","11","1","k","true","","","","","","","","",""
"html-keyboard-response","68","194986","0.0-5.0-3.0-1.0-4.11","69728435c9476fe76dd2ab2f","not_provided","desktop","0","0","1","","","","","","working_memory","","null","<div class=""fixation"">Correct</div>","null","","","","","","","","","","","","","","","","",""
"html-keyboard-response","69","195999","0.0-5.0-3.0-1.0-0.12","69728435c9476fe76dd2ab2f","not_provided","desktop","0","0","1","","","","","","working_memory","","null","<div class=""fixation"">+</div>","null","","","","","","","","","","","","","","","","",""
"html-keyboard-response","70","196205","0.0-5.0-3.0-1.0-1.12","69728435c9476fe76dd2ab2f","not_provided","desktop","0","0","1","","","","","","working_memory","","null","<img class='c' src=images/squares/blue.png><img class='f' src=images/squares/orange.png><img class='i' src=images/squares/brown.png><img class='k' src=images/squares/cyan.png><div class=""fixation"">+</div>","null","","","memory","practice","12","4","","","","","","","","","","",""
"html-keyboard-response","71","197107","0.0-5.0-3.0-1.0-2.12","69728435c9476fe76dd2ab2f","not_provided","desktop","0","0","1","","","","","","working_memory","","null","<div class=""fixation"">+</div>","null","","","","","","","","","","","","","","","","",""
"html-keyboard-response","72","197711","0.0-5.0-3.0-1.0-3.12","69728435c9476fe76dd2ab2f","not_provided","desktop","0","0","1","","","","","","working_memory","","603","<img class='c' src=images/squares/blue.png><div class=""fixation"">+</div>","s","","","test","practice","12","4","s","true","","","","","","","","",""
"html-keyboard-response","73","198215","0.0-5.0-3.0-1.0-4.12","69728435c9476fe76dd2ab2f","not_provided","desktop","0","0","1","","","","","","working_memory","","null","<div class=""fixation"">Correct</div>","null","","","","","","","","","","","","","","","","",""
"html-keyboard-response","74","199230","0.0-5.0-3.0-1.0-0.13","69728435c9476fe76dd2ab2f","not_provided","desktop","0","0","1","","","","","","working_memory","","null","<div class=""fixation"">+</div>","null","","","","","","","","","","","","","","","","",""
"html-keyboard-response","75","199433","0.0-5.0-3.0-1.0-1.13","69728435c9476fe76dd2ab2f","not_provided","desktop","0","0","1","","","","","","working_memory","","null","<img class='b' src=images/squares/brown.png><img class='a' src=images/squares/cyan.png><img class='e' src=images/squares/black.png><img class='f' src=images/squares/blue.png><img class='h' src=images/squares/magenta.png><img class='i' src=images/squares/red.png><img class='j' src=images/squares/yellow.png><img class='k' src=images/squares/green.png><div class=""fixation"">+</div>","null","","","memory","practice","13","8","","","","","","","","","","",""
"html-keyboard-response","76","200340","0.0-5.0-3.0-1.0-2.13","69728435c9476fe76dd2ab2f","not_provided","desktop","0","0","1","","","","","","working_memory","","null","<div class=""fixation"">+</div>","null","","","","","","","","","","","","","","","","",""
"html-keyboard-response","77","201167","0.0-5.0-3.0-1.0-3.13","69728435c9476fe76dd2ab2f","not_provided","desktop","0","0","1","","","","","","working_memory","","825","<img class='h' src=images/squares/orange.png><div class=""fixation"">+</div>","k","","","test","practice","13","8","k","true","","","","","","","","",""
"html-keyboard-response","78","201682","0.0-5.0-3.0-1.0-4.13","69728435c9476fe76dd2ab2f","not_provided","desktop","0","0","1","","","","","","working_memory","","null","<div class=""fixation"">Correct</div>","null","","","","","","","","","","","","","","","","",""
"html-keyboard-response","79","202696","0.0-5.0-3.0-1.0-0.14","69728435c9476fe76dd2ab2f","not_provided","desktop","0","0","1","","","","","","working_memory","","null","<div class=""fixation"">+</div>","null","","","","","","","","","","","","","","","","",""
"html-keyboard-response","80","202900","0.0-5.0-3.0-1.0-1.14","69728435c9476fe76dd2ab2f","not_provided","desktop","0","0","1","","","","","","working_memory","","null","<img class='lower1' src=images/squares/magenta.png><div class=""fixation"">+</div>","null","","","memory","practice","14","1","","","","","","","","","","",""
"html-keyboard-response","81","203807","0.0-5.0-3.0-1.0-2.14","69728435c9476fe76dd2ab2f","not_provided","desktop","0","0","1","","","","","","working_memory","","null","<div class=""fixation"">+</div>","null","","","","","","","","","","","","","","","","",""
"html-keyboard-response","82","204591","0.0-5.0-3.0-1.0-3.14","69728435c9476fe76dd2ab2f","not_provided","desktop","0","0","1","","","","","","working_memory","","784","<img class='lower1' src=images/squares/blue.png><div class=""fixation"">+</div>","k","","","test","practice","14","1","k","true","","","","","","","","",""
"html-keyboard-response","83","205095","0.0-5.0-3.0-1.0-4.14","69728435c9476fe76dd2ab2f","not_provided","desktop","0","0","1","","","","","","working_memory","","null","<div class=""fixation"">Correct</div>","null","","","","","","","","","","","","","","","","",""
"html-keyboard-response","84","208375","0.0-5.0-3.0-2.0-0.0","69728435c9476fe76dd2ab2f","not_provided","desktop","0","0","1","","","","","","working_memory","","3277","<p>Sorry. You made too many mistakes.<br>Let's do the practice session once again.<br><br><b>Press any key to continue</b></p>"," ","","","","","","","","","","","","","","","","",""
"html-keyboard-response","85","211685","0.0-5.0-3.1-0.1","69728435c9476fe76dd2ab2f","not_provided","desktop","0","0","1","","","","","","working_memory","","3309","<p>We will now start some practice trials.<br><b>The practice trials will also include some trials in which you will need to remember only one square to make sure you understood the instructions.</b><br>You may already want to be ready with your fingers on '<b>s</b>' and '<b>k</b>'.<br><img class=""wm-example-img"" src=""images/examples/keyboard.png""><br><b style=""font-size:1.2em;"">&lsquo;S&rsquo; = SAME &nbsp;&nbsp;&nbsp; &lsquo;K&rsquo; = DIFFERENT</b><br><br><u>Please try to be as accurate as possible.</u><br><br><b>Press any key to begin</b></p>"," ","","","","","","","","","","","","","","","","",""
"html-keyboard-response","86","213714","0.0-5.0-3.1-1.1-0.15","69728435c9476fe76dd2ab2f","not_provided","desktop","0","0","1","","","","","","working_memory","","null","<div class=""fixation"">+</div>","null","","","","","","","","","","","","","","","","",""
"html-keyboard-response","87","213918","0.0-5.0-3.1-1.1-1.15","69728435c9476fe76dd2ab2f","not_provided","desktop","0","0","1","","","","","","working_memory","","null","<img class='lower1' src=images/squares/magenta.png><div class=""fixation"">+</div>","null","","","memory","practice","15","1","","","","","","","","","","",""
"html-keyboard-response","88","214824","0.0-5.0-3.1-1.1-2.15","69728435c9476fe76dd2ab2f","not_provided","desktop","0","0","1","","","","","","working_memory","","null","<div class=""fixation"">+</div>","null","","","","","","","","","","","","","","","","",""
"html-keyboard-response","89","215423","0.0-5.0-3.1-1.1-3.15","69728435c9476fe76dd2ab2f","not_provided","desktop","0","0","1","","","","","","working_memory","","599","<img class='lower1' src=images/squares/magenta.png><div class=""fixation"">+</div>","s","","","test","practice","15","1","s","true","","","","","","","","",""
"html-keyboard-response","90","215925","0.0-5.0-3.1-1.1-4.15","69728435c9476fe76dd2ab2f","not_provided","desktop","0","0","1","","","","","","working_memory","","null","<div class=""fixation"">Correct</div>","null","","","","","","","","","","","","","","","","",""
"html-keyboard-response","91","216940","0.0-5.0-3.1-1.1-0.16","69728435c9476fe76dd2ab2f","not_provided","desktop","0","0","1","","","","","","working_memory","","null","<div class=""fixation"">+</div>","null","","","","","","","","","","","","","","","","",""
"html-keyboard-response","92","217144","0.0-5.0-3.1-1.1-1.16","69728435c9476fe76dd2ab2f","not_provided","desktop","0","0","1","","","","","","working_memory","","null","<img class='c' src=images/squares/green.png><img class='a' src=images/squares/orange.png><img class='e' src=images/squares/magenta.png><img class='f' src=images/squares/brown.png><img class='g' src=images/squares/black.png><img class='h' src=images/squares/yellow.png><img class='j' src=images/squares/cyan.png><img class='l' src=images/squares/red.png><div class=""fixation"">+</div>","null","","","memory","practice","16","8","","","","","","","","","","",""
"html-keyboard-response","93","218049","0.0-5.0-3.1-1.1-2.16","69728435c9476fe76dd2ab2f","not_provided","desktop","0","0","1","","","","","","working_memory","","null","<div class=""fixation"">+</div>","null","","","","","","","","","","","","","","","","",""
"html-keyboard-response","94","219263","0.0-5.0-3.1-1.1-3.16","69728435c9476fe76dd2ab2f","not_provided","desktop","0","0","1","","","","","","working_memory","","1213","<img class='e' src=images/squares/blue.png><div class=""fixation"">+</div>","k","","","test","practice","16","8","k","true","","","","","","","","",""
"html-keyboard-response","95","219771","0.0-5.0-3.1-1.1-4.16","69728435c9476fe76dd2ab2f","not_provided","desktop","0","0","1","","","","","","working_memory","","null","<div class=""fixation"">Correct</div>","null","","","","","","","","","","","","","","","","",""
"html-keyboard-response","96","220785","0.0-5.0-3.1-1.1-0.17","69728435c9476fe76dd2ab2f","not_provided","desktop","0","0","1","","","","","","working_memory","","null","<div class=""fixation"">+</div>","null","","","","","","","","","","","","","","","","",""
"html-keyboard-response","97","220990","0.0-5.0-3.1-1.1-1.17","69728435c9476fe76dd2ab2f","not_provided","desktop","0","0","1","","","","","","working_memory","","null","<img class='b' src=images/squares/red.png><img class='a' src=images/squares/brown.png><img class='e' src=images/squares/blue.png><img class='d' src=images/squares/black.png><img class='g' src=images/squares/cyan.png><img class='i' src=images/squares/orange.png><img class='k' src=images/squares/green.png><img class='l' src=images/squares/magenta.png><div class=""fixation"">+</div>","null","","","memory","practice","17","8","","","","","","","","","","",""
"html-keyboard-response","98","221900","0.0-5.0-3.1-1.1-2.17","69728435c9476fe76dd2ab2f","not_provided","desktop","0","0","1","","","","","","working_memory","","null","<div class=""fixation"">+</div>","null","","","","","","","","","","","","","","","","",""
"html-keyboard-response","99","222983","0.0-5.0-3.1-1.1-3.17","69728435c9476fe76dd2ab2f","not_provided","desktop","0","0","1","","","","","","working_memory","","1083","<img class='i' src=images/squares/orange.png><div class=""fixation"">+</div>","k","","","test","practice","17","8","s","false","","","","","","","","",""
"html-keyboard-response","100","223495","0.0-5.0-3.1-1.1-4.17","69728435c9476fe76dd2ab2f","not_provided","desktop","0","0","1","","","","","","working_memory","","null","<div class=""fixation"">Incorrect</div>","null","","","","","","","","","","","","","","","","",""
"html-keyboard-response","101","224500","0.0-5.0-3.1-1.1-0.18","69728435c9476fe76dd2ab2f","not_provided","desktop","0","0","1","","","","","","working_memory","","null","<div class=""fixation"">+</div>","null","","","","","","","","","","","","","","","","",""
"html-keyboard-response","102","224703","0.0-5.0-3.1-1.1-1.18","69728435c9476fe76dd2ab2f","not_provided","desktop","0","0","1","","","","","","working_memory","","null","<img class='c' src=images/squares/magenta.png><img class='f' src=images/squares/blue.png><img class='h' src=images/squares/orange.png><img class='l' src=images/squares/red.png><div class=""fixation"">+</div>","null","","","memory","practice","18","4","","","","","","","","","","",""
"html-keyboard-response","103","225607","0.0-5.0-3.1-1.1-2.18","69728435c9476fe76dd2ab2f","not_provided","desktop","0","0","1","","","","","","working_memory","","null","<div class=""fixation"">+</div>","null","","","","","","","","","","","","","","","","",""
"html-keyboard-response","104","226416","0.0-5.0-3.1-1.1-3.18","69728435c9476fe76dd2ab2f","not_provided","desktop","0","0","1","","","","","","working_memory","","807","<img class='l' src=images/squares/red.png><div class=""fixation"">+</div>","s","","","test","practice","18","4","s","true","","","","","","","","",""
"html-keyboard-response","105","226917","0.0-5.0-3.1-1.1-4.18","69728435c9476fe76dd2ab2f","not_provided","desktop","0","0","1","","","","","","working_memory","","null","<div class=""fixation"">Correct</div>","null","","","","","","","","","","","","","","","","",""
"html-keyboard-response","106","227930","0.0-5.0-3.1-1.1-0.19","69728435c9476fe76dd2ab2f","not_provided","desktop","0","0","1","","","","","","working_memory","","null","<div class=""fixation"">+</div>","null","","","","","","","","","","","","","","","","",""
"html-keyboard-response","107","228132","0.0-5.0-3.1-1.1-1.19","69728435c9476fe76dd2ab2f","not_provided","desktop","0","0","1","","","","","","working_memory","","null","<img class='b' src=images/squares/yellow.png><img class='d' src=images/squares/blue.png><img class='g' src=images/squares/orange.png><img class='j' src=images/squares/brown.png><div class=""fixation"">+</div>","null","","","memory","practice","19","4","","","","","","","","","","",""
"html-keyboard-response","108","229036","0.0-5.0-3.1-1.1-2.19","69728435c9476fe76dd2ab2f","not_provided","desktop","0","0","1","","","","","","working_memory","","null","<div class=""fixation"">+</div>","null","","","","","","","","","","","","","","","","",""
"html-keyboard-response","109","229879","0.0-5.0-3.1-1.1-3.19","69728435c9476fe76dd2ab2f","not_provided","desktop","0","0","1","","","","","","working_memory","","841","<img class='d' src=images/squares/black.png><div class=""fixation"">+</div>","k","","","test","practice","19","4","k","true","","","","","","","","",""
"html-keyboard-response","110","230394","0.0-5.0-3.1-1.1-4.19","69728435c9476fe76dd2ab2f","not_provided","desktop","0","0","1","","","","","","working_memory","","null","<div class=""fixation"">Correct</div>","null","","","","","","","","","","","","","","","","",""
"html-keyboard-response","111","231409","0.0-5.0-3.1-1.1-0.20","69728435c9476fe76dd2ab2f","not_provided","desktop","0","0","1","","","","","","working_memory","","null","<div class=""fixation"">+</div>","null","","","","","","","","","","","","","","","","",""
"html-keyboard-response","112","231614","0.0-5.0-3.1-1.1-1.20","69728435c9476fe76dd2ab2f","not_provided","desktop","0","0","1","","","","","","working_memory","","null","<img class='a' src=images/squares/magenta.png><img class='f' src=images/squares/orange.png><img class='i' src=images/squares/green.png><img class='k' src=images/squares/red.png><div class=""fixation"">+</div>","null","","","memory","practice","20","4","","","","","","","","","","",""
"html-keyboard-response","113","232525","0.0-5.0-3.1-1.1-2.20","69728435c9476fe76dd2ab2f","not_provided","desktop","0","0","1","","","","","","working_memory","","null","<div class=""fixation"">+</div>","null","","","","","","","","","","","","","","","","",""
"html-keyboard-response","114","233295","0.0-5.0-3.1-1.1-3.20","69728435c9476fe76dd2ab2f","not_provided","desktop","0","0","1","","","","","","working_memory","","769","<img class='k' src=images/squares/brown.png><div class=""fixation"">+</div>","k","","","test","practice","20","4","k","true","","","","","","","","",""
"html-keyboard-response","115","233802","0.0-5.0-3.1-1.1-4.20","69728435c9476fe76dd2ab2f","not_provided","desktop","0","0","1","","","","","","working_memory","","null","<div class=""fixation"">Correct</div>","null","","","","","","","","","","","","","","","","",""
"html-keyboard-response","116","234818","0.0-5.0-3.1-1.1-0.21","69728435c9476fe76dd2ab2f","not_provided","desktop","0","0","1","","","","","","working_memory","","null","<div class=""fixation"">+</div>","null","","","","","","","","","","","","","","","","",""
"html-keyboard-response","117","235023","0.0-5.0-3.1-1.1-1.21","69728435c9476fe76dd2ab2f","not_provided","desktop","0","0","1","","","","","","working_memory","","null","<img class='a' src=images/squares/yellow.png><img class='b' src=images/squares/orange.png><img class='e' src=images/squares/black.png><img class='d' src=images/squares/brown.png><img class='i' src=images/squares/blue.png><img class='g' src=images/squares/red.png><img class='l' src=images/squares/cyan.png><img class='k' src=images/squares/green.png><div class=""fixation"">+</div>","null","","","memory","practice","21","8","","","","","","","","","","",""
"html-keyboard-response","118","235925","0.0-5.0-3.1-1.1-2.21","69728435c9476fe76dd2ab2f","not_provided","desktop","0","0","1","","","","","","working_memory","","null","<div class=""fixation"">+</div>","null","","","","","","","","","","","","","","","","",""
"html-keyboard-response","119","236928","0.0-5.0-3.1-1.1-3.21","69728435c9476fe76dd2ab2f","not_provided","desktop","0","0","1","","","","","","working_memory","","1001","<img class='i' src=images/squares/magenta.png><div class=""fixation"">+</div>","k","","","test","practice","21","8","k","true","","","","","","","","",""
"html-keyboard-response","120","237443","0.0-5.0-3.1-1.1-4.21","69728435c9476fe76dd2ab2f","not_provided","desktop","0","0","1","","","","","","working_memory","","null","<div class=""fixation"">Correct</div>","null","","","","","","","","","","","","","","","","",""
"html-keyboard-response","121","238458","0.0-5.0-3.1-1.1-0.22","69728435c9476fe76dd2ab2f","not_provided","desktop","0","0","1","","","","","","working_memory","","null","<div class=""fixation"">+</div>","null","","","","","","","","","","","","","","","","",""
"html-keyboard-response","122","238662","0.0-5.0-3.1-1.1-1.22","69728435c9476fe76dd2ab2f","not_provided","desktop","0","0","1","","","","","","working_memory","","null","<img class='a' src=images/squares/yellow.png><img class='e' src=images/squares/black.png><img class='i' src=images/squares/cyan.png><img class='j' src=images/squares/brown.png><div class=""fixation"">+</div>","null","","","memory","practice","22","4","","","","","","","","","","",""
"html-keyboard-response","123","239568","0.0-5.0-3.1-1.1-2.22","69728435c9476fe76dd2ab2f","not_provided","desktop","0","0","1","","","","","","working_memory","","null","<div class=""fixation"">+</div>","null","","","","","","","","","","","","","","","","",""
"html-keyboard-response","124","241007","0.0-5.0-3.1-1.1-3.22","69728435c9476fe76dd2ab2f","not_provided","desktop","0","0","1","","","","","","working_memory","","1438","<img class='j' src=images/squares/orange.png><div class=""fixation"">+</div>","s","","","test","practice","22","4","k","false","","","","","","","","",""
"html-keyboard-response","125","241519","0.0-5.0-3.1-1.1-4.22","69728435c9476fe76dd2ab2f","not_provided","desktop","0","0","1","","","","","","working_memory","","null","<div class=""fixation"">Incorrect</div>","null","","","","","","","","","","","","","","","","",""
"html-keyboard-response","126","242534","0.0-5.0-3.1-1.1-0.23","69728435c9476fe76dd2ab2f","not_provided","desktop","0","0","1","","","","","","working_memory","","null","<div class=""fixation"">+</div>","null","","","","","","","","","","","","","","","","",""
"html-keyboard-response","127","242750","0.0-5.0-3.1-1.1-1.23","69728435c9476fe76dd2ab2f","not_provided","desktop","0","0","1","","","","","","working_memory","","null","<img class='lower1' src=images/squares/green.png><div class=""fixation"">+</div>","null","","","memory","practice","23","1","","","","","","","","","","",""
"html-keyboard-response","128","243657","0.0-5.0-3.1-1.1-2.23","69728435c9476fe76dd2ab2f","not_provided","desktop","0","0","1","","","","","","working_memory","","null","<div class=""fixation"">+</div>","null","","","","","","","","","","","","","","","","",""
"html-keyboard-response","129","244335","0.0-5.0-3.1-1.1-3.23","69728435c9476fe76dd2ab2f","not_provided","desktop","0","0","1","","","","","","working_memory","","677","<img class='lower1' src=images/squares/red.png><div class=""fixation"">+</div>","k","","","test","practice","23","1","k","true","","","","","","","","",""
"html-keyboard-response","130","244846","0.0-5.0-3.1-1.1-4.23","69728435c9476fe76dd2ab2f","not_provided","desktop","0","0","1","","","","","","working_memory","","null","<div class=""fixation"">Correct</div>","null","","","","","","","","","","","","","","","","",""
"html-keyboard-response","131","245859","0.0-5.0-3.1-1.1-0.24","69728435c9476fe76dd2ab2f","not_provided","desktop","0","0","1","","","","","","working_memory","","null","<div class=""fixation"">+</div>","null","","","","","","","","","","","","","","","","",""
"html-keyboard-response","132","246061","0.0-5.0-3.1-1.1-1.24","69728435c9476fe76dd2ab2f","not_provided","desktop","0","0","1","","","","","","working_memory","","null","<img class='b' src=images/squares/brown.png><img class='d' src=images/squares/yellow.png><img class='i' src=images/squares/black.png><img class='l' src=images/squares/blue.png><div class=""fixation"">+</div>","null","","","memory","practice","24","4","","","","","","","","","","",""
"html-keyboard-response","133","246972","0.0-5.0-3.1-1.1-2.24","69728435c9476fe76dd2ab2f","not_provided","desktop","0","0","1","","","","","","working_memory","","null","<div class=""fixation"">+</div>","null","","","","","","","","","","","","","","","","",""
"html-keyboard-response","134","248000","0.0-5.0-3.1-1.1-3.24","69728435c9476fe76dd2ab2f","not_provided","desktop","0","0","1","","","","","","working_memory","","1026","<img class='l' src=images/squares/red.png><div class=""fixation"">+</div>","k","","","test","practice","24","4","k","true","","","","","","","","",""
"html-keyboard-response","135","248504","0.0-5.0-3.1-1.1-4.24","69728435c9476fe76dd2ab2f","not_provided","desktop","0","0","1","","","","","","working_memory","","null","<div class=""fixation"">Correct</div>","null","","","","","","","","","","","","","","","","",""
"html-keyboard-response","136","249507","0.0-5.0-3.1-1.1-0.25","69728435c9476fe76dd2ab2f","not_provided","desktop","0","0","1","","","","","","working_memory","","null","<div class=""fixation"">+</div>","null","","","","","","","","","","","","","","","","",""
"html-keyboard-response","137","249710","0.0-5.0-3.1-1.1-1.25","69728435c9476fe76dd2ab2f","not_provided","desktop","0","0","1","","","","","","working_memory","","null","<img class='lower1' src=images/squares/blue.png><div class=""fixation"">+</div>","null","","","memory","practice","25","1","","","","","","","","","","",""
"html-keyboard-response","138","250613","0.0-5.0-3.1-1.1-2.25","69728435c9476fe76dd2ab2f","not_provided","desktop","0","0","1","","","","","","working_memory","","null","<div class=""fixation"">+</div>","null","","","","","","","","","","","","","","","","",""
"html-keyboard-response","139","251773","0.0-5.0-3.1-1.1-3.25","69728435c9476fe76dd2ab2f","not_provided","desktop","0","0","1","","","","","","working_memory","","1160","<img class='lower1' src=images/squares/brown.png><div class=""fixation"">+</div>","k","","","test","practice","25","1","k","true","","","","","","","","",""
"html-keyboard-response","140","252286","0.0-5.0-3.1-1.1-4.25","69728435c9476fe76dd2ab2f","not_provided","desktop","0","0","1","","","","","","working_memory","","null","<div class=""fixation"">Correct</div>","null","","","","","","","","","","","","","","","","",""
"html-keyboard-response","141","253302","0.0-5.0-3.1-1.1-0.26","69728435c9476fe76dd2ab2f","not_provided","desktop","0","0","1","","","","","","working_memory","","null","<div class=""fixation"">+</div>","null","","","","","","","","","","","","","","","","",""
"html-keyboard-response","142","253504","0.0-5.0-3.1-1.1-1.26","69728435c9476fe76dd2ab2f","not_provided","desktop","0","0","1","","","","","","working_memory","","null","<img class='b' src=images/squares/cyan.png><img class='e' src=images/squares/green.png><img class='i' src=images/squares/brown.png><img class='k' src=images/squares/orange.png><div class=""fixation"">+</div>","null","","","memory","practice","26","4","","","","","","","","","","",""
"html-keyboard-response","143","254409","0.0-5.0-3.1-1.1-2.26","69728435c9476fe76dd2ab2f","not_provided","desktop","0","0","1","","","","","","working_memory","","null","<div class=""fixation"">+</div>","null","","","","","","","","","","","","","","","","",""
"html-keyboard-response","144","255719","0.0-5.0-3.1-1.1-3.26","69728435c9476fe76dd2ab2f","not_provided","desktop","0","0","1","","","","","","working_memory","","1309","<img class='b' src=images/squares/cyan.png><div class=""fixation"">+</div>","s","","","test","practice","26","4","s","true","","","","","","","","",""
"html-keyboard-response","145","256234","0.0-5.0-3.1-1.1-4.26","69728435c9476fe76dd2ab2f","not_provided","desktop","0","0","1","","","","","","working_memory","","null","<div class=""fixation"">Correct</div>","null","","","","","","","","","","","","","","","","",""
"html-keyboard-response","146","257250","0.0-5.0-3.1-1.1-0.27","69728435c9476fe76dd2ab2f","not_provided","desktop","0","0","1","","","","","","working_memory","","null","<div class=""fixation"">+</div>","null","","","","","","","","","","","","","","","","",""
"html-keyboard-response","147","257454","0.0-5.0-3.1-1.1-1.27","69728435c9476fe76dd2ab2f","not_provided","desktop","0","0","1","","","","","","working_memory","","null","<img class='a' src=images/squares/magenta.png><img class='b' src=images/squares/red.png><img class='d' src=images/squares/yellow.png><img class='e' src=images/squares/orange.png><img class='i' src=images/squares/blue.png><img class='g' src=images/squares/black.png><img class='l' src=images/squares/cyan.png><img class='k' src=images/squares/brown.png><div class=""fixation"">+</div>","null","","","memory","practice","27","8","","","","","","","","","","",""
"html-keyboard-response","148","258360","0.0-5.0-3.1-1.1-2.27","69728435c9476fe76dd2ab2f","not_provided","desktop","0","0","1","","","","","","working_memory","","null","<div class=""fixation"">+</div>","null","","","","","","","","","","","","","","","","",""
"html-keyboard-response","149","259280","0.0-5.0-3.1-1.1-3.27","69728435c9476fe76dd2ab2f","not_provided","desktop","0","0","1","","","","","","working_memory","","919","<img class='g' src=images/squares/green.png><div class=""fixation"">+</div>","k","","","test","practice","27","8","k","true","","","","","","","","",""
"html-keyboard-response","150","259782","0.0-5.0-3.1-1.1-4.27","69728435c9476fe76dd2ab2f","not_provided","desktop","0","0","1","","","","","","working_memory","","null","<div class=""fixation"">Correct</div>","null","","","","","","","","","","","","","","","","",""
"html-keyboard-response","151","260797","0.0-5.0-3.1-1.1-0.28","69728435c9476fe76dd2ab2f","not_provided","desktop","0","0","1","","","","","","working_memory","","null","<div class=""fixation"">+</div>","null","","","","","","","","","","","","","","","","",""
"html-keyboard-response","152","261000","0.0-5.0-3.1-1.1-1.28","69728435c9476fe76dd2ab2f","not_provided","desktop","0","0","1","","","","","","working_memory","","null","<img class='b' src=images/squares/green.png><img class='f' src=images/squares/red.png><img class='g' src=images/squares/yellow.png><img class='j' src=images/squares/cyan.png><div class=""fixation"">+</div>","null","","","memory","practice","28","4","","","","","","","","","","",""
"html-keyboard-response","153","261906","0.0-5.0-3.1-1.1-2.28","69728435c9476fe76dd2ab2f","not_provided","desktop","0","0","1","","","","","","working_memory","","null","<div class=""fixation"">+</div>","null","","","","","","","","","","","","","","","","",""
"html-keyboard-response","154","262719","0.0-5.0-3.1-1.1-3.28","69728435c9476fe76dd2ab2f","not_provided","desktop","0","0","1","","","","","","working_memory","","811","<img class='j' src=images/squares/cyan.png><div class=""fixation"">+</div>","k","","","test","practice","28","4","s","false","","","","","","","","",""
"html-keyboard-response","155","263219","0.0-5.0-3.1-1.1-4.28","69728435c9476fe76dd2ab2f","not_provided","desktop","0","0","1","","","","","","working_memory","","null","<div class=""fixation"">Incorrect</div>","null","","","","","","","","","","","","","","","","",""
"html-keyboard-response","156","264235","0.0-5.0-3.1-1.1-0.29","69728435c9476fe76dd2ab2f","not_provided","desktop","0","0","1","","","","","","working_memory","","null","<div class=""fixation"">+</div>","null","","","","","","","","","","","","","","","","",""
"html-keyboard-response","157","264437","0.0-5.0-3.1-1.1-1.29","69728435c9476fe76dd2ab2f","not_provided","desktop","0","0","1","","","","","","working_memory","","null","<img class='c' src=images/squares/magenta.png><img class='f' src=images/squares/cyan.png><img class='g' src=images/squares/brown.png><img class='k' src=images/squares/blue.png><div class=""fixation"">+</div>","null","","","memory","practice","29","4","","","","","","","","","","",""
"html-keyboard-response","158","265346","0.0-5.0-3.1-1.1-2.29","69728435c9476fe76dd2ab2f","not_provided","desktop","0","0","1","","","","","","working_memory","","null","<div class=""fixation"">+</div>","null","","","","","","","","","","","","","","","","",""
"html-keyboard-response","159","266271","0.0-5.0-3.1-1.1-3.29","69728435c9476fe76dd2ab2f","not_provided","desktop","0","0","1","","","","","","working_memory","","924","<img class='f' src=images/squares/cyan.png><div class=""fixation"">+</div>","s","","","test","practice","29","4","s","true","","","","","","","","",""
"html-keyboard-response","160","266783","0.0-5.0-3.1-1.1-4.29","69728435c9476fe76dd2ab2f","not_provided","desktop","0","0","1","","","","","","working_memory","","null","<div class=""fixation"">Correct</div>","null","","","","","","","","","","","","","","","","",""
"html-keyboard-response","161","378909","0.0-5.0-4.0","69728435c9476fe76dd2ab2f","not_provided","desktop","0","0","1","","","","","","working_memory","","112126","<div style=""text-align:center;font-family:sans-serif;""><p>Good job! You have finished the practice.</p><p>We will now start the real experiment.</p><p>Please try to be as accurate as possible.</p><p><b><u>Note: random guessing may risk your payment.</u></b></p><br><p><b>Press any key to begin.</b></p></div>"," ","","","","","","","","","","","","","","","","",""
"html-keyboard-response","162","379923","0.0-5.0-5.0-0.0","69728435c9476fe76dd2ab2f","not_provided","desktop","0","0","1","","","","","","working_memory","","null","<div class=""fixation"">+</div>","null","","","","","","","","","","","","","","","","",""
"html-keyboard-response","163","380125","0.0-5.0-5.0-1.0","69728435c9476fe76dd2ab2f","not_provided","desktop","0","0","1","","","","","","working_memory","","null","<img class='c' src=images/squares/yellow.png><img class='e' src=images/squares/orange.png><img class='h' src=images/squares/brown.png><img class='l' src=images/squares/blue.png><div class=""fixation"">+</div>","null","","","memory","exp","0","","","","","","","","","","","",""
"html-keyboard-response","164","381031","0.0-5.0-5.0-2.0","69728435c9476fe76dd2ab2f","not_provided","desktop","0","0","1","","","","","","working_memory","","null","<div class=""fixation"">+</div>","null","","","","","","","","","","","","","","","","",""
"html-keyboard-response","165","382327","0.0-5.0-5.0-3.0","69728435c9476fe76dd2ab2f","not_provided","desktop","0","0","1","","","","","","working_memory","","1295","<img class='c' src=images/squares/yellow.png><div class=""fixation"">+</div>","s","","","test_squares","exp","0","4","s","true","sk","s","","","","","","",""
"html-keyboard-response","166","382832","0.0-5.0-5.0-4.0","69728435c9476fe76dd2ab2f","not_provided","desktop","0","0","1","","","","","","working_memory","","null","<div class=""fixation"">Correct</div>","null","","","","","","","","","","","","","","","","",""
"html-keyboard-response","167","383848","0.0-5.0-5.0-0.1","69728435c9476fe76dd2ab2f","not_provided","desktop","0","0","1","","","","","","working_memory","","null","<div class=""fixation"">+</div>","null","","","","","","","","","","","","","","","","",""
"html-keyboard-response","168","384053","0.0-5.0-5.0-1.1","69728435c9476fe76dd2ab2f","not_provided","desktop","0","0","1","","","","","","working_memory","","null","<img class='a' src=images/squares/cyan.png><img class='f' src=images/squares/brown.png><img class='i' src=images/squares/magenta.png><img class='j' src=images/squares/blue.png><div class=""fixation"">+</div>","null","","","memory","exp","1","","","","","","","","","","","",""
"html-keyboard-response","169","384959","0.0-5.0-5.0-2.1","69728435c9476fe76dd2ab2f","not_provided","desktop","0","0","1","","","","","","working_memory","","null","<div class=""fixation"">+</div>","null","","","","","","","","","","","","","","","","",""
"html-keyboard-response","170","385775","0.0-5.0-5.0-3.1","69728435c9476fe76dd2ab2f","not_provided","desktop","0","0","1","","","","","","working_memory","","815","<img class='j' src=images/squares/orange.png><div class=""fixation"">+</div>","k","","","test_squares","exp","1","4","k","true","sk","d","","","","","","",""
"html-keyboard-response","171","386288","0.0-5.0-5.0-4.1","69728435c9476fe76dd2ab2f","not_provided","desktop","0","0","1","","","","","","working_memory","","null","<div class=""fixation"">Correct</div>","null","","","","","","","","","","","","","","","","",""
"html-keyboard-response","172","387304","0.0-5.0-5.0-0.2","69728435c9476fe76dd2ab2f","not_provided","desktop","0","0","1","","","","","","working_memory","","null","<div class=""fixation"">+</div>","null","","","","","","","","","","","","","","","","",""
"html-keyboard-response","173","387508","0.0-5.0-5.0-1.2","69728435c9476fe76dd2ab2f","not_provided","desktop","0","0","1","","","","","","working_memory","","null","<img class='c' src=images/squares/yellow.png><img class='f' src=images/squares/red.png><img class='i' src=images/squares/black.png><img class='l' src=images/squares/brown.png><div class=""fixation"">+</div>","null","","","memory","exp","2","","","","","","","","","","","",""
"html-keyboard-response","174","388413","0.0-5.0-5.0-2.2","69728435c9476fe76dd2ab2f","not_provided","desktop","0","0","1","","","","","","working_memory","","null","<div class=""fixation"">+</div>","null","","","","","","","","","","","","","","","","",""
"html-keyboard-response","175","389176","0.0-5.0-5.0-3.2","69728435c9476fe76dd2ab2f","not_provided","desktop","0","0","1","","","","","","working_memory","","761","<img class='l' src=images/squares/blue.png><div class=""fixation"">+</div>","k","","","test_squares","exp","2","4","k","true","sk","d","","","","","","",""
"html-keyboard-response","176","389680","0.0-5.0-5.0-4.2","69728435c9476fe76dd2ab2f","not_provided","desktop","0","0","1","","","","","","working_memory","","null","<div class=""fixation"">Correct</div>","null","","","","","","","","","","","","","","","","",""
"html-keyboard-response","177","390681","0.0-5.0-5.0-0.3","69728435c9476fe76dd2ab2f","not_provided","desktop","0","0","1","","","","","","working_memory","","null","<div class=""fixation"">+</div>","null","","","","","","","","","","","","","","","","",""
"html-keyboard-response","178","390883","0.0-5.0-5.0-1.3","69728435c9476fe76dd2ab2f","not_provided","desktop","0","0","1","","","","","","working_memory","","null","<img class='c' src=images/squares/black.png><img class='e' src=images/squares/brown.png><img class='g' src=images/squares/green.png><img class='l' src=images/squares/orange.png><div class=""fixation"">+</div>","null","","","memory","exp","3","","","","","","","","","","","",""
"html-keyboard-response","179","391788","0.0-5.0-5.0-2.3","69728435c9476fe76dd2ab2f","not_provided","desktop","0","0","1","","","","","","working_memory","","null","<div class=""fixation"">+</div>","null","","","","","","","","","","","","","","","","",""
"html-keyboard-response","180","392479","0.0-5.0-5.0-3.3","69728435c9476fe76dd2ab2f","not_provided","desktop","0","0","1","","","","","","working_memory","","691","<img class='g' src=images/squares/cyan.png><div class=""fixation"">+</div>","k","","","test_squares","exp","3","4","k","true","sk","d","","","","","","",""
"html-keyboard-response","181","392981","0.0-5.0-5.0-4.3","69728435c9476fe76dd2ab2f","not_provided","desktop","0","0","1","","","","","","working_memory","","null","<div class=""fixation"">Correct</div>","null","","","","","","","","","","","","","","","","",""
"html-keyboard-response","182","393984","0.0-5.0-5.0-0.4","69728435c9476fe76dd2ab2f","not_provided","desktop","0","0","1","","","","","","working_memory","","null","<div class=""fixation"">+</div>","null","","","","","","","","","","","","","","","","",""
"html-keyboard-response","183","394187","0.0-5.0-5.0-1.4","69728435c9476fe76dd2ab2f","not_provided","desktop","0","0","1","","","","","","working_memory","","null","<img class='c' src=images/squares/cyan.png><img class='f' src=images/squares/orange.png><img class='g' src=images/squares/brown.png><img class='l' src=images/squares/red.png><div class=""fixation"">+</div>","null","","","memory","exp","4","","","","","","","","","","","",""
"html-keyboard-response","184","395096","0.0-5.0-5.0-2.4","69728435c9476fe76dd2ab2f","not_provided","desktop","0","0","1","","","","","","working_memory","","null","<div class=""fixation"">+</div>","null","","","","","","","","","","","","","","","","",""
"html-keyboard-response","185","395829","0.0-5.0-5.0-3.4","69728435c9476fe76dd2ab2f","not_provided","desktop","0","0","1","","","","","","working_memory","","733","<img class='g' src=images/squares/brown.png><div class=""fixation"">+</div>","k","","","test_squares","exp","4","4","s","false","sk","s","","","","","","",""
"html-keyboard-response","186","396332","0.0-5.0-5.0-4.4","69728435c9476fe76dd2ab2f","not_provided","desktop","0","0","1","","","","","","working_memory","","null","<div class=""fixation"">Incorrect</div>","null","","","","","","","","","","","","","","","","",""
"html-keyboard-response","187","397344","0.0-5.0-5.0-0.5","69728435c9476fe76dd2ab2f","not_provided","desktop","0","0","1","","","","","","working_memory","","null","<div class=""fixation"">+</div>","null","","","","","","","","","","","","","","","","",""
"html-keyboard-response","188","397548","0.0-5.0-5.0-1.5","69728435c9476fe76dd2ab2f","not_provided","desktop","0","0","1","","","","","","working_memory","","null","<img class='a' src=images/squares/magenta.png><img class='d' src=images/squares/brown.png><img class='g' src=images/squares/yellow.png><img class='k' src=images/squares/orange.png><div class=""fixation"">+</div>","null","","","memory","exp","5","","","","","","","","","","","",""
"html-keyboard-response","189","398450","0.0-5.0-5.0-2.5","69728435c9476fe76dd2ab2f","not_provided","desktop","0","0","1","","","","","","working_memory","","null","<div class=""fixation"">+</div>","null","","","","","","","","","","","","","","","","",""
"html-keyboard-response","190","399167","0.0-5.0-5.0-3.5","69728435c9476fe76dd2ab2f","not_provided","desktop","0","0","1","","","","","","working_memory","","715","<img class='d' src=images/squares/brown.png><div class=""fixation"">+</div>","k","","","test_squares","exp","5","4","s","false","sk","s","","","","","","",""
"html-keyboard-response","191","399670","0.0-5.0-5.0-4.5","69728435c9476fe76dd2ab2f","not_provided","desktop","0","0","1","","","","","","working_memory","","null","<div class=""fixation"">Incorrect</div>","null","","","","","","","","","","","","","","","","",""
"html-keyboard-response","192","400672","0.0-5.0-5.0-0.6","69728435c9476fe76dd2ab2f","not_provided","desktop","0","0","1","","","","","","working_memory","","null","<div class=""fixation"">+</div>","null","","","","","","","","","","","","","","","","",""
"html-keyboard-response","193","400877","0.0-5.0-5.0-1.6","69728435c9476fe76dd2ab2f","not_provided","desktop","0","0","1","","","","","","working_memory","","null","<img class='a' src=images/squares/orange.png><img class='f' src=images/squares/green.png><img class='h' src=images/squares/magenta.png><img class='k' src=images/squares/yellow.png><div class=""fixation"">+</div>","null","","","memory","exp","6","","","","","","","","","","","",""
"html-keyboard-response","194","401787","0.0-5.0-5.0-2.6","69728435c9476fe76dd2ab2f","not_provided","desktop","0","0","1","","","","","","working_memory","","null","<div class=""fixation"">+</div>","null","","","","","","","","","","","","","","","","",""
"html-keyboard-response","195","402880","0.0-5.0-5.0-3.6","69728435c9476fe76dd2ab2f","not_provided","desktop","0","0","1","","","","","","working_memory","","1091","<img class='h' src=images/squares/brown.png><div class=""fixation"">+</div>","k","","","test_squares","exp","6","4","k","true","sk","d","","","","","","",""
"html-keyboard-response","196","403385","0.0-5.0-5.0-4.6","69728435c9476fe76dd2ab2f","not_provided","desktop","0","0","1","","","","","","working_memory","","null","<div class=""fixation"">Correct</div>","null","","","","","","","","","","","","","","","","",""
"html-keyboard-response","197","404387","0.0-5.0-5.0-0.7","69728435c9476fe76dd2ab2f","not_provided","desktop","0","0","1","","","","","","working_memory","","null","<div class=""fixation"">+</div>","null","","","","","","","","","","","","","","","","",""
"html-keyboard-response","198","404590","0.0-5.0-5.0-1.7","69728435c9476fe76dd2ab2f","not_provided","desktop","0","0","1","","","","","","working_memory","","null","<img class='a' src=images/squares/green.png><img class='d' src=images/squares/black.png><img class='g' src=images/squares/red.png><img class='l' src=images/squares/magenta.png><div class=""fixation"">+</div>","null","","","memory","exp","7","","","","","","","","","","","",""
"html-keyboard-response","199","405503","0.0-5.0-5.0-2.7","69728435c9476fe76dd2ab2f","not_provided","desktop","0","0","1","","","","","","working_memory","","null","<div class=""fixation"">+</div>","null","","","","","","","","","","","","","","","","",""
"html-keyboard-response","200","406479","0.0-5.0-5.0-3.7","69728435c9476fe76dd2ab2f","not_provided","desktop","0","0","1","","","","","","working_memory","","975","<img class='l' src=images/squares/brown.png><div class=""fixation"">+</div>","k","","","test_squares","exp","7","4","k","true","sk","d","","","","","","",""
"html-keyboard-response","201","406989","0.0-5.0-5.0-4.7","69728435c9476fe76dd2ab2f","not_provided","desktop","0","0","1","","","","","","working_memory","","null","<div class=""fixation"">Correct</div>","null","","","","","","","","","","","","","","","","",""
"html-keyboard-response","202","407994","0.0-5.0-5.0-0.8","69728435c9476fe76dd2ab2f","not_provided","desktop","0","0","1","","","","","","working_memory","","null","<div class=""fixation"">+</div>","null","","","","","","","","","","","","","","","","",""
"html-keyboard-response","203","408211","0.0-5.0-5.0-1.8","69728435c9476fe76dd2ab2f","not_provided","desktop","0","0","1","","","","","","working_memory","","null","<img class='c' src=images/squares/blue.png><img class='a' src=images/squares/orange.png><img class='e' src=images/squares/black.png><img class='d' src=images/squares/magenta.png><img class='h' src=images/squares/yellow.png><img class='g' src=images/squares/red.png><img class='l' src=images/squares/cyan.png><img class='k' src=images/squares/brown.png><div class=""fixation"">+</div>","null","","","memory","exp","8","","","","","","","","","","","",""
"html-keyboard-response","204","409115","0.0-5.0-5.0-2.8","69728435c9476fe76dd2ab2f","not_provided","desktop","0","0","1","","","","","","working_memory","","null","<div class=""fixation"">+</div>","null","","","","","","","","","","","","","","","","",""
"html-keyboard-response","205","410063","0.0-5.0-5.0-3.8","69728435c9476fe76dd2ab2f","not_provided","desktop","0","0","1","","","","","","working_memory","","946","<img class='g' src=images/squares/red.png><div class=""fixation"">+</div>","k","","","test_squares","exp","8","8","s","false","sk","s","","","","","","",""
"html-keyboard-response","206","410569","0.0-5.0-5.0-4.8","69728435c9476fe76dd2ab2f","not_provided","desktop","0","0","1","","","","","","working_memory","","null","<div class=""fixation"">Incorrect</div>","null","","","","","","","","","","","","","","","","",""
"html-keyboard-response","207","411575","0.0-5.0-5.0-0.9","69728435c9476fe76dd2ab2f","not_provided","desktop","0","0","1","","","","","","working_memory","","null","<div class=""fixation"">+</div>","null","","","","","","","","","","","","","","","","",""
"html-keyboard-response","208","411778","0.0-5.0-5.0-1.9","69728435c9476fe76dd2ab2f","not_provided","desktop","0","0","1","","","","","","working_memory","","null","<img class='a' src=images/squares/yellow.png><img class='e' src=images/squares/magenta.png><img class='i' src=images/squares/cyan.png><img class='j' src=images/squares/green.png><div class=""fixation"">+</div>","null","","","memory","exp","9","","","","","","","","","","","",""
"html-keyboard-response","209","412688","0.0-5.0-5.0-2.9","69728435c9476fe76dd2ab2f","not_provided","desktop","0","0","1","","","","","","working_memory","","null","<div class=""fixation"">+</div>","null","","","","","","","","","","","","","","","","",""
"html-keyboard-response","210","413472","0.0-5.0-5.0-3.9","69728435c9476fe76dd2ab2f","not_provided","desktop","0","0","1","","","","","","working_memory","","783","<img class='j' src=images/squares/orange.png><div class=""fixation"">+</div>","k","","","test_squares","exp","9","4","k","true","sk","d","","","","","","",""
"html-keyboard-response","211","413987","0.0-5.0-5.0-4.9","69728435c9476fe76dd2ab2f","not_provided","desktop","0","0","1","","","","","","working_memory","","null","<div class=""fixation"">Correct</div>","null","","","","","","","","","","","","","","","","",""
"html-keyboard-response","212","414992","0.0-5.0-5.0-0.10","69728435c9476fe76dd2ab2f","not_provided","desktop","0","0","1","","","","","","working_memory","","null","<div class=""fixation"">+</div>","null","","","","","","","","","","","","","","","","",""
"html-keyboard-response","213","415195","0.0-5.0-5.0-1.10","69728435c9476fe76dd2ab2f","not_provided","desktop","0","0","1","","","","","","working_memory","","null","<img class='b' src=images/squares/green.png><img class='e' src=images/squares/red.png><img class='g' src=images/squares/yellow.png><img class='j' src=images/squares/brown.png><div class=""fixation"">+</div>","null","","","memory","exp","10","","","","","","","","","","","",""
"html-keyboard-response","214","416105","0.0-5.0-5.0-2.10","69728435c9476fe76dd2ab2f","not_provided","desktop","0","0","1","","","","","","working_memory","","null","<div class=""fixation"">+</div>","null","","","","","","","","","","","","","","","","",""
"html-keyboard-response","215","416679","0.0-5.0-5.0-3.10","69728435c9476fe76dd2ab2f","not_provided","desktop","0","0","1","","","","","","working_memory","","572","<img class='j' src=images/squares/brown.png><div class=""fixation"">+</div>","s","","","test_squares","exp","10","4","s","true","sk","s","","","","","","",""
"html-keyboard-response","216","417183","0.0-5.0-5.0-4.10","69728435c9476fe76dd2ab2f","not_provided","desktop","0","0","1","","","","","","working_memory","","null","<div class=""fixation"">Correct</div>","null","","","","","","","","","","","","","","","","",""
"html-keyboard-response","217","418196","0.0-5.0-5.0-0.11","69728435c9476fe76dd2ab2f","not_provided","desktop","0","0","1","","","","","","working_memory","","null","<div class=""fixation"">+</div>","null","","","","","","","","","","","","","","","","",""
"html-keyboard-response","218","418399","0.0-5.0-5.0-1.11","69728435c9476fe76dd2ab2f","not_provided","desktop","0","0","1","","","","","","working_memory","","null","<img class='b' src=images/squares/magenta.png><img class='f' src=images/squares/blue.png><img class='g' src=images/squares/black.png><img class='k' src=images/squares/red.png><div class=""fixation"">+</div>","null","","","memory","exp","11","","","","","","","","","","","",""
"html-keyboard-response","219","419304","0.0-5.0-5.0-2.11","69728435c9476fe76dd2ab2f","not_provided","desktop","0","0","1","","","","","","working_memory","","null","<div class=""fixation"">+</div>","null","","","","","","","","","","","","","","","","",""
"html-keyboard-response","220","420079","0.0-5.0-5.0-3.11","69728435c9476fe76dd2ab2f","not_provided","desktop","0","0","1","","","","","","working_memory","","773","<img class='b' src=images/squares/cyan.png><div class=""fixation"">+</div>","k","","","test_squares","exp","11","4","k","true","sk","d","","","","","","",""
"html-keyboard-response","221","420583","0.0-5.0-5.0-4.11","69728435c9476fe76dd2ab2f","not_provided","desktop","0","0","1","","","","","","working_memory","","null","<div class=""fixation"">Correct</div>","null","","","","","","","","","","","","","","","","",""
"html-keyboard-response","222","421588","0.0-5.0-5.0-0.12","69728435c9476fe76dd2ab2f","not_provided","desktop","0","0","1","","","","","","working_memory","","null","<div class=""fixation"">+</div>","null","","","","","","","","","","","","","","","","",""
"html-keyboard-response","223","421791","0.0-5.0-5.0-1.12","69728435c9476fe76dd2ab2f","not_provided","desktop","0","0","1","","","","","","working_memory","","null","<img class='a' src=images/squares/brown.png><img class='d' src=images/squares/green.png><img class='i' src=images/squares/black.png><img class='l' src=images/squares/orange.png><div class=""fixation"">+</div>","null","","","memory","exp","12","","","","","","","","","","","",""
"html-keyboard-response","224","422697","0.0-5.0-5.0-2.12","69728435c9476fe76dd2ab2f","not_provided","desktop","0","0","1","","","","","","working_memory","","null","<div class=""fixation"">+</div>","null","","","","","","","","","","","","","","","","",""
"html-keyboard-response","225","423608","0.0-5.0-5.0-3.12","69728435c9476fe76dd2ab2f","not_provided","desktop","0","0","1","","","","","","working_memory","","909","<img class='l' src=images/squares/orange.png><div class=""fixation"">+</div>","k","","","test_squares","exp","12","4","s","false","sk","s","","","","","","",""
"html-keyboard-response","226","424118","0.0-5.0-5.0-4.12","69728435c9476fe76dd2ab2f","not_provided","desktop","0","0","1","","","","","","working_memory","","null","<div class=""fixation"">Incorrect</div>","null","","","","","","","","","","","","","","","","",""
"html-keyboard-response","227","425133","0.0-5.0-5.0-0.13","69728435c9476fe76dd2ab2f","not_provided","desktop","0","0","1","","","","","","working_memory","","null","<div class=""fixation"">+</div>","null","","","","","","","","","","","","","","","","",""
"html-keyboard-response","228","425338","0.0-5.0-5.0-1.13","69728435c9476fe76dd2ab2f","not_provided","desktop","0","0","1","","","","","","working_memory","","null","<img class='b' src=images/squares/brown.png><img class='a' src=images/squares/magenta.png><img class='d' src=images/squares/blue.png><img class='f' src=images/squares/black.png><img class='i' src=images/squares/cyan.png><img class='h' src=images/squares/yellow.png><img class='j' src=images/squares/red.png><img class='l' src=images/squares/orange.png><div class=""fixation"">+</div>","null","","","memory","exp","13","","","","","","","","","","","",""
"html-keyboard-response","229","426243","0.0-5.0-5.0-2.13","69728435c9476fe76dd2ab2f","not_provided","desktop","0","0","1","","","","","","working_memory","","null","<div class=""fixation"">+</div>","null","","","","","","","","","","","","","","","","",""
"html-keyboard-response","230","427063","0.0-5.0-5.0-3.13","69728435c9476fe76dd2ab2f","not_provided","desktop","0","0","1","","","","","","working_memory","","819","<img class='f' src=images/squares/green.png><div class=""fixation"">+</div>","k","","","test_squares","exp","13","8","k","true","sk","d","","","","","","",""
"html-keyboard-response","231","427571","0.0-5.0-5.0-4.13","69728435c9476fe76dd2ab2f","not_provided","desktop","0","0","1","","","","","","working_memory","","null","<div class=""fixation"">Correct</div>","null","","","","","","","","","","","","","","","","",""
"html-keyboard-response","232","428573","0.0-5.0-5.0-0.14","69728435c9476fe76dd2ab2f","not_provided","desktop","0","0","1","","","","","","working_memory","","null","<div class=""fixation"">+</div>","null","","","","","","","","","","","","","","","","",""
"html-keyboard-response","233","428777","0.0-5.0-5.0-1.14","69728435c9476fe76dd2ab2f","not_provided","desktop","0","0","1","","","","","","working_memory","","null","<img class='b' src=images/squares/magenta.png><img class='c' src=images/squares/red.png><img class='f' src=images/squares/brown.png><img class='e' src=images/squares/black.png><img class='i' src=images/squares/yellow.png><img class='h' src=images/squares/cyan.png><img class='j' src=images/squares/orange.png><img class='l' src=images/squares/blue.png><div class=""fixation"">+</div>","null","","","memory","exp","14","","","","","","","","","","","",""
"html-keyboard-response","234","429685","0.0-5.0-5.0-2.14","69728435c9476fe76dd2ab2f","not_provided","desktop","0","0","1","","","","","","working_memory","","null","<div class=""fixation"">+</div>","null","","","","","","","","","","","","","","","","",""
"html-keyboard-response","235","430583","0.0-5.0-5.0-3.14","69728435c9476fe76dd2ab2f","not_provided","desktop","0","0","1","","","","","","working_memory","","897","<img class='j' src=images/squares/green.png><div class=""fixation"">+</div>","k","","","test_squares","exp","14","8","k","true","sk","d","","","","","","",""
"html-keyboard-response","236","431099","0.0-5.0-5.0-4.14","69728435c9476fe76dd2ab2f","not_provided","desktop","0","0","1","","","","","","working_memory","","null","<div class=""fixation"">Correct</div>","null","","","","","","","","","","","","","","","","",""
"html-keyboard-response","237","432103","0.0-5.0-5.0-0.15","69728435c9476fe76dd2ab2f","not_provided","desktop","0","0","1","","","","","","working_memory","","null","<div class=""fixation"">+</div>","null","","","","","","","","","","","","","","","","",""
"html-keyboard-response","238","432320","0.0-5.0-5.0-1.15","69728435c9476fe76dd2ab2f","not_provided","desktop","0","0","1","","","","","","working_memory","","null","<img class='b' src=images/squares/orange.png><img class='a' src=images/squares/green.png><img class='d' src=images/squares/brown.png><img class='e' src=images/squares/yellow.png><img class='i' src=images/squares/cyan.png><img class='h' src=images/squares/black.png><img class='l' src=images/squares/red.png><img class='k' src=images/squares/blue.png><div class=""fixation"">+</div>","null","","","memory","exp","15","","","","","","","","","","","",""
"html-keyboard-response","239","433224","0.0-5.0-5.0-2.15","69728435c9476fe76dd2ab2f","not_provided","desktop","0","0","1","","","","","","working_memory","","null","<div class=""fixation"">+</div>","null","","","","","","","","","","","","","","","","",""
"html-keyboard-response","240","434101","0.0-5.0-5.0-3.15","69728435c9476fe76dd2ab2f","not_provided","desktop","0","0","1","","","","","","working_memory","","877","<img class='b' src=images/squares/magenta.png><div class=""fixation"">+</div>","k","","","test_squares","exp","15","8","k","true","sk","d","","","","","","",""
"html-keyboard-response","241","434613","0.0-5.0-5.0-4.15","69728435c9476fe76dd2ab2f","not_provided","desktop","0","0","1","","","","","","working_memory","","null","<div class=""fixation"">Correct</div>","null","","","","","","","","","","","","","","","","",""
"html-keyboard-response","242","435626","0.0-5.0-5.0-0.16","69728435c9476fe76dd2ab2f","not_provided","desktop","0","0","1","","","","","","working_memory","","null","<div class=""fixation"">+</div>","null","","","","","","","","","","","","","","","","",""
"html-keyboard-response","243","435842","0.0-5.0-5.0-1.16","69728435c9476fe76dd2ab2f","not_provided","desktop","0","0","1","","","","","","working_memory","","null","<img class='a' src=images/squares/yellow.png><img class='b' src=images/squares/black.png><img class='e' src=images/squares/magenta.png><img class='f' src=images/squares/green.png><img class='g' src=images/squares/blue.png><img class='i' src=images/squares/red.png><img class='j' src=images/squares/cyan.png><img class='l' src=images/squares/orange.png><div class=""fixation"">+</div>","null","","","memory","exp","16","","","","","","","","","","","",""
"html-keyboard-response","244","436754","0.0-5.0-5.0-2.16","69728435c9476fe76dd2ab2f","not_provided","desktop","0","0","1","","","","","","working_memory","","null","<div class=""fixation"">+</div>","null","","","","","","","","","","","","","","","","",""
"html-keyboard-response","245","437557","0.0-5.0-5.0-3.16","69728435c9476fe76dd2ab2f","not_provided","desktop","0","0","1","","","","","","working_memory","","802","<img class='j' src=images/squares/cyan.png><div class=""fixation"">+</div>","k","","","test_squares","exp","16","8","s","false","sk","s","","","","","","",""
"html-keyboard-response","246","438071","0.0-5.0-5.0-4.16","69728435c9476fe76dd2ab2f","not_provided","desktop","0","0","1","","","","","","working_memory","","null","<div class=""fixation"">Incorrect</div>","null","","","","","","","","","","","","","","","","",""
"html-keyboard-response","247","439074","0.0-5.0-5.0-0.17","69728435c9476fe76dd2ab2f","not_provided","desktop","0","0","1","","","","","","working_memory","","null","<div class=""fixation"">+</div>","null","","","","","","","","","","","","","","","","",""
"html-keyboard-response","248","439277","0.0-5.0-5.0-1.17","69728435c9476fe76dd2ab2f","not_provided","desktop","0","0","1","","","","","","working_memory","","null","<img class='a' src=images/squares/brown.png><img class='e' src=images/squares/orange.png><img class='h' src=images/squares/green.png><img class='l' src=images/squares/yellow.png><div class=""fixation"">+</div>","null","","","memory","exp","17","","","","","","","","","","","",""
"html-keyboard-response","249","440185","0.0-5.0-5.0-2.17","69728435c9476fe76dd2ab2f","not_provided","desktop","0","0","1","","","","","","working_memory","","null","<div class=""fixation"">+</div>","null","","","","","","","","","","","","","","","","",""
"html-keyboard-response","250","441519","0.0-5.0-5.0-3.17","69728435c9476fe76dd2ab2f","not_provided","desktop","0","0","1","","","","","","working_memory","","1333","<img class='e' src=images/squares/orange.png><div class=""fixation"">+</div>","k","","","test_squares","exp","17","4","s","false","sk","s","","","","","","",""
"html-keyboard-response","251","442028","0.0-5.0-5.0-4.17","69728435c9476fe76dd2ab2f","not_provided","desktop","0","0","1","","","","","","working_memory","","null","<div class=""fixation"">Incorrect</div>","null","","","","","","","","","","","","","","","","",""
"html-keyboard-response","252","443042","0.0-5.0-5.0-0.18","69728435c9476fe76dd2ab2f","not_provided","desktop","0","0","1","","","","","","working_memory","","null","<div class=""fixation"">+</div>","null","","","","","","","","","","","","","","","","",""
"html-keyboard-response","253","443244","0.0-5.0-5.0-1.18","69728435c9476fe76dd2ab2f","not_provided","desktop","0","0","1","","","","","","working_memory","","null","<img class='c' src=images/squares/brown.png><img class='a' src=images/squares/blue.png><img class='d' src=images/squares/red.png><img class='e' src=images/squares/green.png><img class='g' src=images/squares/magenta.png><img class='h' src=images/squares/black.png><img class='k' src=images/squares/orange.png><img class='j' src=images/squares/cyan.png><div class=""fixation"">+</div>","null","","","memory","exp","18","","","","","","","","","","","",""
"html-keyboard-response","254","444154","0.0-5.0-5.0-2.18","69728435c9476fe76dd2ab2f","not_provided","desktop","0","0","1","","","","","","working_memory","","null","<div class=""fixation"">+</div>","null","","","","","","","","","","","","","","","","",""
"html-keyboard-response","255","445184","0.0-5.0-5.0-3.18","69728435c9476fe76dd2ab2f","not_provided","desktop","0","0","1","","","","","","working_memory","","1029","<img class='d' src=images/squares/yellow.png><div class=""fixation"">+</div>","k","","","test_squares","exp","18","8","k","true","sk","d","","","","","","",""
"html-keyboard-response","256","445688","0.0-5.0-5.0-4.18","69728435c9476fe76dd2ab2f","not_provided","desktop","0","0","1","","","","","","working_memory","","null","<div class=""fixation"">Correct</div>","null","","","","","","","","","","","","","","","","",""
"html-keyboard-response","257","446691","0.0-5.0-5.0-0.19","69728435c9476fe76dd2ab2f","not_provided","desktop","0","0","1","","","","","","working_memory","","null","<div class=""fixation"">+</div>","null","","","","","","","","","","","","","","","","",""
"html-keyboard-response","258","446894","0.0-5.0-5.0-1.19","69728435c9476fe76dd2ab2f","not_provided","desktop","0","0","1","","","","","","working_memory","","null","<img class='b' src=images/squares/orange.png><img class='c' src=images/squares/red.png><img class='d' src=images/squares/blue.png><img class='f' src=images/squares/cyan.png><img class='i' src=images/squares/magenta.png><img class='g' src=images/squares/brown.png><img class='l' src=images/squares/black.png><img class='k' src=images/squares/green.png><div class=""fixation"">+</div>","null","","","memory","exp","19","","","","","","","","","","","",""
"html-keyboard-response","259","447797","0.0-5.0-5.0-2.19","69728435c9476fe76dd2ab2f","not_provided","desktop","0","0","1","","","","","","working_memory","","null","<div class=""fixation"">+</div>","null","","","","","","","","","","","","","","","","",""
"html-keyboard-response","260","448613","0.0-5.0-5.0-3.19","69728435c9476fe76dd2ab2f","not_provided","desktop","0","0","1","","","","","","working_memory","","815","<img class='c' src=images/squares/red.png><div class=""fixation"">+</div>","s","","","test_squares","exp","19","8","s","true","sk","s","","","","","","",""
"html-keyboard-response","261","449124","0.0-5.0-5.0-4.19","69728435c9476fe76dd2ab2f","not_provided","desktop","0","0","1","","","","","","working_memory","","null","<div class=""fixation"">Correct</div>","null","","","","","","","","","","","","","","","","",""
"html-keyboard-response","262","450137","0.0-5.0-5.0-0.20","69728435c9476fe76dd2ab2f","not_provided","desktop","0","0","1","","","","","","working_memory","","null","<div class=""fixation"">+</div>","null","","","","","","","","","","","","","","","","",""
"html-keyboard-response","263","450340","0.0-5.0-5.0-1.20","69728435c9476fe76dd2ab2f","not_provided","desktop","0","0","1","","","","","","working_memory","","null","<img class='b' src=images/squares/blue.png><img class='e' src=images/squares/brown.png><img class='i' src=images/squares/cyan.png><img class='k' src=images/squares/orange.png><div class=""fixation"">+</div>","null","","","memory","exp","20","","","","","","","","","","","",""
"html-keyboard-response","264","451245","0.0-5.0-5.0-2.20","69728435c9476fe76dd2ab2f","not_provided","desktop","0","0","1","","","","","","working_memory","","null","<div class=""fixation"">+</div>","null","","","","","","","","","","","","","","","","",""
"html-keyboard-response","265","452311","0.0-5.0-5.0-3.20","69728435c9476fe76dd2ab2f","not_provided","desktop","0","0","1","","","","","","working_memory","","1065","<img class='b' src=images/squares/green.png><div class=""fixation"">+</div>","k","","","test_squares","exp","20","4","k","true","sk","d","","","","","","",""
"html-keyboard-response","266","452818","0.0-5.0-5.0-4.20","69728435c9476fe76dd2ab2f","not_provided","desktop","0","0","1","","","","","","working_memory","","null","<div class=""fixation"">Correct</div>","null","","","","","","","","","","","","","","","","",""
"html-keyboard-response","267","453819","0.0-5.0-5.0-0.21","69728435c9476fe76dd2ab2f","not_provided","desktop","0","0","1","","","","","","working_memory","","null","<div class=""fixation"">+</div>","null","","","","","","","","","","","","","","","","",""
"html-keyboard-response","268","454023","0.0-5.0-5.0-1.21","69728435c9476fe76dd2ab2f","not_provided","desktop","0","0","1","","","","","","working_memory","","null","<img class='b' src=images/squares/black.png><img class='e' src=images/squares/yellow.png><img class='g' src=images/squares/green.png><img class='l' src=images/squares/orange.png><div class=""fixation"">+</div>","null","","","memory","exp","21","","","","","","","","","","","",""
"html-keyboard-response","269","454930","0.0-5.0-5.0-2.21","69728435c9476fe76dd2ab2f","not_provided","desktop","0","0","1","","","","","","working_memory","","null","<div class=""fixation"">+</div>","null","","","","","","","","","","","","","","","","",""
"html-keyboard-response","270","456088","0.0-5.0-5.0-3.21","69728435c9476fe76dd2ab2f","not_provided","desktop","0","0","1","","","","","","working_memory","","1157","<img class='g' src=images/squares/green.png><div class=""fixation"">+</div>","s","","","test_squares","exp","21","4","s","true","sk","s","","","","","","",""
"html-keyboard-response","271","456598","0.0-5.0-5.0-4.21","69728435c9476fe76dd2ab2f","not_provided","desktop","0","0","1","","","","","","working_memory","","null","<div class=""fixation"">Correct</div>","null","","","","","","","","","","","","","","","","",""
"html-keyboard-response","272","457602","0.0-5.0-5.0-0.22","69728435c9476fe76dd2ab2f","not_provided","desktop","0","0","1","","","","","","working_memory","","null","<div class=""fixation"">+</div>","null","","","","","","","","","","","","","","","","",""
"html-keyboard-response","273","457804","0.0-5.0-5.0-1.22","69728435c9476fe76dd2ab2f","not_provided","desktop","0","0","1","","","","","","working_memory","","null","<img class='a' src=images/squares/brown.png><img class='c' src=images/squares/orange.png><img class='f' src=images/squares/black.png><img class='e' src=images/squares/green.png><img class='g' src=images/squares/cyan.png><img class='h' src=images/squares/yellow.png><img class='l' src=images/squares/red.png><img class='k' src=images/squares/magenta.png><div class=""fixation"">+</div>","null","","","memory","exp","22","","","","","","","","","","","",""
"html-keyboard-response","274","458711","0.0-5.0-5.0-2.22","69728435c9476fe76dd2ab2f","not_provided","desktop","0","0","1","","","","","","working_memory","","null","<div class=""fixation"">+</div>","null","","","","","","","","","","","","","","","","",""
"html-keyboard-response","275","459981","0.0-5.0-5.0-3.22","69728435c9476fe76dd2ab2f","not_provided","desktop","0","0","1","","","","","","working_memory","","1269","<img class='h' src=images/squares/blue.png><div class=""fixation"">+</div>","k","","","test_squares","exp","22","8","k","true","sk","d","","","","","","",""
"html-keyboard-response","276","460496","0.0-5.0-5.0-4.22","69728435c9476fe76dd2ab2f","not_provided","desktop","0","0","1","","","","","","working_memory","","null","<div class=""fixation"">Correct</div>","null","","","","","","","","","","","","","","","","",""
"html-keyboard-response","277","461511","0.0-5.0-5.0-0.23","69728435c9476fe76dd2ab2f","not_provided","desktop","0","0","1","","","","","","working_memory","","null","<div class=""fixation"">+</div>","null","","","","","","","","","","","","","","","","",""
"html-keyboard-response","278","461714","0.0-5.0-5.0-1.23","69728435c9476fe76dd2ab2f","not_provided","desktop","0","0","1","","","","","","working_memory","","null","<img class='c' src=images/squares/cyan.png><img class='f' src=images/squares/red.png><img class='g' src=images/squares/yellow.png><img class='k' src=images/squares/green.png><div class=""fixation"">+</div>","null","","","memory","exp","23","","","","","","","","","","","",""
"html-keyboard-response","279","462620","0.0-5.0-5.0-2.23","69728435c9476fe76dd2ab2f","not_provided","desktop","0","0","1","","","","","","working_memory","","null","<div class=""fixation"">+</div>","null","","","","","","","","","","","","","","","","",""
"html-keyboard-response","280","463999","0.0-5.0-5.0-3.23","69728435c9476fe76dd2ab2f","not_provided","desktop","0","0","1","","","","","","working_memory","","1378","<img class='f' src=images/squares/blue.png><div class=""fixation"">+</div>","k","","","test_squares","exp","23","4","k","true","sk","d","","","","","","",""
"html-keyboard-response","281","464505","0.0-5.0-5.0-4.23","69728435c9476fe76dd2ab2f","not_provided","desktop","0","0","1","","","","","","working_memory","","null","<div class=""fixation"">Correct</div>","null","","","","","","","","","","","","","","","","",""
"html-keyboard-response","282","465521","0.0-5.0-5.0-0.24","69728435c9476fe76dd2ab2f","not_provided","desktop","0","0","1","","","","","","working_memory","","null","<div class=""fixation"">+</div>","null","","","","","","","","","","","","","","","","",""
"html-keyboard-response","283","465724","0.0-5.0-5.0-1.24","69728435c9476fe76dd2ab2f","not_provided","desktop","0","0","1","","","","","","working_memory","","null","<img class='b' src=images/squares/black.png><img class='a' src=images/squares/green.png><img class='d' src=images/squares/magenta.png><img class='f' src=images/squares/orange.png><img class='g' src=images/squares/blue.png><img class='h' src=images/squares/red.png><img class='l' src=images/squares/cyan.png><img class='j' src=images/squares/brown.png><div class=""fixation"">+</div>","null","","","memory","exp","24","","","","","","","","","","","",""
"html-keyboard-response","284","466630","0.0-5.0-5.0-2.24","69728435c9476fe76dd2ab2f","not_provided","desktop","0","0","1","","","","","","working_memory","","null","<div class=""fixation"">+</div>","null","","","","","","","","","","","","","","","","",""
"html-keyboard-response","285","468224","0.0-5.0-5.0-3.24","69728435c9476fe76dd2ab2f","not_provided","desktop","0","0","1","","","","","","working_memory","","1593","<img class='l' src=images/squares/cyan.png><div class=""fixation"">+</div>","k","","","test_squares","exp","24","8","s","false","sk","s","","","","","","",""
"html-keyboard-response","286","468726","0.0-5.0-5.0-4.24","69728435c9476fe76dd2ab2f","not_provided","desktop","0","0","1","","","","","","working_memory","","null","<div class=""fixation"">Incorrect</div>","null","","","","","","","","","","","","","","","","",""
"html-keyboard-response","287","469729","0.0-5.0-5.0-0.25","69728435c9476fe76dd2ab2f","not_provided","desktop","0","0","1","","","","","","working_memory","","null","<div class=""fixation"">+</div>","null","","","","","","","","","","","","","","","","",""
"html-keyboard-response","288","469934","0.0-5.0-5.0-1.25","69728435c9476fe76dd2ab2f","not_provided","desktop","0","0","1","","","","","","working_memory","","null","<img class='b' src=images/squares/magenta.png><img class='c' src=images/squares/cyan.png><img class='f' src=images/squares/blue.png><img class='e' src=images/squares/green.png><img class='i' src=images/squares/black.png><img class='h' src=images/squares/yellow.png><img class='j' src=images/squares/red.png><img class='l' src=images/squares/orange.png><div class=""fixation"">+</div>","null","","","memory","exp","25","","","","","","","","","","","",""
"html-keyboard-response","289","470840","0.0-5.0-5.0-2.25","69728435c9476fe76dd2ab2f","not_provided","desktop","0","0","1","","","","","","working_memory","","null","<div class=""fixation"">+</div>","null","","","","","","","","","","","","","","","","",""
"html-keyboard-response","290","472391","0.0-5.0-5.0-3.25","69728435c9476fe76dd2ab2f","not_provided","desktop","0","0","1","","","","","","working_memory","","1550","<img class='e' src=images/squares/green.png><div class=""fixation"">+</div>","k","","","test_squares","exp","25","8","s","false","sk","s","","","","","","",""
"html-keyboard-response","291","472899","0.0-5.0-5.0-4.25","69728435c9476fe76dd2ab2f","not_provided","desktop","0","0","1","","","","","","working_memory","","null","<div class=""fixation"">Incorrect</div>","null","","","","","","","","","","","","","","","","",""
"html-keyboard-response","292","473914","0.0-5.0-5.0-0.26","69728435c9476fe76dd2ab2f","not_provided","desktop","0","0","1","","","","","","working_memory","","null","<div class=""fixation"">+</div>","null","","","","","","","","","","","","","","","","",""
"html-keyboard-response","293","474119","0.0-5.0-5.0-1.26","69728435c9476fe76dd2ab2f","not_provided","desktop","0","0","1","","","","","","working_memory","","null","<img class='c' src=images/squares/magenta.png><img class='d' src=images/squares/brown.png><img class='i' src=images/squares/cyan.png><img class='l' src=images/squares/blue.png><div class=""fixation"">+</div>","null","","","memory","exp","26","","","","","","","","","","","",""
"html-keyboard-response","294","475026","0.0-5.0-5.0-2.26","69728435c9476fe76dd2ab2f","not_provided","desktop","0","0","1","","","","","","working_memory","","null","<div class=""fixation"">+</div>","null","","","","","","","","","","","","","","","","",""
"html-keyboard-response","295","475951","0.0-5.0-5.0-3.26","69728435c9476fe76dd2ab2f","not_provided","desktop","0","0","1","","","","","","working_memory","","924","<img class='l' src=images/squares/blue.png><div class=""fixation"">+</div>","s","","","test_squares","exp","26","4","s","true","sk","s","","","","","","",""
"html-keyboard-response","296","476463","0.0-5.0-5.0-4.26","69728435c9476fe76dd2ab2f","not_provided","desktop","0","0","1","","","","","","working_memory","","null","<div class=""fixation"">Correct</div>","null","","","","","","","","","","","","","","","","",""
"html-keyboard-response","297","477465","0.0-5.0-5.0-0.27","69728435c9476fe76dd2ab2f","not_provided","desktop","0","0","1","","","","","","working_memory","","null","<div class=""fixation"">+</div>","null","","","","","","","","","","","","","","","","",""
"html-keyboard-response","298","477669","0.0-5.0-5.0-1.27","69728435c9476fe76dd2ab2f","not_provided","desktop","0","0","1","","","","","","working_memory","","null","<img class='c' src=images/squares/red.png><img class='e' src=images/squares/blue.png><img class='h' src=images/squares/cyan.png><img class='l' src=images/squares/green.png><div class=""fixation"">+</div>","null","","","memory","exp","27","","","","","","","","","","","",""
"html-keyboard-response","299","478572","0.0-5.0-5.0-2.27","69728435c9476fe76dd2ab2f","not_provided","desktop","0","0","1","","","","","","working_memory","","null","<div class=""fixation"">+</div>","null","","","","","","","","","","","","","","","","",""
"html-keyboard-response","300","479584","0.0-5.0-5.0-3.27","69728435c9476fe76dd2ab2f","not_provided","desktop","0","0","1","","","","","","working_memory","","1011","<img class='h' src=images/squares/cyan.png><div class=""fixation"">+</div>","k","","","test_squares","exp","27","4","s","false","sk","s","","","","","","",""
"html-keyboard-response","301","480087","0.0-5.0-5.0-4.27","69728435c9476fe76dd2ab2f","not_provided","desktop","0","0","1","","","","","","working_memory","","null","<div class=""fixation"">Incorrect</div>","null","","","","","","","","","","","","","","","","",""
"html-keyboard-response","302","481101","0.0-5.0-5.0-0.28","69728435c9476fe76dd2ab2f","not_provided","desktop","0","0","1","","","","","","working_memory","","null","<div class=""fixation"">+</div>","null","","","","","","","","","","","","","","","","",""
"html-keyboard-response","303","481302","0.0-5.0-5.0-1.28","69728435c9476fe76dd2ab2f","not_provided","desktop","0","0","1","","","","","","working_memory","","null","<img class='c' src=images/squares/black.png><img class='d' src=images/squares/yellow.png><img class='i' src=images/squares/brown.png><img class='l' src=images/squares/cyan.png><div class=""fixation"">+</div>","null","","","memory","exp","28","","","","","","","","","","","",""
