"trial_type","trial_index","time_elapsed","internal_node_id","subject_id","study_id","device_type","blur_count","fullscreen_exit_count","failed_attention_checks","success","timeout","failed_images","failed_audio","failed_video","phase","value","rt","stimulus","response","view_history","question_order","trial_name","block_type","trial_num","set_size","correct_response","accuracy","mapping","condition","prompt","flipped","attention","expected_answer","category","question_index","task"
"pavlovia","0","1321","0.0-0.0","69829236d776a93cf3afa632","not_provided","desktop","0","0","0","","","","","","","","","","","","","","","","","","","","","","","","","","",""
"preload","1","1669","0.0-2.0","69829236d776a93cf3afa632","not_provided","desktop","0","0","0","true","false","[]","[]","[]","","","","","","","","","","","","","","","","","","","","","",""
"html-keyboard-response","2","8220","0.0-3.0-0.0","69829236d776a93cf3afa632","not_provided","desktop","0","0","0","","","","","","captcha","","","","","","","","","","","","","","","","","","","","",""
"fullscreen","3","19590","0.0-4.0","69829236d776a93cf3afa632","not_provided","desktop","0","0","0","true","","","","","setup","","","","","","","","","","","","","","","","","","","","",""
"call-function","4","19590","0.0-5.0-0.0","69829236d776a93cf3afa632","not_provided","desktop","0","0","0","","","","","","working_memory","","","","","","","","","","","","","","","","","","","","",""
"html-keyboard-response","5","40654","0.0-5.0-1.0","69829236d776a93cf3afa632","not_provided","desktop","0","0","0","","","","","","working_memory","","21064","<div style=""text-align:center;font-family:sans-serif;""><p>Welcome to the luck game experiment!</p><p>This two-day experiment takes part in a study aimed at developing better clinical treatments.</p><p>We appreciate your participation and require your full concentration.</p><br><p>This is a two-day study. Payment (£6/hour) is only given upon completing both parts today and tomorrow.</p><p>You must finish the second part for compensation. After today, you'll receive an invitation for tomorrow's session.</p><p>Please ensure you can attend both sessions before proceeding. Otherwise, you may exit now.</p><p>If you have any questions, please contact us via prolific.</p><br><p>Please stay attentive and in fullscreen mode to ensure payment.</p><p>Thank you for participating!</p><br><p id=""continue-prompt"" style=""visibility:hidden;""><b>Press any key to continue.</b></p></div>"," ","","","","","","","","","","","","","","","","",""
"instructions","6","97498","0.0-5.0-2.0-0.0","69829236d776a93cf3afa632","not_provided","desktop","0","0","0","","","","","","working_memory","","56843","","","[{""page_index"":0,""viewing_time"":2562},{""page_index"":1,""viewing_time"":3849},{""page_index"":2,""viewing_time"":5406},{""page_index"":3,""viewing_time"":4595},{""page_index"":4,""viewing_time"":7504},{""page_index"":5,""viewing_time"":10601},{""page_index"":6,""viewing_time"":13067},{""page_index"":7,""viewing_time"":5000},{""page_index"":8,""viewing_time"":4259}]","","","","","","","","","","","","","","","",""
"survey-multi-choice","7","116599","0.0-5.0-2.0-1.0","69829236d776a93cf3afa632","not_provided","desktop","0","0","0","","","","","","working_memory","","19100","","{""set_size"":""4 or 8"",""steps"":""True"",""choose_square"":""Press the 's' or 'k' key."",""remember"":""The colors and locations of the 'memory' squares"",""task"":""To tell if the 'test' square is in the same color as the square previously appearing in this location""}","","[0,1,2,3,4]","test_squares_quiz","","","","","","","","","","","","","",""
"html-keyboard-response","8","125814","0.0-5.0-3.0-0.0","69829236d776a93cf3afa632","not_provided","desktop","0","0","0","","","","","","working_memory","","9215","<p>We will now start some practice trials.<br><b>The practice trials will also include some trials in which you will need to remember only one square to make sure you understood the instructions.</b><br>You may already want to be ready with your fingers on '<b>s</b>' and '<b>k</b>'.<br><img class=""wm-example-img"" src=""images/examples/keyboard.png""><br><b style=""font-size:1.2em;"">&lsquo;S&rsquo; = SAME &nbsp;&nbsp;&nbsp; &lsquo;K&rsquo; = DIFFERENT</b><br><br><u>Please try to be as accurate as possible.</u><br><br><b>Press any key to begin</b></p>","k","","","","","","","","","","","","","","","","",""
"html-keyboard-response","9","127823","0.0-5.0-3.0-1.0-0.0","69829236d776a93cf3afa632","not_provided","desktop","0","0","0","","","","","","working_memory","","null","<div class=""fixation"">+</div>","null","","","","","","","","","","","","","","","","",""
"html-keyboard-response","10","128038","0.0-5.0-3.0-1.0-1.0","69829236d776a93cf3afa632","not_provided","desktop","0","0","0","","","","","","working_memory","","null","<img class='upper2' src=images/squares/magenta.png><div class=""fixation"">+</div>","null","","","memory","practice","0","1","","","","","","","","","","",""
"html-keyboard-response","11","128944","0.0-5.0-3.0-1.0-2.0","69829236d776a93cf3afa632","not_provided","desktop","0","0","0","","","","","","working_memory","","null","<div class=""fixation"">+</div>","null","","","","","","","","","","","","","","","","",""
"html-keyboard-response","12","129280","0.0-5.0-3.0-1.0-3.0","69829236d776a93cf3afa632","not_provided","desktop","0","0","0","","","","","","working_memory","","336","<img class='upper2' src=images/squares/magenta.png><div class=""fixation"">+</div>","s","","","test","practice","0","1","s","true","","","","","","","","",""
"html-keyboard-response","13","129790","0.0-5.0-3.0-1.0-4.0","69829236d776a93cf3afa632","not_provided","desktop","0","0","0","","","","","","working_memory","","null","<div class=""fixation"">Correct</div>","null","","","","","","","","","","","","","","","","",""
"html-keyboard-response","14","130794","0.0-5.0-3.0-1.0-0.1","69829236d776a93cf3afa632","not_provided","desktop","0","0","0","","","","","","working_memory","","null","<div class=""fixation"">+</div>","null","","","","","","","","","","","","","","","","",""
"html-keyboard-response","15","130994","0.0-5.0-3.0-1.0-1.1","69829236d776a93cf3afa632","not_provided","desktop","0","0","0","","","","","","working_memory","","null","<img class='a' src=images/squares/green.png><img class='c' src=images/squares/cyan.png><img class='e' src=images/squares/blue.png><img class='f' src=images/squares/red.png><img class='h' src=images/squares/black.png><img class='i' src=images/squares/brown.png><img class='k' src=images/squares/magenta.png><img class='j' src=images/squares/yellow.png><div class=""fixation"">+</div>","null","","","memory","practice","1","8","","","","","","","","","","",""
"html-keyboard-response","16","131910","0.0-5.0-3.0-1.0-2.1","69829236d776a93cf3afa632","not_provided","desktop","0","0","0","","","","","","working_memory","","null","<div class=""fixation"">+</div>","null","","","","","","","","","","","","","","","","",""
"html-keyboard-response","17","132471","0.0-5.0-3.0-1.0-3.1","69829236d776a93cf3afa632","not_provided","desktop","0","0","0","","","","","","working_memory","","561","<img class='c' src=images/squares/orange.png><div class=""fixation"">+</div>","k","","","test","practice","1","8","k","true","","","","","","","","",""
"html-keyboard-response","18","132983","0.0-5.0-3.0-1.0-4.1","69829236d776a93cf3afa632","not_provided","desktop","0","0","0","","","","","","working_memory","","null","<div class=""fixation"">Correct</div>","null","","","","","","","","","","","","","","","","",""
"html-keyboard-response","19","133990","0.0-5.0-3.0-1.0-0.2","69829236d776a93cf3afa632","not_provided","desktop","0","0","0","","","","","","working_memory","","null","<div class=""fixation"">+</div>","null","","","","","","","","","","","","","","","","",""
"html-keyboard-response","20","134191","0.0-5.0-3.0-1.0-1.2","69829236d776a93cf3afa632","not_provided","desktop","0","0","0","","","","","","working_memory","","null","<img class='b' src=images/squares/orange.png><img class='f' src=images/squares/magenta.png><img class='h' src=images/squares/red.png><img class='k' src=images/squares/cyan.png><div class=""fixation"">+</div>","null","","","memory","practice","2","4","","","","","","","","","","",""
"html-keyboard-response","21","135107","0.0-5.0-3.0-1.0-2.2","69829236d776a93cf3afa632","not_provided","desktop","0","0","0","","","","","","working_memory","","null","<div class=""fixation"">+</div>","null","","","","","","","","","","","","","","","","",""
"html-keyboard-response","22","135778","0.0-5.0-3.0-1.0-3.2","69829236d776a93cf3afa632","not_provided","desktop","0","0","0","","","","","","working_memory","","671","<img class='h' src=images/squares/yellow.png><div class=""fixation"">+</div>","k","","","test","practice","2","4","k","true","","","","","","","","",""
"html-keyboard-response","23","136281","0.0-5.0-3.0-1.0-4.2","69829236d776a93cf3afa632","not_provided","desktop","0","0","0","","","","","","working_memory","","null","<div class=""fixation"">Correct</div>","null","","","","","","","","","","","","","","","","",""
"html-keyboard-response","24","137293","0.0-5.0-3.0-1.0-0.3","69829236d776a93cf3afa632","not_provided","desktop","0","0","0","","","","","","working_memory","","null","<div class=""fixation"">+</div>","null","","","","","","","","","","","","","","","","",""
"html-keyboard-response","25","137507","0.0-5.0-3.0-1.0-1.3","69829236d776a93cf3afa632","not_provided","desktop","0","0","0","","","","","","working_memory","","null","<img class='a' src=images/squares/brown.png><img class='e' src=images/squares/magenta.png><img class='h' src=images/squares/orange.png><img class='k' src=images/squares/red.png><div class=""fixation"">+</div>","null","","","memory","practice","3","4","","","","","","","","","","",""
"html-keyboard-response","26","138416","0.0-5.0-3.0-1.0-2.3","69829236d776a93cf3afa632","not_provided","desktop","0","0","0","","","","","","working_memory","","null","<div class=""fixation"">+</div>","null","","","","","","","","","","","","","","","","",""
"html-keyboard-response","27","139034","0.0-5.0-3.0-1.0-3.3","69829236d776a93cf3afa632","not_provided","desktop","0","0","0","","","","","","working_memory","","618","<img class='h' src=images/squares/blue.png><div class=""fixation"">+</div>","k","","","test","practice","3","4","k","true","","","","","","","","",""
"html-keyboard-response","28","139548","0.0-5.0-3.0-1.0-4.3","69829236d776a93cf3afa632","not_provided","desktop","0","0","0","","","","","","working_memory","","null","<div class=""fixation"">Correct</div>","null","","","","","","","","","","","","","","","","",""
"html-keyboard-response","29","140562","0.0-5.0-3.0-1.0-0.4","69829236d776a93cf3afa632","not_provided","desktop","0","0","0","","","","","","working_memory","","null","<div class=""fixation"">+</div>","null","","","","","","","","","","","","","","","","",""
"html-keyboard-response","30","140763","0.0-5.0-3.0-1.0-1.4","69829236d776a93cf3afa632","not_provided","desktop","0","0","0","","","","","","working_memory","","null","<img class='c' src=images/squares/cyan.png><img class='f' src=images/squares/magenta.png><img class='g' src=images/squares/red.png><img class='k' src=images/squares/green.png><div class=""fixation"">+</div>","null","","","memory","practice","4","4","","","","","","","","","","",""
"html-keyboard-response","31","141673","0.0-5.0-3.0-1.0-2.4","69829236d776a93cf3afa632","not_provided","desktop","0","0","0","","","","","","working_memory","","null","<div class=""fixation"">+</div>","null","","","","","","","","","","","","","","","","",""
"html-keyboard-response","32","142156","0.0-5.0-3.0-1.0-3.4","69829236d776a93cf3afa632","not_provided","desktop","0","0","0","","","","","","working_memory","","483","<img class='g' src=images/squares/red.png><div class=""fixation"">+</div>","s","","","test","practice","4","4","s","true","","","","","","","","",""
"html-keyboard-response","33","142662","0.0-5.0-3.0-1.0-4.4","69829236d776a93cf3afa632","not_provided","desktop","0","0","0","","","","","","working_memory","","null","<div class=""fixation"">Correct</div>","null","","","","","","","","","","","","","","","","",""
"html-keyboard-response","34","143677","0.0-5.0-3.0-1.0-0.5","69829236d776a93cf3afa632","not_provided","desktop","0","0","0","","","","","","working_memory","","null","<div class=""fixation"">+</div>","null","","","","","","","","","","","","","","","","",""
"html-keyboard-response","35","143891","0.0-5.0-3.0-1.0-1.5","69829236d776a93cf3afa632","not_provided","desktop","0","0","0","","","","","","working_memory","","null","<img class='upper2' src=images/squares/magenta.png><div class=""fixation"">+</div>","null","","","memory","practice","5","1","","","","","","","","","","",""
"html-keyboard-response","36","144796","0.0-5.0-3.0-1.0-2.5","69829236d776a93cf3afa632","not_provided","desktop","0","0","0","","","","","","working_memory","","null","<div class=""fixation"">+</div>","null","","","","","","","","","","","","","","","","",""
"html-keyboard-response","37","145127","0.0-5.0-3.0-1.0-3.5","69829236d776a93cf3afa632","not_provided","desktop","0","0","0","","","","","","working_memory","","331","<img class='upper2' src=images/squares/blue.png><div class=""fixation"">+</div>","k","","","test","practice","5","1","k","true","","","","","","","","",""
"html-keyboard-response","38","145640","0.0-5.0-3.0-1.0-4.5","69829236d776a93cf3afa632","not_provided","desktop","0","0","0","","","","","","working_memory","","null","<div class=""fixation"">Correct</div>","null","","","","","","","","","","","","","","","","",""
"html-keyboard-response","39","146643","0.0-5.0-3.0-1.0-0.6","69829236d776a93cf3afa632","not_provided","desktop","0","0","0","","","","","","working_memory","","null","<div class=""fixation"">+</div>","null","","","","","","","","","","","","","","","","",""
"html-keyboard-response","40","146844","0.0-5.0-3.0-1.0-1.6","69829236d776a93cf3afa632","not_provided","desktop","0","0","0","","","","","","working_memory","","null","<img class='c' src=images/squares/cyan.png><img class='d' src=images/squares/red.png><img class='i' src=images/squares/yellow.png><img class='j' src=images/squares/black.png><div class=""fixation"">+</div>","null","","","memory","practice","6","4","","","","","","","","","","",""
"html-keyboard-response","41","147753","0.0-5.0-3.0-1.0-2.6","69829236d776a93cf3afa632","not_provided","desktop","0","0","0","","","","","","working_memory","","null","<div class=""fixation"">+</div>","null","","","","","","","","","","","","","","","","",""
"html-keyboard-response","42","148425","0.0-5.0-3.0-1.0-3.6","69829236d776a93cf3afa632","not_provided","desktop","0","0","0","","","","","","working_memory","","672","<img class='j' src=images/squares/black.png><div class=""fixation"">+</div>","k","","","test","practice","6","4","s","false","","","","","","","","",""
"html-keyboard-response","43","148937","0.0-5.0-3.0-1.0-4.6","69829236d776a93cf3afa632","not_provided","desktop","0","0","0","","","","","","working_memory","","null","<div class=""fixation"">Incorrect</div>","null","","","","","","","","","","","","","","","","",""
"html-keyboard-response","44","149943","0.0-5.0-3.0-1.0-0.7","69829236d776a93cf3afa632","not_provided","desktop","0","0","0","","","","","","working_memory","","null","<div class=""fixation"">+</div>","null","","","","","","","","","","","","","","","","",""
"html-keyboard-response","45","150157","0.0-5.0-3.0-1.0-1.7","69829236d776a93cf3afa632","not_provided","desktop","0","0","0","","","","","","working_memory","","null","<img class='a' src=images/squares/black.png><img class='b' src=images/squares/orange.png><img class='e' src=images/squares/magenta.png><img class='d' src=images/squares/brown.png><img class='h' src=images/squares/cyan.png><img class='i' src=images/squares/blue.png><img class='l' src=images/squares/red.png><img class='j' src=images/squares/yellow.png><div class=""fixation"">+</div>","null","","","memory","practice","7","8","","","","","","","","","","",""
"html-keyboard-response","46","151066","0.0-5.0-3.0-1.0-2.7","69829236d776a93cf3afa632","not_provided","desktop","0","0","0","","","","","","working_memory","","null","<div class=""fixation"">+</div>","null","","","","","","","","","","","","","","","","",""
"html-keyboard-response","47","152261","0.0-5.0-3.0-1.0-3.7","69829236d776a93cf3afa632","not_provided","desktop","0","0","0","","","","","","working_memory","","1195","<img class='h' src=images/squares/cyan.png><div class=""fixation"">+</div>","k","","","test","practice","7","8","s","false","","","","","","","","",""
"html-keyboard-response","48","152763","0.0-5.0-3.0-1.0-4.7","69829236d776a93cf3afa632","not_provided","desktop","0","0","0","","","","","","working_memory","","null","<div class=""fixation"">Incorrect</div>","null","","","","","","","","","","","","","","","","",""
"html-keyboard-response","49","153768","0.0-5.0-3.0-1.0-0.8","69829236d776a93cf3afa632","not_provided","desktop","0","0","0","","","","","","working_memory","","null","<div class=""fixation"">+</div>","null","","","","","","","","","","","","","","","","",""
"html-keyboard-response","50","153971","0.0-5.0-3.0-1.0-1.8","69829236d776a93cf3afa632","not_provided","desktop","0","0","0","","","","","","working_memory","","null","<img class='a' src=images/squares/cyan.png><img class='b' src=images/squares/blue.png><img class='d' src=images/squares/orange.png><img class='e' src=images/squares/brown.png><img class='g' src=images/squares/green.png><img class='h' src=images/squares/red.png><img class='j' src=images/squares/black.png><img class='k' src=images/squares/yellow.png><div class=""fixation"">+</div>","null","","","memory","practice","8","8","","","","","","","","","","",""
"html-keyboard-response","51","154878","0.0-5.0-3.0-1.0-2.8","69829236d776a93cf3afa632","not_provided","desktop","0","0","0","","","","","","working_memory","","null","<div class=""fixation"">+</div>","null","","","","","","","","","","","","","","","","",""
"html-keyboard-response","52","155896","0.0-5.0-3.0-1.0-3.8","69829236d776a93cf3afa632","not_provided","desktop","0","0","0","","","","","","working_memory","","1018","<img class='e' src=images/squares/brown.png><div class=""fixation"">+</div>","k","","","test","practice","8","8","s","false","","","","","","","","",""
"html-keyboard-response","53","156405","0.0-5.0-3.0-1.0-4.8","69829236d776a93cf3afa632","not_provided","desktop","0","0","0","","","","","","working_memory","","null","<div class=""fixation"">Incorrect</div>","null","","","","","","","","","","","","","","","","",""
"html-keyboard-response","54","157409","0.0-5.0-3.0-1.0-0.9","69829236d776a93cf3afa632","not_provided","desktop","0","0","0","","","","","","working_memory","","null","<div class=""fixation"">+</div>","null","","","","","","","","","","","","","","","","",""
"html-keyboard-response","55","157611","0.0-5.0-3.0-1.0-1.9","69829236d776a93cf3afa632","not_provided","desktop","0","0","0","","","","","","working_memory","","null","<img class='a' src=images/squares/blue.png><img class='c' src=images/squares/red.png><img class='e' src=images/squares/brown.png><img class='f' src=images/squares/orange.png><img class='g' src=images/squares/magenta.png><img class='h' src=images/squares/yellow.png><img class='j' src=images/squares/black.png><img class='l' src=images/squares/cyan.png><div class=""fixation"">+</div>","null","","","memory","practice","9","8","","","","","","","","","","",""
"html-keyboard-response","56","158519","0.0-5.0-3.0-1.0-2.9","69829236d776a93cf3afa632","not_provided","desktop","0","0","0","","","","","","working_memory","","null","<div class=""fixation"">+</div>","null","","","","","","","","","","","","","","","","",""
"html-keyboard-response","57","159195","0.0-5.0-3.0-1.0-3.9","69829236d776a93cf3afa632","not_provided","desktop","0","0","0","","","","","","working_memory","","676","<img class='l' src=images/squares/cyan.png><div class=""fixation"">+</div>","s","","","test","practice","9","8","s","true","","","","","","","","",""
"html-keyboard-response","58","159702","0.0-5.0-3.0-1.0-4.9","69829236d776a93cf3afa632","not_provided","desktop","0","0","0","","","","","","working_memory","","null","<div class=""fixation"">Correct</div>","null","","","","","","","","","","","","","","","","",""
"html-keyboard-response","59","160714","0.0-5.0-3.0-1.0-0.10","69829236d776a93cf3afa632","not_provided","desktop","0","0","0","","","","","","working_memory","","null","<div class=""fixation"">+</div>","null","","","","","","","","","","","","","","","","",""
"html-keyboard-response","60","160928","0.0-5.0-3.0-1.0-1.10","69829236d776a93cf3afa632","not_provided","desktop","0","0","0","","","","","","working_memory","","null","<img class='b' src=images/squares/orange.png><img class='e' src=images/squares/blue.png><img class='h' src=images/squares/black.png><img class='k' src=images/squares/magenta.png><div class=""fixation"">+</div>","null","","","memory","practice","10","4","","","","","","","","","","",""
"html-keyboard-response","61","161836","0.0-5.0-3.0-1.0-2.10","69829236d776a93cf3afa632","not_provided","desktop","0","0","0","","","","","","working_memory","","null","<div class=""fixation"">+</div>","null","","","","","","","","","","","","","","","","",""
"html-keyboard-response","62","162317","0.0-5.0-3.0-1.0-3.10","69829236d776a93cf3afa632","not_provided","desktop","0","0","0","","","","","","working_memory","","480","<img class='b' src=images/squares/orange.png><div class=""fixation"">+</div>","s","","","test","practice","10","4","s","true","","","","","","","","",""
"html-keyboard-response","63","162822","0.0-5.0-3.0-1.0-4.10","69829236d776a93cf3afa632","not_provided","desktop","0","0","0","","","","","","working_memory","","null","<div class=""fixation"">Correct</div>","null","","","","","","","","","","","","","","","","",""
"html-keyboard-response","64","163830","0.0-5.0-3.0-1.0-0.11","69829236d776a93cf3afa632","not_provided","desktop","0","0","0","","","","","","working_memory","","null","<div class=""fixation"">+</div>","null","","","","","","","","","","","","","","","","",""
"html-keyboard-response","65","164043","0.0-5.0-3.0-1.0-1.11","69829236d776a93cf3afa632","not_provided","desktop","0","0","0","","","","","","working_memory","","null","<img class='c' src=images/squares/blue.png><img class='d' src=images/squares/magenta.png><img class='i' src=images/squares/brown.png><img class='l' src=images/squares/yellow.png><div class=""fixation"">+</div>","null","","","memory","practice","11","4","","","","","","","","","","",""
"html-keyboard-response","66","164951","0.0-5.0-3.0-1.0-2.11","69829236d776a93cf3afa632","not_provided","desktop","0","0","0","","","","","","working_memory","","null","<div class=""fixation"">+</div>","null","","","","","","","","","","","","","","","","",""
"html-keyboard-response","67","165516","0.0-5.0-3.0-1.0-3.11","69829236d776a93cf3afa632","not_provided","desktop","0","0","0","","","","","","working_memory","","565","<img class='i' src=images/squares/green.png><div class=""fixation"">+</div>","k","","","test","practice","11","4","k","true","","","","","","","","",""
"html-keyboard-response","68","166017","0.0-5.0-3.0-1.0-4.11","69829236d776a93cf3afa632","not_provided","desktop","0","0","0","","","","","","working_memory","","null","<div class=""fixation"">Correct</div>","null","","","","","","","","","","","","","","","","",""
"html-keyboard-response","69","167028","0.0-5.0-3.0-1.0-0.12","69829236d776a93cf3afa632","not_provided","desktop","0","0","0","","","","","","working_memory","","null","<div class=""fixation"">+</div>","null","","","","","","","","","","","","","","","","",""
"html-keyboard-response","70","167231","0.0-5.0-3.0-1.0-1.12","69829236d776a93cf3afa632","not_provided","desktop","0","0","0","","","","","","working_memory","","null","<img class='b' src=images/squares/green.png><img class='d' src=images/squares/red.png><img class='i' src=images/squares/blue.png><img class='j' src=images/squares/yellow.png><div class=""fixation"">+</div>","null","","","memory","practice","12","4","","","","","","","","","","",""
"html-keyboard-response","71","168140","0.0-5.0-3.0-1.0-2.12","69829236d776a93cf3afa632","not_provided","desktop","0","0","0","","","","","","working_memory","","null","<div class=""fixation"">+</div>","null","","","","","","","","","","","","","","","","",""
"html-keyboard-response","72","169041","0.0-5.0-3.0-1.0-3.12","69829236d776a93cf3afa632","not_provided","desktop","0","0","0","","","","","","working_memory","","901","<img class='j' src=images/squares/black.png><div class=""fixation"">+</div>","k","","","test","practice","12","4","k","true","","","","","","","","",""
"html-keyboard-response","73","169545","0.0-5.0-3.0-1.0-4.12","69829236d776a93cf3afa632","not_provided","desktop","0","0","0","","","","","","working_memory","","null","<div class=""fixation"">Correct</div>","null","","","","","","","","","","","","","","","","",""
"html-keyboard-response","74","170558","0.0-5.0-3.0-1.0-0.13","69829236d776a93cf3afa632","not_provided","desktop","0","0","0","","","","","","working_memory","","null","<div class=""fixation"">+</div>","null","","","","","","","","","","","","","","","","",""
"html-keyboard-response","75","170766","0.0-5.0-3.0-1.0-1.13","69829236d776a93cf3afa632","not_provided","desktop","0","0","0","","","","","","working_memory","","null","<img class='b' src=images/squares/magenta.png><img class='a' src=images/squares/black.png><img class='f' src=images/squares/brown.png><img class='e' src=images/squares/blue.png><img class='h' src=images/squares/orange.png><img class='g' src=images/squares/cyan.png><img class='j' src=images/squares/red.png><img class='k' src=images/squares/yellow.png><div class=""fixation"">+</div>","null","","","memory","practice","13","8","","","","","","","","","","",""
"html-keyboard-response","76","171680","0.0-5.0-3.0-1.0-2.13","69829236d776a93cf3afa632","not_provided","desktop","0","0","0","","","","","","working_memory","","null","<div class=""fixation"">+</div>","null","","","","","","","","","","","","","","","","",""
"html-keyboard-response","77","172474","0.0-5.0-3.0-1.0-3.13","69829236d776a93cf3afa632","not_provided","desktop","0","0","0","","","","","","working_memory","","794","<img class='h' src=images/squares/orange.png><div class=""fixation"">+</div>","k","","","test","practice","13","8","s","false","","","","","","","","",""
"html-keyboard-response","78","172988","0.0-5.0-3.0-1.0-4.13","69829236d776a93cf3afa632","not_provided","desktop","0","0","0","","","","","","working_memory","","null","<div class=""fixation"">Incorrect</div>","null","","","","","","","","","","","","","","","","",""
"html-keyboard-response","79","173996","0.0-5.0-3.0-1.0-0.14","69829236d776a93cf3afa632","not_provided","desktop","0","0","0","","","","","","working_memory","","null","<div class=""fixation"">+</div>","null","","","","","","","","","","","","","","","","",""
"html-keyboard-response","80","174211","0.0-5.0-3.0-1.0-1.14","69829236d776a93cf3afa632","not_provided","desktop","0","0","0","","","","","","working_memory","","null","<img class='a' src=images/squares/blue.png><img class='b' src=images/squares/cyan.png><img class='e' src=images/squares/brown.png><img class='d' src=images/squares/orange.png><img class='h' src=images/squares/magenta.png><img class='g' src=images/squares/green.png><img class='j' src=images/squares/black.png><img class='l' src=images/squares/red.png><div class=""fixation"">+</div>","null","","","memory","practice","14","8","","","","","","","","","","",""
"html-keyboard-response","81","175120","0.0-5.0-3.0-1.0-2.14","69829236d776a93cf3afa632","not_provided","desktop","0","0","0","","","","","","working_memory","","null","<div class=""fixation"">+</div>","null","","","","","","","","","","","","","","","","",""
"html-keyboard-response","82","175874","0.0-5.0-3.0-1.0-3.14","69829236d776a93cf3afa632","not_provided","desktop","0","0","0","","","","","","working_memory","","754","<img class='j' src=images/squares/black.png><div class=""fixation"">+</div>","s","","","test","practice","14","8","s","true","","","","","","","","",""
"html-keyboard-response","83","176381","0.0-5.0-3.0-1.0-4.14","69829236d776a93cf3afa632","not_provided","desktop","0","0","0","","","","","","working_memory","","null","<div class=""fixation"">Correct</div>","null","","","","","","","","","","","","","","","","",""
"html-keyboard-response","84","186259","0.0-5.0-4.0","69829236d776a93cf3afa632","not_provided","desktop","0","0","0","","","","","","working_memory","","9878","<div style=""text-align:center;font-family:sans-serif;""><p>Good job! You have finished the practice.</p><p>We will now start the real experiment.</p><p>Please try to be as accurate as possible.</p><p><b><u>Note: random guessing may risk your payment.</u></b></p><br><p><b>Press any key to begin.</b></p></div>","s","","","","","","","","","","","","","","","","",""
"html-keyboard-response","85","187263","0.0-5.0-5.0-0.0","69829236d776a93cf3afa632","not_provided","desktop","0","0","0","","","","","","working_memory","","null","<div class=""fixation"">+</div>","null","","","","","","","","","","","","","","","","",""
"html-keyboard-response","86","187474","0.0-5.0-5.0-1.0","69829236d776a93cf3afa632","not_provided","desktop","0","0","0","","","","","","working_memory","","null","<img class='a' src=images/squares/orange.png><img class='b' src=images/squares/black.png><img class='f' src=images/squares/blue.png><img class='e' src=images/squares/cyan.png><img class='g' src=images/squares/brown.png><img class='i' src=images/squares/red.png><img class='l' src=images/squares/yellow.png><img class='j' src=images/squares/magenta.png><div class=""fixation"">+</div>","null","","","memory","exp","0","","","","","","","","","","","",""
"html-keyboard-response","87","188378","0.0-5.0-5.0-2.0","69829236d776a93cf3afa632","not_provided","desktop","0","0","0","","","","","","working_memory","","null","<div class=""fixation"">+</div>","null","","","","","","","","","","","","","","","","",""
"html-keyboard-response","88","188886","0.0-5.0-5.0-3.0","69829236d776a93cf3afa632","not_provided","desktop","0","0","0","","","","","","working_memory","","508","<img class='b' src=images/squares/green.png><div class=""fixation"">+</div>","k","","","test_squares","exp","0","8","k","true","sk","d","","","","","","",""
"html-keyboard-response","89","189392","0.0-5.0-5.0-4.0","69829236d776a93cf3afa632","not_provided","desktop","0","0","0","","","","","","working_memory","","null","<div class=""fixation"">Correct</div>","null","","","","","","","","","","","","","","","","",""
"html-keyboard-response","90","190406","0.0-5.0-5.0-0.1","69829236d776a93cf3afa632","not_provided","desktop","0","0","0","","","","","","working_memory","","null","<div class=""fixation"">+</div>","null","","","","","","","","","","","","","","","","",""
"html-keyboard-response","91","190607","0.0-5.0-5.0-1.1","69829236d776a93cf3afa632","not_provided","desktop","0","0","0","","","","","","working_memory","","null","<img class='b' src=images/squares/orange.png><img class='f' src=images/squares/magenta.png><img class='h' src=images/squares/red.png><img class='k' src=images/squares/yellow.png><div class=""fixation"">+</div>","null","","","memory","exp","1","","","","","","","","","","","",""
"html-keyboard-response","92","191510","0.0-5.0-5.0-2.1","69829236d776a93cf3afa632","not_provided","desktop","0","0","0","","","","","","working_memory","","null","<div class=""fixation"">+</div>","null","","","","","","","","","","","","","","","","",""
"html-keyboard-response","93","192505","0.0-5.0-5.0-3.1","69829236d776a93cf3afa632","not_provided","desktop","0","0","0","","","","","","working_memory","","995","<img class='f' src=images/squares/magenta.png><div class=""fixation"">+</div>","s","","","test_squares","exp","1","4","s","true","sk","s","","","","","","",""
"html-keyboard-response","94","193010","0.0-5.0-5.0-4.1","69829236d776a93cf3afa632","not_provided","desktop","0","0","0","","","","","","working_memory","","null","<div class=""fixation"">Correct</div>","null","","","","","","","","","","","","","","","","",""
"html-keyboard-response","95","194023","0.0-5.0-5.0-0.2","69829236d776a93cf3afa632","not_provided","desktop","0","0","0","","","","","","working_memory","","null","<div class=""fixation"">+</div>","null","","","","","","","","","","","","","","","","",""
"html-keyboard-response","96","194231","0.0-5.0-5.0-1.2","69829236d776a93cf3afa632","not_provided","desktop","0","0","0","","","","","","working_memory","","null","<img class='b' src=images/squares/green.png><img class='e' src=images/squares/magenta.png><img class='g' src=images/squares/orange.png><img class='k' src=images/squares/cyan.png><div class=""fixation"">+</div>","null","","","memory","exp","2","","","","","","","","","","","",""
"html-keyboard-response","97","195138","0.0-5.0-5.0-2.2","69829236d776a93cf3afa632","not_provided","desktop","0","0","0","","","","","","working_memory","","null","<div class=""fixation"">+</div>","null","","","","","","","","","","","","","","","","",""
"html-keyboard-response","98","195712","0.0-5.0-5.0-3.2","69829236d776a93cf3afa632","not_provided","desktop","0","0","0","","","","","","working_memory","","574","<img class='g' src=images/squares/orange.png><div class=""fixation"">+</div>","s","","","test_squares","exp","2","4","s","true","sk","s","","","","","","",""
"html-keyboard-response","99","196216","0.0-5.0-5.0-4.2","69829236d776a93cf3afa632","not_provided","desktop","0","0","0","","","","","","working_memory","","null","<div class=""fixation"">Correct</div>","null","","","","","","","","","","","","","","","","",""
"html-keyboard-response","100","197224","0.0-5.0-5.0-0.3","69829236d776a93cf3afa632","not_provided","desktop","0","0","0","","","","","","working_memory","","null","<div class=""fixation"">+</div>","null","","","","","","","","","","","","","","","","",""
"html-keyboard-response","101","197441","0.0-5.0-5.0-1.3","69829236d776a93cf3afa632","not_provided","desktop","0","0","0","","","","","","working_memory","","null","<img class='c' src=images/squares/blue.png><img class='a' src=images/squares/brown.png><img class='e' src=images/squares/yellow.png><img class='f' src=images/squares/magenta.png><img class='g' src=images/squares/cyan.png><img class='i' src=images/squares/black.png><img class='k' src=images/squares/orange.png><img class='j' src=images/squares/green.png><div class=""fixation"">+</div>","null","","","memory","exp","3","","","","","","","","","","","",""
"html-keyboard-response","102","198344","0.0-5.0-5.0-2.3","69829236d776a93cf3afa632","not_provided","desktop","0","0","0","","","","","","working_memory","","null","<div class=""fixation"">+</div>","null","","","","","","","","","","","","","","","","",""
"html-keyboard-response","103","198937","0.0-5.0-5.0-3.3","69829236d776a93cf3afa632","not_provided","desktop","0","0","0","","","","","","working_memory","","593","<img class='k' src=images/squares/red.png><div class=""fixation"">+</div>","k","","","test_squares","exp","3","8","k","true","sk","d","","","","","","",""
"html-keyboard-response","104","199452","0.0-5.0-5.0-4.3","69829236d776a93cf3afa632","not_provided","desktop","0","0","0","","","","","","working_memory","","null","<div class=""fixation"">Correct</div>","null","","","","","","","","","","","","","","","","",""
"html-keyboard-response","105","200460","0.0-5.0-5.0-0.4","69829236d776a93cf3afa632","not_provided","desktop","0","0","0","","","","","","working_memory","","null","<div class=""fixation"">+</div>","null","","","","","","","","","","","","","","","","",""
"html-keyboard-response","106","200673","0.0-5.0-5.0-1.4","69829236d776a93cf3afa632","not_provided","desktop","0","0","0","","","","","","working_memory","","null","<img class='b' src=images/squares/blue.png><img class='a' src=images/squares/red.png><img class='e' src=images/squares/orange.png><img class='d' src=images/squares/cyan.png><img class='g' src=images/squares/magenta.png><img class='i' src=images/squares/yellow.png><img class='j' src=images/squares/green.png><img class='k' src=images/squares/brown.png><div class=""fixation"">+</div>","null","","","memory","exp","4","","","","","","","","","","","",""
"html-keyboard-response","107","201588","0.0-5.0-5.0-2.4","69829236d776a93cf3afa632","not_provided","desktop","0","0","0","","","","","","working_memory","","null","<div class=""fixation"">+</div>","null","","","","","","","","","","","","","","","","",""
"html-keyboard-response","108","202168","0.0-5.0-5.0-3.4","69829236d776a93cf3afa632","not_provided","desktop","0","0","0","","","","","","working_memory","","580","<img class='b' src=images/squares/blue.png><div class=""fixation"">+</div>","k","","","test_squares","exp","4","8","s","false","sk","s","","","","","","",""
"html-keyboard-response","109","202679","0.0-5.0-5.0-4.4","69829236d776a93cf3afa632","not_provided","desktop","0","0","0","","","","","","working_memory","","null","<div class=""fixation"">Incorrect</div>","null","","","","","","","","","","","","","","","","",""
"html-keyboard-response","110","203683","0.0-5.0-5.0-0.5","69829236d776a93cf3afa632","not_provided","desktop","0","0","0","","","","","","working_memory","","null","<div class=""fixation"">+</div>","null","","","","","","","","","","","","","","","","",""
"html-keyboard-response","111","203885","0.0-5.0-5.0-1.5","69829236d776a93cf3afa632","not_provided","desktop","0","0","0","","","","","","working_memory","","null","<img class='c' src=images/squares/orange.png><img class='a' src=images/squares/brown.png><img class='f' src=images/squares/yellow.png><img class='e' src=images/squares/magenta.png><img class='h' src=images/squares/red.png><img class='i' src=images/squares/cyan.png><img class='j' src=images/squares/green.png><img class='l' src=images/squares/black.png><div class=""fixation"">+</div>","null","","","memory","exp","5","","","","","","","","","","","",""
"html-keyboard-response","112","204795","0.0-5.0-5.0-2.5","69829236d776a93cf3afa632","not_provided","desktop","0","0","0","","","","","","working_memory","","null","<div class=""fixation"">+</div>","null","","","","","","","","","","","","","","","","",""
"html-keyboard-response","113","205268","0.0-5.0-5.0-3.5","69829236d776a93cf3afa632","not_provided","desktop","0","0","0","","","","","","working_memory","","472","<img class='c' src=images/squares/orange.png><div class=""fixation"">+</div>","s","","","test_squares","exp","5","8","s","true","sk","s","","","","","","",""
"html-keyboard-response","114","205777","0.0-5.0-5.0-4.5","69829236d776a93cf3afa632","not_provided","desktop","0","0","0","","","","","","working_memory","","null","<div class=""fixation"">Correct</div>","null","","","","","","","","","","","","","","","","",""
"html-keyboard-response","115","206792","0.0-5.0-5.0-0.6","69829236d776a93cf3afa632","not_provided","desktop","0","0","0","","","","","","working_memory","","null","<div class=""fixation"">+</div>","null","","","","","","","","","","","","","","","","",""
"html-keyboard-response","116","207006","0.0-5.0-5.0-1.6","69829236d776a93cf3afa632","not_provided","desktop","0","0","0","","","","","","working_memory","","null","<img class='b' src=images/squares/blue.png><img class='a' src=images/squares/black.png><img class='f' src=images/squares/yellow.png><img class='e' src=images/squares/cyan.png><img class='h' src=images/squares/brown.png><img class='g' src=images/squares/orange.png><img class='k' src=images/squares/red.png><img class='j' src=images/squares/green.png><div class=""fixation"">+</div>","null","","","memory","exp","6","","","","","","","","","","","",""
"html-keyboard-response","117","207919","0.0-5.0-5.0-2.6","69829236d776a93cf3afa632","not_provided","desktop","0","0","0","","","","","","working_memory","","null","<div class=""fixation"">+</div>","null","","","","","","","","","","","","","","","","",""
"html-keyboard-response","118","208618","0.0-5.0-5.0-3.6","69829236d776a93cf3afa632","not_provided","desktop","0","0","0","","","","","","working_memory","","698","<img class='k' src=images/squares/red.png><div class=""fixation"">+</div>","k","","","test_squares","exp","6","8","s","false","sk","s","","","","","","",""
"html-keyboard-response","119","209121","0.0-5.0-5.0-4.6","69829236d776a93cf3afa632","not_provided","desktop","0","0","0","","","","","","working_memory","","null","<div class=""fixation"">Incorrect</div>","null","","","","","","","","","","","","","","","","",""
"html-keyboard-response","120","210122","0.0-5.0-5.0-0.7","69829236d776a93cf3afa632","not_provided","desktop","0","0","0","","","","","","working_memory","","null","<div class=""fixation"">+</div>","null","","","","","","","","","","","","","","","","",""
"html-keyboard-response","121","210327","0.0-5.0-5.0-1.7","69829236d776a93cf3afa632","not_provided","desktop","0","0","0","","","","","","working_memory","","null","<img class='a' src=images/squares/green.png><img class='c' src=images/squares/red.png><img class='f' src=images/squares/black.png><img class='e' src=images/squares/blue.png><img class='h' src=images/squares/yellow.png><img class='g' src=images/squares/magenta.png><img class='k' src=images/squares/brown.png><img class='j' src=images/squares/cyan.png><div class=""fixation"">+</div>","null","","","memory","exp","7","","","","","","","","","","","",""
"html-keyboard-response","122","211242","0.0-5.0-5.0-2.7","69829236d776a93cf3afa632","not_provided","desktop","0","0","0","","","","","","working_memory","","null","<div class=""fixation"">+</div>","null","","","","","","","","","","","","","","","","",""
"html-keyboard-response","123","211833","0.0-5.0-5.0-3.7","69829236d776a93cf3afa632","not_provided","desktop","0","0","0","","","","","","working_memory","","591","<img class='k' src=images/squares/orange.png><div class=""fixation"">+</div>","s","","","test_squares","exp","7","8","k","false","sk","d","","","","","","",""
"html-keyboard-response","124","212338","0.0-5.0-5.0-4.7","69829236d776a93cf3afa632","not_provided","desktop","0","0","0","","","","","","working_memory","","null","<div class=""fixation"">Incorrect</div>","null","","","","","","","","","","","","","","","","",""
"html-keyboard-response","125","213348","0.0-5.0-5.0-0.8","69829236d776a93cf3afa632","not_provided","desktop","0","0","0","","","","","","working_memory","","null","<div class=""fixation"">+</div>","null","","","","","","","","","","","","","","","","",""
"html-keyboard-response","126","213551","0.0-5.0-5.0-1.8","69829236d776a93cf3afa632","not_provided","desktop","0","0","0","","","","","","working_memory","","null","<img class='a' src=images/squares/black.png><img class='c' src=images/squares/green.png><img class='e' src=images/squares/orange.png><img class='d' src=images/squares/cyan.png><img class='g' src=images/squares/magenta.png><img class='i' src=images/squares/red.png><img class='k' src=images/squares/brown.png><img class='j' src=images/squares/yellow.png><div class=""fixation"">+</div>","null","","","memory","exp","8","","","","","","","","","","","",""
"html-keyboard-response","127","214461","0.0-5.0-5.0-2.8","69829236d776a93cf3afa632","not_provided","desktop","0","0","0","","","","","","working_memory","","null","<div class=""fixation"">+</div>","null","","","","","","","","","","","","","","","","",""
"html-keyboard-response","128","215056","0.0-5.0-5.0-3.8","69829236d776a93cf3afa632","not_provided","desktop","0","0","0","","","","","","working_memory","","595","<img class='a' src=images/squares/black.png><div class=""fixation"">+</div>","k","","","test_squares","exp","8","8","s","false","sk","s","","","","","","",""
"html-keyboard-response","129","215557","0.0-5.0-5.0-4.8","69829236d776a93cf3afa632","not_provided","desktop","0","0","0","","","","","","working_memory","","null","<div class=""fixation"">Incorrect</div>","null","","","","","","","","","","","","","","","","",""
"html-keyboard-response","130","216562","0.0-5.0-5.0-0.9","69829236d776a93cf3afa632","not_provided","desktop","0","0","0","","","","","","working_memory","","null","<div class=""fixation"">+</div>","null","","","","","","","","","","","","","","","","",""
"html-keyboard-response","131","216776","0.0-5.0-5.0-1.9","69829236d776a93cf3afa632","not_provided","desktop","0","0","0","","","","","","working_memory","","null","<img class='c' src=images/squares/yellow.png><img class='f' src=images/squares/blue.png><img class='i' src=images/squares/black.png><img class='k' src=images/squares/magenta.png><div class=""fixation"">+</div>","null","","","memory","exp","9","","","","","","","","","","","",""
"html-keyboard-response","132","217677","0.0-5.0-5.0-2.9","69829236d776a93cf3afa632","not_provided","desktop","0","0","0","","","","","","working_memory","","null","<div class=""fixation"">+</div>","null","","","","","","","","","","","","","","","","",""
"html-keyboard-response","133","218213","0.0-5.0-5.0-3.9","69829236d776a93cf3afa632","not_provided","desktop","0","0","0","","","","","","working_memory","","535","<img class='c' src=images/squares/yellow.png><div class=""fixation"">+</div>","s","","","test_squares","exp","9","4","s","true","sk","s","","","","","","",""
"html-keyboard-response","134","218724","0.0-5.0-5.0-4.9","69829236d776a93cf3afa632","not_provided","desktop","0","0","0","","","","","","working_memory","","null","<div class=""fixation"">Correct</div>","null","","","","","","","","","","","","","","","","",""
"html-keyboard-response","135","219730","0.0-5.0-5.0-0.10","69829236d776a93cf3afa632","not_provided","desktop","0","0","0","","","","","","working_memory","","null","<div class=""fixation"">+</div>","null","","","","","","","","","","","","","","","","",""
"html-keyboard-response","136","219932","0.0-5.0-5.0-1.10","69829236d776a93cf3afa632","not_provided","desktop","0","0","0","","","","","","working_memory","","null","<img class='c' src=images/squares/red.png><img class='e' src=images/squares/yellow.png><img class='g' src=images/squares/blue.png><img class='k' src=images/squares/cyan.png><div class=""fixation"">+</div>","null","","","memory","exp","10","","","","","","","","","","","",""
"html-keyboard-response","137","220844","0.0-5.0-5.0-2.10","69829236d776a93cf3afa632","not_provided","desktop","0","0","0","","","","","","working_memory","","null","<div class=""fixation"">+</div>","null","","","","","","","","","","","","","","","","",""
"html-keyboard-response","138","222160","0.0-5.0-5.0-3.10","69829236d776a93cf3afa632","not_provided","desktop","0","0","0","","","","","","working_memory","","1315","<img class='k' src=images/squares/cyan.png><div class=""fixation"">+</div>","s","","","test_squares","exp","10","4","s","true","sk","s","","","","","","",""
"html-keyboard-response","139","222675","0.0-5.0-5.0-4.10","69829236d776a93cf3afa632","not_provided","desktop","0","0","0","","","","","","working_memory","","null","<div class=""fixation"">Correct</div>","null","","","","","","","","","","","","","","","","",""
"html-keyboard-response","140","223684","0.0-5.0-5.0-0.11","69829236d776a93cf3afa632","not_provided","desktop","0","0","0","","","","","","working_memory","","null","<div class=""fixation"">+</div>","null","","","","","","","","","","","","","","","","",""
"html-keyboard-response","141","223885","0.0-5.0-5.0-1.11","69829236d776a93cf3afa632","not_provided","desktop","0","0","0","","","","","","working_memory","","null","<img class='b' src=images/squares/magenta.png><img class='d' src=images/squares/brown.png><img class='g' src=images/squares/black.png><img class='j' src=images/squares/orange.png><div class=""fixation"">+</div>","null","","","memory","exp","11","","","","","","","","","","","",""
"html-keyboard-response","142","224790","0.0-5.0-5.0-2.11","69829236d776a93cf3afa632","not_provided","desktop","0","0","0","","","","","","working_memory","","null","<div class=""fixation"">+</div>","null","","","","","","","","","","","","","","","","",""
"html-keyboard-response","143","225670","0.0-5.0-5.0-3.11","69829236d776a93cf3afa632","not_provided","desktop","0","0","0","","","","","","working_memory","","880","<img class='d' src=images/squares/brown.png><div class=""fixation"">+</div>","k","","","test_squares","exp","11","4","s","false","sk","s","","","","","","",""
"html-keyboard-response","144","226171","0.0-5.0-5.0-4.11","69829236d776a93cf3afa632","not_provided","desktop","0","0","0","","","","","","working_memory","","null","<div class=""fixation"">Incorrect</div>","null","","","","","","","","","","","","","","","","",""
"html-keyboard-response","145","227174","0.0-5.0-5.0-0.12","69829236d776a93cf3afa632","not_provided","desktop","0","0","0","","","","","","working_memory","","null","<div class=""fixation"">+</div>","null","","","","","","","","","","","","","","","","",""
"html-keyboard-response","146","227388","0.0-5.0-5.0-1.12","69829236d776a93cf3afa632","not_provided","desktop","0","0","0","","","","","","working_memory","","null","<img class='b' src=images/squares/magenta.png><img class='d' src=images/squares/cyan.png><img class='i' src=images/squares/red.png><img class='j' src=images/squares/green.png><div class=""fixation"">+</div>","null","","","memory","exp","12","","","","","","","","","","","",""
"html-keyboard-response","147","228297","0.0-5.0-5.0-2.12","69829236d776a93cf3afa632","not_provided","desktop","0","0","0","","","","","","working_memory","","null","<div class=""fixation"">+</div>","null","","","","","","","","","","","","","","","","",""
"html-keyboard-response","148","228969","0.0-5.0-5.0-3.12","69829236d776a93cf3afa632","not_provided","desktop","0","0","0","","","","","","working_memory","","672","<img class='i' src=images/squares/red.png><div class=""fixation"">+</div>","k","","","test_squares","exp","12","4","s","false","sk","s","","","","","","",""
"html-keyboard-response","149","229481","0.0-5.0-5.0-4.12","69829236d776a93cf3afa632","not_provided","desktop","0","0","0","","","","","","working_memory","","null","<div class=""fixation"">Incorrect</div>","null","","","","","","","","","","","","","","","","",""
"html-keyboard-response","150","230487","0.0-5.0-5.0-0.13","69829236d776a93cf3afa632","not_provided","desktop","0","0","0","","","","","","working_memory","","null","<div class=""fixation"">+</div>","null","","","","","","","","","","","","","","","","",""
"html-keyboard-response","151","230688","0.0-5.0-5.0-1.13","69829236d776a93cf3afa632","not_provided","desktop","0","0","0","","","","","","working_memory","","null","<img class='a' src=images/squares/cyan.png><img class='d' src=images/squares/orange.png><img class='h' src=images/squares/blue.png><img class='l' src=images/squares/black.png><div class=""fixation"">+</div>","null","","","memory","exp","13","","","","","","","","","","","",""
"html-keyboard-response","152","231595","0.0-5.0-5.0-2.13","69829236d776a93cf3afa632","not_provided","desktop","0","0","0","","","","","","working_memory","","null","<div class=""fixation"">+</div>","null","","","","","","","","","","","","","","","","",""
"html-keyboard-response","153","232229","0.0-5.0-5.0-3.13","69829236d776a93cf3afa632","not_provided","desktop","0","0","0","","","","","","working_memory","","634","<img class='l' src=images/squares/red.png><div class=""fixation"">+</div>","k","","","test_squares","exp","13","4","k","true","sk","d","","","","","","",""
"html-keyboard-response","154","232732","0.0-5.0-5.0-4.13","69829236d776a93cf3afa632","not_provided","desktop","0","0","0","","","","","","working_memory","","null","<div class=""fixation"">Correct</div>","null","","","","","","","","","","","","","","","","",""
"html-keyboard-response","155","233744","0.0-5.0-5.0-0.14","69829236d776a93cf3afa632","not_provided","desktop","0","0","0","","","","","","working_memory","","null","<div class=""fixation"">+</div>","null","","","","","","","","","","","","","","","","",""
"html-keyboard-response","156","233960","0.0-5.0-5.0-1.14","69829236d776a93cf3afa632","not_provided","desktop","0","0","0","","","","","","working_memory","","null","<img class='b' src=images/squares/orange.png><img class='c' src=images/squares/magenta.png><img class='f' src=images/squares/yellow.png><img class='d' src=images/squares/green.png><img class='i' src=images/squares/black.png><img class='g' src=images/squares/cyan.png><img class='l' src=images/squares/blue.png><img class='k' src=images/squares/brown.png><div class=""fixation"">+</div>","null","","","memory","exp","14","","","","","","","","","","","",""
"html-keyboard-response","157","234871","0.0-5.0-5.0-2.14","69829236d776a93cf3afa632","not_provided","desktop","0","0","0","","","","","","working_memory","","null","<div class=""fixation"">+</div>","null","","","","","","","","","","","","","","","","",""
"html-keyboard-response","158","235529","0.0-5.0-5.0-3.14","69829236d776a93cf3afa632","not_provided","desktop","0","0","0","","","","","","working_memory","","658","<img class='l' src=images/squares/blue.png><div class=""fixation"">+</div>","k","","","test_squares","exp","14","8","s","false","sk","s","","","","","","",""
"html-keyboard-response","159","236033","0.0-5.0-5.0-4.14","69829236d776a93cf3afa632","not_provided","desktop","0","0","0","","","","","","working_memory","","null","<div class=""fixation"">Incorrect</div>","null","","","","","","","","","","","","","","","","",""
"html-keyboard-response","160","237046","0.0-5.0-5.0-0.15","69829236d776a93cf3afa632","not_provided","desktop","0","0","0","","","","","","working_memory","","null","<div class=""fixation"">+</div>","null","","","","","","","","","","","","","","","","",""
"html-keyboard-response","161","237259","0.0-5.0-5.0-1.15","69829236d776a93cf3afa632","not_provided","desktop","0","0","0","","","","","","working_memory","","null","<img class='a' src=images/squares/yellow.png><img class='c' src=images/squares/orange.png><img class='e' src=images/squares/brown.png><img class='d' src=images/squares/green.png><img class='i' src=images/squares/blue.png><img class='g' src=images/squares/black.png><img class='k' src=images/squares/magenta.png><img class='j' src=images/squares/cyan.png><div class=""fixation"">+</div>","null","","","memory","exp","15","","","","","","","","","","","",""
"html-keyboard-response","162","238169","0.0-5.0-5.0-2.15","69829236d776a93cf3afa632","not_provided","desktop","0","0","0","","","","","","working_memory","","null","<div class=""fixation"">+</div>","null","","","","","","","","","","","","","","","","",""
"html-keyboard-response","163","239249","0.0-5.0-5.0-3.15","69829236d776a93cf3afa632","not_provided","desktop","0","0","0","","","","","","working_memory","","1080","<img class='d' src=images/squares/red.png><div class=""fixation"">+</div>","k","","","test_squares","exp","15","8","k","true","sk","d","","","","","","",""
"html-keyboard-response","164","239759","0.0-5.0-5.0-4.15","69829236d776a93cf3afa632","not_provided","desktop","0","0","0","","","","","","working_memory","","null","<div class=""fixation"">Correct</div>","null","","","","","","","","","","","","","","","","",""
"html-keyboard-response","165","240762","0.0-5.0-5.0-0.16","69829236d776a93cf3afa632","not_provided","desktop","0","0","0","","","","","","working_memory","","null","<div class=""fixation"">+</div>","null","","","","","","","","","","","","","","","","",""
"html-keyboard-response","166","240963","0.0-5.0-5.0-1.16","69829236d776a93cf3afa632","not_provided","desktop","0","0","0","","","","","","working_memory","","null","<img class='a' src=images/squares/green.png><img class='e' src=images/squares/red.png><img class='h' src=images/squares/black.png><img class='l' src=images/squares/blue.png><div class=""fixation"">+</div>","null","","","memory","exp","16","","","","","","","","","","","",""
"html-keyboard-response","167","241868","0.0-5.0-5.0-2.16","69829236d776a93cf3afa632","not_provided","desktop","0","0","0","","","","","","working_memory","","null","<div class=""fixation"">+</div>","null","","","","","","","","","","","","","","","","",""
"html-keyboard-response","168","242566","0.0-5.0-5.0-3.16","69829236d776a93cf3afa632","not_provided","desktop","0","0","0","","","","","","working_memory","","698","<img class='l' src=images/squares/cyan.png><div class=""fixation"">+</div>","k","","","test_squares","exp","16","4","k","true","sk","d","","","","","","",""
"html-keyboard-response","169","243070","0.0-5.0-5.0-4.16","69829236d776a93cf3afa632","not_provided","desktop","0","0","0","","","","","","working_memory","","null","<div class=""fixation"">Correct</div>","null","","","","","","","","","","","","","","","","",""
"html-keyboard-response","170","244074","0.0-5.0-5.0-0.17","69829236d776a93cf3afa632","not_provided","desktop","0","0","0","","","","","","working_memory","","null","<div class=""fixation"">+</div>","null","","","","","","","","","","","","","","","","",""
"html-keyboard-response","171","244278","0.0-5.0-5.0-1.17","69829236d776a93cf3afa632","not_provided","desktop","0","0","0","","","","","","working_memory","","null","<img class='a' src=images/squares/brown.png><img class='d' src=images/squares/yellow.png><img class='i' src=images/squares/magenta.png><img class='k' src=images/squares/blue.png><div class=""fixation"">+</div>","null","","","memory","exp","17","","","","","","","","","","","",""
"html-keyboard-response","172","245190","0.0-5.0-5.0-2.17","69829236d776a93cf3afa632","not_provided","desktop","0","0","0","","","","","","working_memory","","null","<div class=""fixation"">+</div>","null","","","","","","","","","","","","","","","","",""
"html-keyboard-response","173","245780","0.0-5.0-5.0-3.17","69829236d776a93cf3afa632","not_provided","desktop","0","0","0","","","","","","working_memory","","590","<img class='a' src=images/squares/brown.png><div class=""fixation"">+</div>","s","","","test_squares","exp","17","4","s","true","sk","s","","","","","","",""
"html-keyboard-response","174","246295","0.0-5.0-5.0-4.17","69829236d776a93cf3afa632","not_provided","desktop","0","0","0","","","","","","working_memory","","null","<div class=""fixation"">Correct</div>","null","","","","","","","","","","","","","","","","",""
"html-keyboard-response","175","247302","0.0-5.0-5.0-0.18","69829236d776a93cf3afa632","not_provided","desktop","0","0","0","","","","","","working_memory","","null","<div class=""fixation"">+</div>","null","","","","","","","","","","","","","","","","",""
"html-keyboard-response","176","247503","0.0-5.0-5.0-1.18","69829236d776a93cf3afa632","not_provided","desktop","0","0","0","","","","","","working_memory","","null","<img class='b' src=images/squares/orange.png><img class='f' src=images/squares/green.png><img class='h' src=images/squares/magenta.png><img class='k' src=images/squares/yellow.png><div class=""fixation"">+</div>","null","","","memory","exp","18","","","","","","","","","","","",""
"html-keyboard-response","177","248414","0.0-5.0-5.0-2.18","69829236d776a93cf3afa632","not_provided","desktop","0","0","0","","","","","","working_memory","","null","<div class=""fixation"">+</div>","null","","","","","","","","","","","","","","","","",""
"html-keyboard-response","178","249079","0.0-5.0-5.0-3.18","69829236d776a93cf3afa632","not_provided","desktop","0","0","0","","","","","","working_memory","","665","<img class='f' src=images/squares/green.png><div class=""fixation"">+</div>","k","","","test_squares","exp","18","4","s","false","sk","s","","","","","","",""
"html-keyboard-response","179","249590","0.0-5.0-5.0-4.18","69829236d776a93cf3afa632","not_provided","desktop","0","0","0","","","","","","working_memory","","null","<div class=""fixation"">Incorrect</div>","null","","","","","","","","","","","","","","","","",""
"html-keyboard-response","180","250591","0.0-5.0-5.0-0.19","69829236d776a93cf3afa632","not_provided","desktop","0","0","0","","","","","","working_memory","","null","<div class=""fixation"">+</div>","null","","","","","","","","","","","","","","","","",""
"html-keyboard-response","181","250805","0.0-5.0-5.0-1.19","69829236d776a93cf3afa632","not_provided","desktop","0","0","0","","","","","","working_memory","","null","<img class='a' src=images/squares/brown.png><img class='b' src=images/squares/orange.png><img class='f' src=images/squares/black.png><img class='d' src=images/squares/red.png><img class='g' src=images/squares/cyan.png><img class='i' src=images/squares/magenta.png><img class='l' src=images/squares/green.png><img class='k' src=images/squares/blue.png><div class=""fixation"">+</div>","null","","","memory","exp","19","","","","","","","","","","","",""
"html-keyboard-response","182","251711","0.0-5.0-5.0-2.19","69829236d776a93cf3afa632","not_provided","desktop","0","0","0","","","","","","working_memory","","null","<div class=""fixation"">+</div>","null","","","","","","","","","","","","","","","","",""
"html-keyboard-response","183","252397","0.0-5.0-5.0-3.19","69829236d776a93cf3afa632","not_provided","desktop","0","0","0","","","","","","working_memory","","685","<img class='i' src=images/squares/yellow.png><div class=""fixation"">+</div>","k","","","test_squares","exp","19","8","k","true","sk","d","","","","","","",""
"html-keyboard-response","184","252899","0.0-5.0-5.0-4.19","69829236d776a93cf3afa632","not_provided","desktop","0","0","0","","","","","","working_memory","","null","<div class=""fixation"">Correct</div>","null","","","","","","","","","","","","","","","","",""
"html-keyboard-response","185","253914","0.0-5.0-5.0-0.20","69829236d776a93cf3afa632","not_provided","desktop","0","0","0","","","","","","working_memory","","null","<div class=""fixation"">+</div>","null","","","","","","","","","","","","","","","","",""
"html-keyboard-response","186","254116","0.0-5.0-5.0-1.20","69829236d776a93cf3afa632","not_provided","desktop","0","0","0","","","","","","working_memory","","null","<img class='c' src=images/squares/yellow.png><img class='b' src=images/squares/cyan.png><img class='f' src=images/squares/blue.png><img class='e' src=images/squares/magenta.png><img class='h' src=images/squares/red.png><img class='i' src=images/squares/black.png><img class='j' src=images/squares/brown.png><img class='k' src=images/squares/orange.png><div class=""fixation"">+</div>","null","","","memory","exp","20","","","","","","","","","","","",""
"html-keyboard-response","187","255029","0.0-5.0-5.0-2.20","69829236d776a93cf3afa632","not_provided","desktop","0","0","0","","","","","","working_memory","","null","<div class=""fixation"">+</div>","null","","","","","","","","","","","","","","","","",""
"html-keyboard-response","188","255756","0.0-5.0-5.0-3.20","69829236d776a93cf3afa632","not_provided","desktop","0","0","0","","","","","","working_memory","","728","<img class='b' src=images/squares/green.png><div class=""fixation"">+</div>","k","","","test_squares","exp","20","8","k","true","sk","d","","","","","","",""
"html-keyboard-response","189","256257","0.0-5.0-5.0-4.20","69829236d776a93cf3afa632","not_provided","desktop","0","0","0","","","","","","working_memory","","null","<div class=""fixation"">Correct</div>","null","","","","","","","","","","","","","","","","",""
"html-keyboard-response","190","257260","0.0-5.0-5.0-0.21","69829236d776a93cf3afa632","not_provided","desktop","0","0","0","","","","","","working_memory","","null","<div class=""fixation"">+</div>","null","","","","","","","","","","","","","","","","",""
"html-keyboard-response","191","257461","0.0-5.0-5.0-1.21","69829236d776a93cf3afa632","not_provided","desktop","0","0","0","","","","","","working_memory","","null","<img class='b' src=images/squares/yellow.png><img class='a' src=images/squares/blue.png><img class='d' src=images/squares/black.png><img class='f' src=images/squares/brown.png><img class='i' src=images/squares/orange.png><img class='g' src=images/squares/magenta.png><img class='j' src=images/squares/red.png><img class='l' src=images/squares/green.png><div class=""fixation"">+</div>","null","","","memory","exp","21","","","","","","","","","","","",""
"html-keyboard-response","192","258366","0.0-5.0-5.0-2.21","69829236d776a93cf3afa632","not_provided","desktop","0","0","0","","","","","","working_memory","","null","<div class=""fixation"">+</div>","null","","","","","","","","","","","","","","","","",""
"html-keyboard-response","193","258964","0.0-5.0-5.0-3.21","69829236d776a93cf3afa632","not_provided","desktop","0","0","0","","","","","","working_memory","","597","<img class='i' src=images/squares/cyan.png><div class=""fixation"">+</div>","k","","","test_squares","exp","21","8","k","true","sk","d","","","","","","",""
"html-keyboard-response","194","259478","0.0-5.0-5.0-4.21","69829236d776a93cf3afa632","not_provided","desktop","0","0","0","","","","","","working_memory","","null","<div class=""fixation"">Correct</div>","null","","","","","","","","","","","","","","","","",""
"html-keyboard-response","195","260487","0.0-5.0-5.0-0.22","69829236d776a93cf3afa632","not_provided","desktop","0","0","0","","","","","","working_memory","","null","<div class=""fixation"">+</div>","null","","","","","","","","","","","","","","","","",""
"html-keyboard-response","196","260703","0.0-5.0-5.0-1.22","69829236d776a93cf3afa632","not_provided","desktop","0","0","0","","","","","","working_memory","","null","<img class='b' src=images/squares/brown.png><img class='a' src=images/squares/black.png><img class='d' src=images/squares/magenta.png><img class='e' src=images/squares/orange.png><img class='i' src=images/squares/yellow.png><img class='g' src=images/squares/cyan.png><img class='l' src=images/squares/blue.png><img class='j' src=images/squares/green.png><div class=""fixation"">+</div>","null","","","memory","exp","22","","","","","","","","","","","",""
"html-keyboard-response","197","261613","0.0-5.0-5.0-2.22","69829236d776a93cf3afa632","not_provided","desktop","0","0","0","","","","","","working_memory","","null","<div class=""fixation"">+</div>","null","","","","","","","","","","","","","","","","",""
"html-keyboard-response","198","262632","0.0-5.0-5.0-3.22","69829236d776a93cf3afa632","not_provided","desktop","0","0","0","","","","","","working_memory","","1018","<img class='j' src=images/squares/red.png><div class=""fixation"">+</div>","k","","","test_squares","exp","22","8","k","true","sk","d","","","","","","",""
"html-keyboard-response","199","263142","0.0-5.0-5.0-4.22","69829236d776a93cf3afa632","not_provided","desktop","0","0","0","","","","","","working_memory","","null","<div class=""fixation"">Correct</div>","null","","","","","","","","","","","","","","","","",""
"html-keyboard-response","200","264157","0.0-5.0-5.0-0.23","69829236d776a93cf3afa632","not_provided","desktop","0","0","0","","","","","","working_memory","","null","<div class=""fixation"">+</div>","null","","","","","","","","","","","","","","","","",""
"html-keyboard-response","201","264358","0.0-5.0-5.0-1.23","69829236d776a93cf3afa632","not_provided","desktop","0","0","0","","","","","","working_memory","","null","<img class='c' src=images/squares/black.png><img class='e' src=images/squares/orange.png><img class='i' src=images/squares/red.png><img class='j' src=images/squares/cyan.png><div class=""fixation"">+</div>","null","","","memory","exp","23","","","","","","","","","","","",""
"html-keyboard-response","202","265263","0.0-5.0-5.0-2.23","69829236d776a93cf3afa632","not_provided","desktop","0","0","0","","","","","","working_memory","","null","<div class=""fixation"">+</div>","null","","","","","","","","","","","","","","","","",""
"html-keyboard-response","203","265914","0.0-5.0-5.0-3.23","69829236d776a93cf3afa632","not_provided","desktop","0","0","0","","","","","","working_memory","","651","<img class='e' src=images/squares/orange.png><div class=""fixation"">+</div>","s","","","test_squares","exp","23","4","s","true","sk","s","","","","","","",""
"html-keyboard-response","204","266419","0.0-5.0-5.0-4.23","69829236d776a93cf3afa632","not_provided","desktop","0","0","0","","","","","","working_memory","","null","<div class=""fixation"">Correct</div>","null","","","","","","","","","","","","","","","","",""
"html-keyboard-response","205","267427","0.0-5.0-5.0-0.24","69829236d776a93cf3afa632","not_provided","desktop","0","0","0","","","","","","working_memory","","null","<div class=""fixation"">+</div>","null","","","","","","","","","","","","","","","","",""
"html-keyboard-response","206","267638","0.0-5.0-5.0-1.24","69829236d776a93cf3afa632","not_provided","desktop","0","0","0","","","","","","working_memory","","null","<img class='b' src=images/squares/magenta.png><img class='a' src=images/squares/orange.png><img class='e' src=images/squares/black.png><img class='d' src=images/squares/yellow.png><img class='h' src=images/squares/blue.png><img class='i' src=images/squares/cyan.png><img class='l' src=images/squares/brown.png><img class='k' src=images/squares/red.png><div class=""fixation"">+</div>","null","","","memory","exp","24","","","","","","","","","","","",""
"html-keyboard-response","207","268540","0.0-5.0-5.0-2.24","69829236d776a93cf3afa632","not_provided","desktop","0","0","0","","","","","","working_memory","","null","<div class=""fixation"">+</div>","null","","","","","","","","","","","","","","","","",""
"html-keyboard-response","208","269390","0.0-5.0-5.0-3.24","69829236d776a93cf3afa632","not_provided","desktop","0","0","0","","","","","","working_memory","","850","<img class='l' src=images/squares/brown.png><div class=""fixation"">+</div>","s","","","test_squares","exp","24","8","s","true","sk","s","","","","","","",""
"html-keyboard-response","209","269891","0.0-5.0-5.0-4.24","69829236d776a93cf3afa632","not_provided","desktop","0","0","0","","","","","","working_memory","","null","<div class=""fixation"">Correct</div>","null","","","","","","","","","","","","","","","","",""
"html-keyboard-response","210","270895","0.0-5.0-5.0-0.25","69829236d776a93cf3afa632","not_provided","desktop","0","0","0","","","","","","working_memory","","null","<div class=""fixation"">+</div>","null","","","","","","","","","","","","","","","","",""
"html-keyboard-response","211","271101","0.0-5.0-5.0-1.25","69829236d776a93cf3afa632","not_provided","desktop","0","0","0","","","","","","working_memory","","null","<img class='c' src=images/squares/brown.png><img class='d' src=images/squares/black.png><img class='g' src=images/squares/red.png><img class='j' src=images/squares/orange.png><div class=""fixation"">+</div>","null","","","memory","exp","25","","","","","","","","","","","",""
"html-keyboard-response","212","272015","0.0-5.0-5.0-2.25","69829236d776a93cf3afa632","not_provided","desktop","0","0","0","","","","","","working_memory","","null","<div class=""fixation"">+</div>","null","","","","","","","","","","","","","","","","",""
"html-keyboard-response","213","272673","0.0-5.0-5.0-3.25","69829236d776a93cf3afa632","not_provided","desktop","0","0","0","","","","","","working_memory","","658","<img class='d' src=images/squares/yellow.png><div class=""fixation"">+</div>","k","","","test_squares","exp","25","4","k","true","sk","d","","","","","","",""
"html-keyboard-response","214","273186","0.0-5.0-5.0-4.25","69829236d776a93cf3afa632","not_provided","desktop","0","0","0","","","","","","working_memory","","null","<div class=""fixation"">Correct</div>","null","","","","","","","","","","","","","","","","",""
"html-keyboard-response","215","274196","0.0-5.0-5.0-0.26","69829236d776a93cf3afa632","not_provided","desktop","0","0","0","","","","","","working_memory","","null","<div class=""fixation"">+</div>","null","","","","","","","","","","","","","","","","",""
"html-keyboard-response","216","274411","0.0-5.0-5.0-1.26","69829236d776a93cf3afa632","not_provided","desktop","0","0","0","","","","","","working_memory","","null","<img class='c' src=images/squares/red.png><img class='f' src=images/squares/blue.png><img class='h' src=images/squares/black.png><img class='j' src=images/squares/magenta.png><div class=""fixation"">+</div>","null","","","memory","exp","26","","","","","","","","","","","",""
"html-keyboard-response","217","275313","0.0-5.0-5.0-2.26","69829236d776a93cf3afa632","not_provided","desktop","0","0","0","","","","","","working_memory","","null","<div class=""fixation"">+</div>","null","","","","","","","","","","","","","","","","",""
"html-keyboard-response","218","276948","0.0-5.0-5.0-3.26","69829236d776a93cf3afa632","not_provided","desktop","0","0","0","","","","","","working_memory","","1635","<img class='j' src=images/squares/magenta.png><div class=""fixation"">+</div>","s","","","test_squares","exp","26","4","s","true","sk","s","","","","","","",""
"html-keyboard-response","219","277456","0.0-5.0-5.0-4.26","69829236d776a93cf3afa632","not_provided","desktop","0","0","0","","","","","","working_memory","","null","<div class=""fixation"">Correct</div>","null","","","","","","","","","","","","","","","","",""
"html-keyboard-response","220","278462","0.0-5.0-5.0-0.27","69829236d776a93cf3afa632","not_provided","desktop","0","0","0","","","","","","working_memory","","null","<div class=""fixation"">+</div>","null","","","","","","","","","","","","","","","","",""
"html-keyboard-response","221","278676","0.0-5.0-5.0-1.27","69829236d776a93cf3afa632","not_provided","desktop","0","0","0","","","","","","working_memory","","null","<img class='b' src=images/squares/yellow.png><img class='c' src=images/squares/blue.png><img class='e' src=images/squares/black.png><img class='d' src=images/squares/red.png><img class='g' src=images/squares/green.png><img class='h' src=images/squares/magenta.png><img class='j' src=images/squares/orange.png><img class='l' src=images/squares/cyan.png><div class=""fixation"">+</div>","null","","","memory","exp","27","","","","","","","","","","","",""
"html-keyboard-response","222","279583","0.0-5.0-5.0-2.27","69829236d776a93cf3afa632","not_provided","desktop","0","0","0","","","","","","working_memory","","null","<div class=""fixation"">+</div>","null","","","","","","","","","","","","","","","","",""
"html-keyboard-response","223","280138","0.0-5.0-5.0-3.27","69829236d776a93cf3afa632","not_provided","desktop","0","0","0","","","","","","working_memory","","554","<img class='j' src=images/squares/orange.png><div class=""fixation"">+</div>","s","","","test_squares","exp","27","8","s","true","sk","s","","","","","","",""
"html-keyboard-response","224","280652","0.0-5.0-5.0-4.27","69829236d776a93cf3afa632","not_provided","desktop","0","0","0","","","","","","working_memory","","null","<div class=""fixation"">Correct</div>","null","","","","","","","","","","","","","","","","",""
"html-keyboard-response","225","281666","0.0-5.0-5.0-0.28","69829236d776a93cf3afa632","not_provided","desktop","0","0","0","","","","","","working_memory","","null","<div class=""fixation"">+</div>","null","","","","","","","","","","","","","","","","",""
"html-keyboard-response","226","281879","0.0-5.0-5.0-1.28","69829236d776a93cf3afa632","not_provided","desktop","0","0","0","","","","","","working_memory","","null","<img class='c' src=images/squares/yellow.png><img class='d' src=images/squares/red.png><img class='i' src=images/squares/orange.png><img class='l' src=images/squares/blue.png><div class=""fixation"">+</div>","null","","","memory","exp","28","","","","","","","","","","","",""
"html-keyboard-response","227","282782","0.0-5.0-5.0-2.28","69829236d776a93cf3afa632","not_provided","desktop","0","0","0","","","","","","working_memory","","null","<div class=""fixation"">+</div>","null","","","","","","","","","","","","","","","","",""
"html-keyboard-response","228","283253","0.0-5.0-5.0-3.28","69829236d776a93cf3afa632","not_provided","desktop","0","0","0","","","","","","working_memory","","471","<img class='l' src=images/squares/blue.png><div class=""fixation"">+</div>","s","","","test_squares","exp","28","4","s","true","sk","s","","","","","","",""
"html-keyboard-response","229","283765","0.0-5.0-5.0-4.28","69829236d776a93cf3afa632","not_provided","desktop","0","0","0","","","","","","working_memory","","null","<div class=""fixation"">Correct</div>","null","","","","","","","","","","","","","","","","",""
"html-keyboard-response","230","284775","0.0-5.0-5.0-0.29","69829236d776a93cf3afa632","not_provided","desktop","0","0","0","","","","","","working_memory","","null","<div class=""fixation"">+</div>","null","","","","","","","","","","","","","","","","",""
"html-keyboard-response","231","284990","0.0-5.0-5.0-1.29","69829236d776a93cf3afa632","not_provided","desktop","0","0","0","","","","","","working_memory","","null","<img class='a' src=images/squares/black.png><img class='c' src=images/squares/brown.png><img class='d' src=images/squares/red.png><img class='e' src=images/squares/magenta.png><img class='h' src=images/squares/cyan.png><img class='i' src=images/squares/green.png><img class='j' src=images/squares/blue.png><img class='l' src=images/squares/yellow.png><div class=""fixation"">+</div>","null","","","memory","exp","29","","","","","","","","","","","",""
"html-keyboard-response","232","285897","0.0-5.0-5.0-2.29","69829236d776a93cf3afa632","not_provided","desktop","0","0","0","","","","","","working_memory","","null","<div class=""fixation"">+</div>","null","","","","","","","","","","","","","","","","",""
"html-keyboard-response","233","286434","0.0-5.0-5.0-3.29","69829236d776a93cf3afa632","not_provided","desktop","0","0","0","","","","","","working_memory","","537","<img class='a' src=images/squares/black.png><div class=""fixation"">+</div>","k","","","test_squares","exp","29","8","s","false","sk","s","","","","","","",""
"html-keyboard-response","234","286941","0.0-5.0-5.0-4.29","69829236d776a93cf3afa632","not_provided","desktop","0","0","0","","","","","","working_memory","","null","<div class=""fixation"">Incorrect</div>","null","","","","","","","","","","","","","","","","",""
"html-keyboard-response","235","287948","0.0-5.0-5.0-0.30","69829236d776a93cf3afa632","not_provided","desktop","0","0","0","","","","","","working_memory","","null","<div class=""fixation"">+</div>","null","","","","","","","","","","","","","","","","",""
"html-keyboard-response","236","288160","0.0-5.0-5.0-1.30","69829236d776a93cf3afa632","not_provided","desktop","0","0","0","","","","","","working_memory","","null","<img class='a' src=images/squares/magenta.png><img class='c' src=images/squares/orange.png><img class='f' src=images/squares/black.png><img class='e' src=images/squares/red.png><img class='i' src=images/squares/green.png><img class='g' src=images/squares/brown.png><img class='j' src=images/squares/blue.png><img class='l' src=images/squares/cyan.png><div class=""fixation"">+</div>","null","","","memory","exp","30","","","","","","","","","","","",""
"html-keyboard-response","237","289071","0.0-5.0-5.0-2.30","69829236d776a93cf3afa632","not_provided","desktop","0","0","0","","","","","","working_memory","","null","<div class=""fixation"">+</div>","null","","","","","","","","","","","","","","","","",""
"html-keyboard-response","238","289826","0.0-5.0-5.0-3.30","69829236d776a93cf3afa632","not_provided","desktop","0","0","0","","","","","","working_memory","","755","<img class='g' src=images/squares/yellow.png><div class=""fixation"">+</div>","k","","","test_squares","exp","30","8","k","true","sk","d","","","","","","",""
"html-keyboard-response","239","290338","0.0-5.0-5.0-4.30","69829236d776a93cf3afa632","not_provided","desktop","0","0","0","","","","","","working_memory","","null","<div class=""fixation"">Correct</div>","null","","","","","","","","","","","","","","","","",""
"html-keyboard-response","240","291343","0.0-5.0-5.0-0.31","69829236d776a93cf3afa632","not_provided","desktop","0","0","0","","","","","","working_memory","","null","<div class=""fixation"">+</div>","null","","","","","","","","","","","","","","","","",""
"html-keyboard-response","241","291558","0.0-5.0-5.0-1.31","69829236d776a93cf3afa632","not_provided","desktop","0","0","0","","","","","","working_memory","","null","<img class='c' src=images/squares/magenta.png><img class='a' src=images/squares/brown.png><img class='e' src=images/squares/orange.png><img class='f' src=images/squares/yellow.png><img class='i' src=images/squares/blue.png><img class='h' src=images/squares/green.png><img class='l' src=images/squares/cyan.png><img class='j' src=images/squares/red.png><div class=""fixation"">+</div>","null","","","memory","exp","31","","","","","","","","","","","",""
"html-keyboard-response","242","292465","0.0-5.0-5.0-2.31","69829236d776a93cf3afa632","not_provided","desktop","0","0","0","","","","","","working_memory","","null","<div class=""fixation"">+</div>","null","","","","","","","","","","","","","","","","",""
"html-keyboard-response","243","293134","0.0-5.0-5.0-3.31","69829236d776a93cf3afa632","not_provided","desktop","0","0","0","","","","","","working_memory","","669","<img class='l' src=images/squares/black.png><div class=""fixation"">+</div>","k","","","test_squares","exp","31","8","k","true","sk","d","","","","","","",""
"html-keyboard-response","244","293636","0.0-5.0-5.0-4.31","69829236d776a93cf3afa632","not_provided","desktop","0","0","0","","","","","","working_memory","","null","<div class=""fixation"">Correct</div>","null","","","","","","","","","","","","","","","","",""
"html-keyboard-response","245","294648","0.0-5.0-5.0-0.32","69829236d776a93cf3afa632","not_provided","desktop","0","0","0","","","","","","working_memory","","null","<div class=""fixation"">+</div>","null","","","","","","","","","","","","","","","","",""
"html-keyboard-response","246","294859","0.0-5.0-5.0-1.32","69829236d776a93cf3afa632","not_provided","desktop","0","0","0","","","","","","working_memory","","null","<img class='b' src=images/squares/yellow.png><img class='d' src=images/squares/blue.png><img class='g' src=images/squares/cyan.png><img class='l' src=images/squares/brown.png><div class=""fixation"">+</div>","null","","","memory","exp","32","","","","","","","","","","","",""
"html-keyboard-response","247","295765","0.0-5.0-5.0-2.32","69829236d776a93cf3afa632","not_provided","desktop","0","0","0","","","","","","working_memory","","null","<div class=""fixation"">+</div>","null","","","","","","","","","","","","","","","","",""
"html-keyboard-response","248","296255","0.0-5.0-5.0-3.32","69829236d776a93cf3afa632","not_provided","desktop","0","0","0","","","","","","working_memory","","490","<img class='b' src=images/squares/yellow.png><div class=""fixation"">+</div>","s","","","test_squares","exp","32","4","s","true","sk","s","","","","","","",""
"html-keyboard-response","249","296757","0.0-5.0-5.0-4.32","69829236d776a93cf3afa632","not_provided","desktop","0","0","0","","","","","","working_memory","","null","<div class=""fixation"">Correct</div>","null","","","","","","","","","","","","","","","","",""
"html-keyboard-response","250","297759","0.0-5.0-5.0-0.33","69829236d776a93cf3afa632","not_provided","desktop","0","0","0","","","","","","working_memory","","null","<div class=""fixation"">+</div>","null","","","","","","","","","","","","","","","","",""
"html-keyboard-response","251","297972","0.0-5.0-5.0-1.33","69829236d776a93cf3afa632","not_provided","desktop","0","0","0","","","","","","working_memory","","null","<img class='c' src=images/squares/magenta.png><img class='f' src=images/squares/green.png><img class='g' src=images/squares/red.png><img class='k' src=images/squares/orange.png><div class=""fixation"">+</div>","null","","","memory","exp","33","","","","","","","","","","","",""
"html-keyboard-response","252","298882","0.0-5.0-5.0-2.33","69829236d776a93cf3afa632","not_provided","desktop","0","0","0","","","","","","working_memory","","null","<div class=""fixation"">+</div>","null","","","","","","","","","","","","","","","","",""
"html-keyboard-response","253","299453","0.0-5.0-5.0-3.33","69829236d776a93cf3afa632","not_provided","desktop","0","0","0","","","","","","working_memory","","571","<img class='g' src=images/squares/yellow.png><div class=""fixation"">+</div>","k","","","test_squares","exp","33","4","k","true","sk","d","","","","","","",""
"html-keyboard-response","254","299962","0.0-5.0-5.0-4.33","69829236d776a93cf3afa632","not_provided","desktop","0","0","0","","","","","","working_memory","","null","<div class=""fixation"">Correct</div>","null","","","","","","","","","","","","","","","","",""
"html-keyboard-response","255","300965","0.0-5.0-5.0-0.34","69829236d776a93cf3afa632","not_provided","desktop","0","0","0","","","","","","working_memory","","null","<div class=""fixation"">+</div>","null","","","","","","","","","","","","","","","","",""
"html-keyboard-response","256","301166","0.0-5.0-5.0-1.34","69829236d776a93cf3afa632","not_provided","desktop","0","0","0","","","","","","working_memory","","null","<img class='b' src=images/squares/magenta.png><img class='c' src=images/squares/orange.png><img class='f' src=images/squares/red.png><img class='d' src=images/squares/brown.png><img class='g' src=images/squares/black.png><img class='h' src=images/squares/blue.png><img class='l' src=images/squares/green.png><img class='j' src=images/squares/cyan.png><div class=""fixation"">+</div>","null","","","memory","exp","34","","","","","","","","","","","",""
"html-keyboard-response","257","302077","0.0-5.0-5.0-2.34","69829236d776a93cf3afa632","not_provided","desktop","0","0","0","","","","","","working_memory","","null","<div class=""fixation"">+</div>","null","","","","","","","","","","","","","","","","",""
"html-keyboard-response","258","302670","0.0-5.0-5.0-3.34","69829236d776a93cf3afa632","not_provided","desktop","0","0","0","","","","","","working_memory","","593","<img class='d' src=images/squares/brown.png><div class=""fixation"">+</div>","k","","","test_squares","exp","34","8","s","false","sk","s","","","","","","",""
"html-keyboard-response","259","303178","0.0-5.0-5.0-4.34","69829236d776a93cf3afa632","not_provided","desktop","0","0","0","","","","","","working_memory","","null","<div class=""fixation"">Incorrect</div>","null","","","","","","","","","","","","","","","","",""
"html-keyboard-response","260","304183","0.0-5.0-5.0-0.35","69829236d776a93cf3afa632","not_provided","desktop","0","0","0","","","","","","working_memory","","null","<div class=""fixation"">+</div>","null","","","","","","","","","","","","","","","","",""
"html-keyboard-response","261","304384","0.0-5.0-5.0-1.35","69829236d776a93cf3afa632","not_provided","desktop","0","0","0","","","","","","working_memory","","null","<img class='b' src=images/squares/brown.png><img class='f' src=images/squares/orange.png><img class='i' src=images/squares/cyan.png><img class='k' src=images/squares/magenta.png><div class=""fixation"">+</div>","null","","","memory","exp","35","","","","","","","","","","","",""
"html-keyboard-response","262","305297","0.0-5.0-5.0-2.35","69829236d776a93cf3afa632","not_provided","desktop","0","0","0","","","","","","working_memory","","null","<div class=""fixation"">+</div>","null","","","","","","","","","","","","","","","","",""
"html-keyboard-response","263","305743","0.0-5.0-5.0-3.35","69829236d776a93cf3afa632","not_provided","desktop","0","0","0","","","","","","working_memory","","445","<img class='b' src=images/squares/brown.png><div class=""fixation"">+</div>","s","","","test_squares","exp","35","4","s","true","sk","s","","","","","","",""
"html-keyboard-response","264","306254","0.0-5.0-5.0-4.35","69829236d776a93cf3afa632","not_provided","desktop","0","0","0","","","","","","working_memory","","null","<div class=""fixation"">Correct</div>","null","","","","","","","","","","","","","","","","",""
"html-keyboard-response","265","307263","0.0-5.0-5.0-0.36","69829236d776a93cf3afa632","not_provided","desktop","0","0","0","","","","","","working_memory","","null","<div class=""fixation"">+</div>","null","","","","","","","","","","","","","","","","",""
"html-keyboard-response","266","307466","0.0-5.0-5.0-1.36","69829236d776a93cf3afa632","not_provided","desktop","0","0","0","","","","","","working_memory","","null","<img class='c' src=images/squares/yellow.png><img class='b' src=images/squares/orange.png><img class='f' src=images/squares/black.png><img class='d' src=images/squares/green.png><img class='g' src=images/squares/red.png><img class='h' src=images/squares/cyan.png><img class='k' src=images/squares/blue.png><img class='l' src=images/squares/brown.png><div class=""fixation"">+</div>","null","","","memory","exp","36","","","","","","","","","","","",""
"html-keyboard-response","267","308367","0.0-5.0-5.0-2.36","69829236d776a93cf3afa632","not_provided","desktop","0","0","0","","","","","","working_memory","","null","<div class=""fixation"">+</div>","null","","","","","","","","","","","","","","","","",""
"html-keyboard-response","268","309018","0.0-5.0-5.0-3.36","69829236d776a93cf3afa632","not_provided","desktop","0","0","0","","","","","","working_memory","","650","<img class='g' src=images/squares/magenta.png><div class=""fixation"">+</div>","s","","","test_squares","exp","36","8","k","false","sk","d","","","","","","",""
"html-keyboard-response","269","309523","0.0-5.0-5.0-4.36","69829236d776a93cf3afa632","not_provided","desktop","0","0","0","","","","","","working_memory","","null","<div class=""fixation"">Incorrect</div>","null","","","","","","","","","","","","","","","","",""
"html-keyboard-response","270","310524","0.0-5.0-5.0-0.37","69829236d776a93cf3afa632","not_provided","desktop","0","0","0","","","","","","working_memory","","null","<div class=""fixation"">+</div>","null","","","","","","","","","","","","","","","","",""
"html-keyboard-response","271","310727","0.0-5.0-5.0-1.37","69829236d776a93cf3afa632","not_provided","desktop","0","0","0","","","","","","working_memory","","null","<img class='a' src=images/squares/green.png><img class='e' src=images/squares/red.png><img class='h' src=images/squares/magenta.png><img class='j' src=images/squares/yellow.png><div class=""fixation"">+</div>","null","","","memory","exp","37","","","","","","","","","","","",""
"html-keyboard-response","272","311636","0.0-5.0-5.0-2.37","69829236d776a93cf3afa632","not_provided","desktop","0","0","0","","","","","","working_memory","","null","<div class=""fixation"">+</div>","null","","","","","","","","","","","","","","","","",""
"html-keyboard-response","273","312208","0.0-5.0-5.0-3.37","69829236d776a93cf3afa632","not_provided","desktop","0","0","0","","","","","","working_memory","","572","<img class='j' src=images/squares/brown.png><div class=""fixation"">+</div>","s","","","test_squares","exp","37","4","k","false","sk","d","","","","","","",""
"html-keyboard-response","274","312716","0.0-5.0-5.0-4.37","69829236d776a93cf3afa632","not_provided","desktop","0","0","0","","","","","","working_memory","","null","<div class=""fixation"">Incorrect</div>","null","","","","","","","","","","","","","","","","",""
"html-keyboard-response","275","313719","0.0-5.0-5.0-0.38","69829236d776a93cf3afa632","not_provided","desktop","0","0","0","","","","","","working_memory","","null","<div class=""fixation"">+</div>","null","","","","","","","","","","","","","","","","",""
"html-keyboard-response","276","313922","0.0-5.0-5.0-1.38","69829236d776a93cf3afa632","not_provided","desktop","0","0","0","","","","","","working_memory","","null","<img class='c' src=images/squares/blue.png><img class='f' src=images/squares/yellow.png><img class='i' src=images/squares/magenta.png><img class='l' src=images/squares/cyan.png><div class=""fixation"">+</div>","null","","","memory","exp","38","","","","","","","","","","","",""
"html-keyboard-response","277","314831","0.0-5.0-5.0-2.38","69829236d776a93cf3afa632","not_provided","desktop","0","0","0","","","","","","working_memory","","null","<div class=""fixation"">+</div>","null","","","","","","","","","","","","","","","","",""
"html-keyboard-response","278","315390","0.0-5.0-5.0-3.38","69829236d776a93cf3afa632","not_provided","desktop","0","0","0","","","","","","working_memory","","560","<img class='l' src=images/squares/red.png><div class=""fixation"">+</div>","k","","","test_squares","exp","38","4","k","true","sk","d","","","","","","",""
"html-keyboard-response","279","315891","0.0-5.0-5.0-4.38","69829236d776a93cf3afa632","not_provided","desktop","0","0","0","","","","","","working_memory","","null","<div class=""fixation"">Correct</div>","null","","","","","","","","","","","","","","","","",""
"html-keyboard-response","280","316898","0.0-5.0-5.0-0.39","69829236d776a93cf3afa632","not_provided","desktop","0","0","0","","","","","","working_memory","","null","<div class=""fixation"">+</div>","null","","","","","","","","","","","","","","","","",""
"html-keyboard-response","281","317100","0.0-5.0-5.0-1.39","69829236d776a93cf3afa632","not_provided","desktop","0","0","0","","","","","","working_memory","","null","<img class='b' src=images/squares/black.png><img class='c' src=images/squares/cyan.png><img class='d' src=images/squares/red.png><img class='e' src=images/squares/yellow.png><img class='i' src=images/squares/magenta.png><img class='g' src=images/squares/blue.png><img class='k' src=images/squares/green.png><img class='j' src=images/squares/orange.png><div class=""fixation"">+</div>","null","","","memory","exp","39","","","","","","","","","","","",""
"html-keyboard-response","282","318006","0.0-5.0-5.0-2.39","69829236d776a93cf3afa632","not_provided","desktop","0","0","0","","","","","","working_memory","","null","<div class=""fixation"">+</div>","null","","","","","","","","","","","","","","","","",""
"html-keyboard-response","283","318747","0.0-5.0-5.0-3.39","69829236d776a93cf3afa632","not_provided","desktop","0","0","0","","","","","","working_memory","","740","<img class='b' src=images/squares/black.png><div class=""fixation"">+</div>","s","","","test_squares","exp","39","8","s","true","sk","s","","","","","","",""
"html-keyboard-response","284","319257","0.0-5.0-5.0-4.39","69829236d776a93cf3afa632","not_provided","desktop","0","0","0","","","","","","working_memory","","null","<div class=""fixation"">Correct</div>","null","","","","","","","","","","","","","","","","",""
"html-keyboard-response","285","320271","0.0-5.0-5.0-0.40","69829236d776a93cf3afa632","not_provided","desktop","0","0","0","","","","","","working_memory","","null","<div class=""fixation"">+</div>","null","","","","","","","","","","","","","","","","",""
"html-keyboard-response","286","320485","0.0-5.0-5.0-1.40","69829236d776a93cf3afa632","not_provided","desktop","0","0","0","","","","","","working_memory","","null","<img class='a' src=images/squares/green.png><img class='d' src=images/squares/orange.png><img class='i' src=images/squares/blue.png><img class='j' src=images/squares/yellow.png><div class=""fixation"">+</div>","null","","","memory","exp","40","","","","","","","","","","","",""
"html-keyboard-response","287","321385","0.0-5.0-5.0-2.40","69829236d776a93cf3afa632","not_provided","desktop","0","0","0","","","","","","working_memory","","null","<div class=""fixation"">+</div>","null","","","","","","","","","","","","","","","","",""
"html-keyboard-response","288","321979","0.0-5.0-5.0-3.40","69829236d776a93cf3afa632","not_provided","desktop","0","0","0","","","","","","working_memory","","593","<img class='j' src=images/squares/yellow.png><div class=""fixation"">+</div>","s","","","test_squares","exp","40","4","s","true","sk","s","","","","","","",""
"html-keyboard-response","289","322481","0.0-5.0-5.0-4.40","69829236d776a93cf3afa632","not_provided","desktop","0","0","0","","","","","","working_memory","","null","<div class=""fixation"">Correct</div>","null","","","","","","","","","","","","","","","","",""
"html-keyboard-response","290","323488","0.0-5.0-5.0-0.41","69829236d776a93cf3afa632","not_provided","desktop","0","0","0","","","","","","working_memory","","null","<div class=""fixation"">+</div>","null","","","","","","","","","","","","","","","","",""
"html-keyboard-response","291","323703","0.0-5.0-5.0-1.41","69829236d776a93cf3afa632","not_provided","desktop","0","0","0","","","","","","working_memory","","null","<img class='a' src=images/squares/cyan.png><img class='e' src=images/squares/brown.png><img class='i' src=images/squares/yellow.png><img class='j' src=images/squares/blue.png><div class=""fixation"">+</div>","null","","","memory","exp","41","","","","","","","","","","","",""
"html-keyboard-response","292","324607","0.0-5.0-5.0-2.41","69829236d776a93cf3afa632","not_provided","desktop","0","0","0","","","","","","working_memory","","null","<div class=""fixation"">+</div>","null","","","","","","","","","","","","","","","","",""
"html-keyboard-response","293","325168","0.0-5.0-5.0-3.41","69829236d776a93cf3afa632","not_provided","desktop","0","0","0","","","","","","working_memory","","560","<img class='j' src=images/squares/green.png><div class=""fixation"">+</div>","k","","","test_squares","exp","41","4","k","true","sk","d","","","","","","",""
"html-keyboard-response","294","325674","0.0-5.0-5.0-4.41","69829236d776a93cf3afa632","not_provided","desktop","0","0","0","","","","","","working_memory","","null","<div class=""fixation"">Correct</div>","null","","","","","","","","","","","","","","","","",""
"html-keyboard-response","295","326680","0.0-5.0-5.0-0.42","69829236d776a93cf3afa632","not_provided","desktop","0","0","0","","","","","","working_memory","","null","<div class=""fixation"">+</div>","null","","","","","","","","","","","","","","","","",""
"html-keyboard-response","296","326882","0.0-5.0-5.0-1.42","69829236d776a93cf3afa632","not_provided","desktop","0","0","0","","","","","","working_memory","","null","<img class='a' src=images/squares/blue.png><img class='b' src=images/squares/black.png><img class='d' src=images/squares/brown.png><img class='f' src=images/squares/yellow.png><img class='g' src=images/squares/cyan.png><img class='i' src=images/squares/orange.png><img class='j' src=images/squares/green.png><img class='l' src=images/squares/red.png><div class=""fixation"">+</div>","null","","","memory","exp","42","","","","","","","","","","","",""
"html-keyboard-response","297","327797","0.0-5.0-5.0-2.42","69829236d776a93cf3afa632","not_provided","desktop","0","0","0","","","","","","working_memory","","null","<div class=""fixation"">+</div>","null","","","","","","","","","","","","","","","","",""
"html-keyboard-response","298","328501","0.0-5.0-5.0-3.42","69829236d776a93cf3afa632","not_provided","desktop","0","0","0","","","","","","working_memory","","704","<img class='l' src=images/squares/magenta.png><div class=""fixation"">+</div>","k","","","test_squares","exp","42","8","k","true","sk","d","","","","","","",""
"html-keyboard-response","299","329005","0.0-5.0-5.0-4.42","69829236d776a93cf3afa632","not_provided","desktop","0","0","0","","","","","","working_memory","","null","<div class=""fixation"">Correct</div>","null","","","","","","","","","","","","","","","","",""
"html-keyboard-response","300","330007","0.0-5.0-5.0-0.43","69829236d776a93cf3afa632","not_provided","desktop","0","0","0","","","","","","working_memory","","null","<div class=""fixation"">+</div>","null","","","","","","","","","","","","","","","","",""
