"trial_type","trial_index","time_elapsed","internal_node_id","subject_id","study_id","device_type","blur_count","fullscreen_exit_count","failed_attention_checks","success","timeout","failed_images","failed_audio","failed_video","phase","value","rt","stimulus","response","view_history","question_order","trial_name","block_type","trial_num","set_size","correct_response","accuracy","mapping","condition","prompt","flipped","attention","expected_answer","category","question_index","task"
"pavlovia","0","1772","0.0-0.0","6980792fded33a62e27ce7cc","not_provided","desktop","0","0","0","","","","","","","","","","","","","","","","","","","","","","","","","","",""
"preload","1","2296","0.0-2.0","6980792fded33a62e27ce7cc","not_provided","desktop","0","0","0","true","false","[]","[]","[]","","","","","","","","","","","","","","","","","","","","","",""
"html-keyboard-response","2","7418","0.0-3.0-0.0","6980792fded33a62e27ce7cc","not_provided","desktop","0","0","0","","","","","","captcha","","","","","","","","","","","","","","","","","","","","",""
"fullscreen","3","11449","0.0-4.0","6980792fded33a62e27ce7cc","not_provided","desktop","0","0","0","true","","","","","setup","","","","","","","","","","","","","","","","","","","","",""
"call-function","4","11450","0.0-5.0-0.0","6980792fded33a62e27ce7cc","not_provided","desktop","0","0","0","","","","","","working_memory","","","","","","","","","","","","","","","","","","","","",""
"html-keyboard-response","5","21899","0.0-5.0-1.0","6980792fded33a62e27ce7cc","not_provided","desktop","0","0","0","","","","","","working_memory","","10449","<div style=""text-align:center;font-family:sans-serif;""><p>Welcome to the luck game experiment!</p><p>This two-day experiment takes part in a study aimed at developing better clinical treatments.</p><p>We appreciate your participation and require your full concentration.</p><br><p>This is a two-day study. Payment (£6/hour) is only given upon completing both parts today and tomorrow.</p><p>You must finish the second part for compensation. After today, you'll receive an invitation for tomorrow's session.</p><p>Please ensure you can attend both sessions before proceeding. Otherwise, you may exit now.</p><p>If you have any questions, please contact us via prolific.</p><br><p>Please stay attentive and in fullscreen mode to ensure payment.</p><p>Thank you for participating!</p><br><p id=""continue-prompt"" style=""visibility:hidden;""><b>Press any key to continue.</b></p></div>","enter","","","","","","","","","","","","","","","","",""
"instructions","6","57199","0.0-5.0-2.0-0.0","6980792fded33a62e27ce7cc","not_provided","desktop","0","0","0","","","","","","working_memory","","35299","","","[{""page_index"":0,""viewing_time"":2786},{""page_index"":1,""viewing_time"":1440},{""page_index"":2,""viewing_time"":4512},{""page_index"":3,""viewing_time"":4234},{""page_index"":4,""viewing_time"":4153},{""page_index"":5,""viewing_time"":9483},{""page_index"":6,""viewing_time"":4796},{""page_index"":7,""viewing_time"":1933},{""page_index"":8,""viewing_time"":1961}]","","","","","","","","","","","","","","","",""
"survey-multi-choice","7","82384","0.0-5.0-2.0-1.0","6980792fded33a62e27ce7cc","not_provided","desktop","0","0","0","","","","","","working_memory","","25184","","{""set_size"":""4 or 8"",""steps"":""True"",""choose_square"":""Press the 'k' or 's' key."",""remember"":""The colors and locations of the 'memory' squares"",""task"":""To tell if the 'test' square is in the same color as the square previously appearing in this location""}","","[0,1,2,3,4]","test_squares_quiz","","","","","","","","","","","","","",""
"html-keyboard-response","8","90408","0.0-5.0-3.0-0.0","6980792fded33a62e27ce7cc","not_provided","desktop","0","0","0","","","","","","working_memory","","8024","<p>We will now start some practice trials.<br><b>The practice trials will also include some trials in which you will need to remember only one square to make sure you understood the instructions.</b><br>You may already want to be ready with your fingers on '<b>s</b>' and '<b>k</b>'.<br><img class=""wm-example-img"" src=""images/examples/keyboard.png""><br><b style=""font-size:1.2em;"">&lsquo;K&rsquo; = SAME &nbsp;&nbsp;&nbsp; &lsquo;S&rsquo; = DIFFERENT</b><br><br><u>Please try to be as accurate as possible.</u><br><br><b>Press any key to begin</b></p>","k","","","","","","","","","","","","","","","","",""
"html-keyboard-response","9","92437","0.0-5.0-3.0-1.0-0.0","6980792fded33a62e27ce7cc","not_provided","desktop","0","0","0","","","","","","working_memory","","null","<div class=""fixation"">+</div>","null","","","","","","","","","","","","","","","","",""
"html-keyboard-response","10","92641","0.0-5.0-3.0-1.0-1.0","6980792fded33a62e27ce7cc","not_provided","desktop","0","0","0","","","","","","working_memory","","null","<img class='upper2' src=images/squares/blue.png><div class=""fixation"">+</div>","null","","","memory","practice","0","1","","","","","","","","","","",""
"html-keyboard-response","11","93545","0.0-5.0-3.0-1.0-2.0","6980792fded33a62e27ce7cc","not_provided","desktop","0","0","0","","","","","","working_memory","","null","<div class=""fixation"">+</div>","null","","","","","","","","","","","","","","","","",""
"html-keyboard-response","12","96036","0.0-5.0-3.0-1.0-3.0","6980792fded33a62e27ce7cc","not_provided","desktop","0","0","0","","","","","","working_memory","","2491","<img class='upper2' src=images/squares/orange.png><div class=""fixation"">+</div>","s","","","test","practice","0","1","s","true","","","","","","","","",""
"html-keyboard-response","13","96540","0.0-5.0-3.0-1.0-4.0","6980792fded33a62e27ce7cc","not_provided","desktop","0","0","0","","","","","","working_memory","","null","<div class=""fixation"">Correct</div>","null","","","","","","","","","","","","","","","","",""
"html-keyboard-response","14","97554","0.0-5.0-3.0-1.0-0.1","6980792fded33a62e27ce7cc","not_provided","desktop","0","0","0","","","","","","working_memory","","null","<div class=""fixation"">+</div>","null","","","","","","","","","","","","","","","","",""
"html-keyboard-response","15","97756","0.0-5.0-3.0-1.0-1.1","6980792fded33a62e27ce7cc","not_provided","desktop","0","0","0","","","","","","working_memory","","null","<img class='b' src=images/squares/magenta.png><img class='c' src=images/squares/brown.png><img class='d' src=images/squares/cyan.png><img class='f' src=images/squares/yellow.png><img class='h' src=images/squares/blue.png><img class='i' src=images/squares/red.png><img class='k' src=images/squares/green.png><img class='l' src=images/squares/orange.png><div class=""fixation"">+</div>","null","","","memory","practice","1","8","","","","","","","","","","",""
"html-keyboard-response","16","98663","0.0-5.0-3.0-1.0-2.1","6980792fded33a62e27ce7cc","not_provided","desktop","0","0","0","","","","","","working_memory","","null","<div class=""fixation"">+</div>","null","","","","","","","","","","","","","","","","",""
"html-keyboard-response","17","99887","0.0-5.0-3.0-1.0-3.1","6980792fded33a62e27ce7cc","not_provided","desktop","0","0","0","","","","","","working_memory","","1225","<img class='d' src=images/squares/cyan.png><div class=""fixation"">+</div>","k","","","test","practice","1","8","k","true","","","","","","","","",""
"html-keyboard-response","18","100400","0.0-5.0-3.0-1.0-4.1","6980792fded33a62e27ce7cc","not_provided","desktop","0","0","0","","","","","","working_memory","","null","<div class=""fixation"">Correct</div>","null","","","","","","","","","","","","","","","","",""
"html-keyboard-response","19","101406","0.0-5.0-3.0-1.0-0.2","6980792fded33a62e27ce7cc","not_provided","desktop","0","0","0","","","","","","working_memory","","null","<div class=""fixation"">+</div>","null","","","","","","","","","","","","","","","","",""
"html-keyboard-response","20","101609","0.0-5.0-3.0-1.0-1.2","6980792fded33a62e27ce7cc","not_provided","desktop","0","0","0","","","","","","working_memory","","null","<img class='c' src=images/squares/green.png><img class='d' src=images/squares/black.png><img class='h' src=images/squares/magenta.png><img class='j' src=images/squares/orange.png><div class=""fixation"">+</div>","null","","","memory","practice","2","4","","","","","","","","","","",""
"html-keyboard-response","21","102514","0.0-5.0-3.0-1.0-2.2","6980792fded33a62e27ce7cc","not_provided","desktop","0","0","0","","","","","","working_memory","","null","<div class=""fixation"">+</div>","null","","","","","","","","","","","","","","","","",""
"html-keyboard-response","22","103399","0.0-5.0-3.0-1.0-3.2","6980792fded33a62e27ce7cc","not_provided","desktop","0","0","0","","","","","","working_memory","","884","<img class='d' src=images/squares/black.png><div class=""fixation"">+</div>","k","","","test","practice","2","4","k","true","","","","","","","","",""
"html-keyboard-response","23","103901","0.0-5.0-3.0-1.0-4.2","6980792fded33a62e27ce7cc","not_provided","desktop","0","0","0","","","","","","working_memory","","null","<div class=""fixation"">Correct</div>","null","","","","","","","","","","","","","","","","",""
"html-keyboard-response","24","104915","0.0-5.0-3.0-1.0-0.3","6980792fded33a62e27ce7cc","not_provided","desktop","0","0","0","","","","","","working_memory","","null","<div class=""fixation"">+</div>","null","","","","","","","","","","","","","","","","",""
"html-keyboard-response","25","105119","0.0-5.0-3.0-1.0-1.3","6980792fded33a62e27ce7cc","not_provided","desktop","0","0","0","","","","","","working_memory","","null","<img class='c' src=images/squares/red.png><img class='a' src=images/squares/green.png><img class='f' src=images/squares/magenta.png><img class='e' src=images/squares/black.png><img class='h' src=images/squares/cyan.png><img class='i' src=images/squares/orange.png><img class='j' src=images/squares/yellow.png><img class='l' src=images/squares/brown.png><div class=""fixation"">+</div>","null","","","memory","practice","3","8","","","","","","","","","","",""
"html-keyboard-response","26","106023","0.0-5.0-3.0-1.0-2.3","6980792fded33a62e27ce7cc","not_provided","desktop","0","0","0","","","","","","working_memory","","null","<div class=""fixation"">+</div>","null","","","","","","","","","","","","","","","","",""
"html-keyboard-response","27","106645","0.0-5.0-3.0-1.0-3.3","6980792fded33a62e27ce7cc","not_provided","desktop","0","0","0","","","","","","working_memory","","622","<img class='a' src=images/squares/green.png><div class=""fixation"">+</div>","k","","","test","practice","3","8","k","true","","","","","","","","",""
"html-keyboard-response","28","107160","0.0-5.0-3.0-1.0-4.3","6980792fded33a62e27ce7cc","not_provided","desktop","0","0","0","","","","","","working_memory","","null","<div class=""fixation"">Correct</div>","null","","","","","","","","","","","","","","","","",""
"html-keyboard-response","29","108176","0.0-5.0-3.0-1.0-0.4","6980792fded33a62e27ce7cc","not_provided","desktop","0","0","0","","","","","","working_memory","","null","<div class=""fixation"">+</div>","null","","","","","","","","","","","","","","","","",""
"html-keyboard-response","30","108379","0.0-5.0-3.0-1.0-1.4","6980792fded33a62e27ce7cc","not_provided","desktop","0","0","0","","","","","","working_memory","","null","<img class='upper1' src=images/squares/black.png><div class=""fixation"">+</div>","null","","","memory","practice","4","1","","","","","","","","","","",""
"html-keyboard-response","31","109284","0.0-5.0-3.0-1.0-2.4","6980792fded33a62e27ce7cc","not_provided","desktop","0","0","0","","","","","","working_memory","","null","<div class=""fixation"">+</div>","null","","","","","","","","","","","","","","","","",""
"html-keyboard-response","32","110097","0.0-5.0-3.0-1.0-3.4","6980792fded33a62e27ce7cc","not_provided","desktop","0","0","0","","","","","","working_memory","","812","<img class='upper1' src=images/squares/brown.png><div class=""fixation"">+</div>","s","","","test","practice","4","1","s","true","","","","","","","","",""
"html-keyboard-response","33","110610","0.0-5.0-3.0-1.0-4.4","6980792fded33a62e27ce7cc","not_provided","desktop","0","0","0","","","","","","working_memory","","null","<div class=""fixation"">Correct</div>","null","","","","","","","","","","","","","","","","",""
"html-keyboard-response","34","111612","0.0-5.0-3.0-1.0-0.5","6980792fded33a62e27ce7cc","not_provided","desktop","0","0","0","","","","","","working_memory","","null","<div class=""fixation"">+</div>","null","","","","","","","","","","","","","","","","",""
"html-keyboard-response","35","111814","0.0-5.0-3.0-1.0-1.5","6980792fded33a62e27ce7cc","not_provided","desktop","0","0","0","","","","","","working_memory","","null","<img class='a' src=images/squares/green.png><img class='f' src=images/squares/magenta.png><img class='i' src=images/squares/black.png><img class='k' src=images/squares/blue.png><div class=""fixation"">+</div>","null","","","memory","practice","5","4","","","","","","","","","","",""
"html-keyboard-response","36","112719","0.0-5.0-3.0-1.0-2.5","6980792fded33a62e27ce7cc","not_provided","desktop","0","0","0","","","","","","working_memory","","null","<div class=""fixation"">+</div>","null","","","","","","","","","","","","","","","","",""
"html-keyboard-response","37","113437","0.0-5.0-3.0-1.0-3.5","6980792fded33a62e27ce7cc","not_provided","desktop","0","0","0","","","","","","working_memory","","718","<img class='a' src=images/squares/green.png><div class=""fixation"">+</div>","k","","","test","practice","5","4","k","true","","","","","","","","",""
"html-keyboard-response","38","113940","0.0-5.0-3.0-1.0-4.5","6980792fded33a62e27ce7cc","not_provided","desktop","0","0","0","","","","","","working_memory","","null","<div class=""fixation"">Correct</div>","null","","","","","","","","","","","","","","","","",""
"html-keyboard-response","39","114946","0.0-5.0-3.0-1.0-0.6","6980792fded33a62e27ce7cc","not_provided","desktop","0","0","0","","","","","","working_memory","","null","<div class=""fixation"">+</div>","null","","","","","","","","","","","","","","","","",""
"html-keyboard-response","40","115148","0.0-5.0-3.0-1.0-1.6","6980792fded33a62e27ce7cc","not_provided","desktop","0","0","0","","","","","","working_memory","","null","<img class='a' src=images/squares/blue.png><img class='f' src=images/squares/orange.png><img class='g' src=images/squares/magenta.png><img class='k' src=images/squares/red.png><div class=""fixation"">+</div>","null","","","memory","practice","6","4","","","","","","","","","","",""
"html-keyboard-response","41","116051","0.0-5.0-3.0-1.0-2.6","6980792fded33a62e27ce7cc","not_provided","desktop","0","0","0","","","","","","working_memory","","null","<div class=""fixation"">+</div>","null","","","","","","","","","","","","","","","","",""
"html-keyboard-response","42","116919","0.0-5.0-3.0-1.0-3.6","6980792fded33a62e27ce7cc","not_provided","desktop","0","0","0","","","","","","working_memory","","868","<img class='g' src=images/squares/yellow.png><div class=""fixation"">+</div>","s","","","test","practice","6","4","s","true","","","","","","","","",""
"html-keyboard-response","43","117424","0.0-5.0-3.0-1.0-4.6","6980792fded33a62e27ce7cc","not_provided","desktop","0","0","0","","","","","","working_memory","","null","<div class=""fixation"">Correct</div>","null","","","","","","","","","","","","","","","","",""
"html-keyboard-response","44","118431","0.0-5.0-3.0-1.0-0.7","6980792fded33a62e27ce7cc","not_provided","desktop","0","0","0","","","","","","working_memory","","null","<div class=""fixation"">+</div>","null","","","","","","","","","","","","","","","","",""
"html-keyboard-response","45","118634","0.0-5.0-3.0-1.0-1.7","6980792fded33a62e27ce7cc","not_provided","desktop","0","0","0","","","","","","working_memory","","null","<img class='lower2' src=images/squares/magenta.png><div class=""fixation"">+</div>","null","","","memory","practice","7","1","","","","","","","","","","",""
"html-keyboard-response","46","119547","0.0-5.0-3.0-1.0-2.7","6980792fded33a62e27ce7cc","not_provided","desktop","0","0","0","","","","","","working_memory","","null","<div class=""fixation"">+</div>","null","","","","","","","","","","","","","","","","",""
"html-keyboard-response","47","120278","0.0-5.0-3.0-1.0-3.7","6980792fded33a62e27ce7cc","not_provided","desktop","0","0","0","","","","","","working_memory","","731","<img class='lower2' src=images/squares/green.png><div class=""fixation"">+</div>","s","","","test","practice","7","1","s","true","","","","","","","","",""
"html-keyboard-response","48","120782","0.0-5.0-3.0-1.0-4.7","6980792fded33a62e27ce7cc","not_provided","desktop","0","0","0","","","","","","working_memory","","null","<div class=""fixation"">Correct</div>","null","","","","","","","","","","","","","","","","",""
"html-keyboard-response","49","121786","0.0-5.0-3.0-1.0-0.8","6980792fded33a62e27ce7cc","not_provided","desktop","0","0","0","","","","","","working_memory","","null","<div class=""fixation"">+</div>","null","","","","","","","","","","","","","","","","",""
"html-keyboard-response","50","121990","0.0-5.0-3.0-1.0-1.8","6980792fded33a62e27ce7cc","not_provided","desktop","0","0","0","","","","","","working_memory","","null","<img class='b' src=images/squares/magenta.png><img class='d' src=images/squares/orange.png><img class='g' src=images/squares/green.png><img class='k' src=images/squares/brown.png><div class=""fixation"">+</div>","null","","","memory","practice","8","4","","","","","","","","","","",""
"html-keyboard-response","51","122897","0.0-5.0-3.0-1.0-2.8","6980792fded33a62e27ce7cc","not_provided","desktop","0","0","0","","","","","","working_memory","","null","<div class=""fixation"">+</div>","null","","","","","","","","","","","","","","","","",""
"html-keyboard-response","52","123955","0.0-5.0-3.0-1.0-3.8","6980792fded33a62e27ce7cc","not_provided","desktop","0","0","0","","","","","","working_memory","","1057","<img class='b' src=images/squares/magenta.png><div class=""fixation"">+</div>","s","","","test","practice","8","4","k","false","","","","","","","","",""
"html-keyboard-response","53","124460","0.0-5.0-3.0-1.0-4.8","6980792fded33a62e27ce7cc","not_provided","desktop","0","0","0","","","","","","working_memory","","null","<div class=""fixation"">Incorrect</div>","null","","","","","","","","","","","","","","","","",""
"html-keyboard-response","54","125474","0.0-5.0-3.0-1.0-0.9","6980792fded33a62e27ce7cc","not_provided","desktop","0","0","0","","","","","","working_memory","","null","<div class=""fixation"">+</div>","null","","","","","","","","","","","","","","","","",""
"html-keyboard-response","55","125677","0.0-5.0-3.0-1.0-1.9","6980792fded33a62e27ce7cc","not_provided","desktop","0","0","0","","","","","","working_memory","","null","<img class='c' src=images/squares/magenta.png><img class='b' src=images/squares/brown.png><img class='f' src=images/squares/cyan.png><img class='e' src=images/squares/yellow.png><img class='g' src=images/squares/green.png><img class='h' src=images/squares/orange.png><img class='k' src=images/squares/red.png><img class='l' src=images/squares/blue.png><div class=""fixation"">+</div>","null","","","memory","practice","9","8","","","","","","","","","","",""
"html-keyboard-response","56","126582","0.0-5.0-3.0-1.0-2.9","6980792fded33a62e27ce7cc","not_provided","desktop","0","0","0","","","","","","working_memory","","null","<div class=""fixation"">+</div>","null","","","","","","","","","","","","","","","","",""
"html-keyboard-response","57","128323","0.0-5.0-3.0-1.0-3.9","6980792fded33a62e27ce7cc","not_provided","desktop","0","0","0","","","","","","working_memory","","1741","<img class='c' src=images/squares/magenta.png><div class=""fixation"">+</div>","k","","","test","practice","9","8","k","true","","","","","","","","",""
"html-keyboard-response","58","128825","0.0-5.0-3.0-1.0-4.9","6980792fded33a62e27ce7cc","not_provided","desktop","0","0","0","","","","","","working_memory","","null","<div class=""fixation"">Correct</div>","null","","","","","","","","","","","","","","","","",""
"html-keyboard-response","59","129830","0.0-5.0-3.0-1.0-0.10","6980792fded33a62e27ce7cc","not_provided","desktop","0","0","0","","","","","","working_memory","","null","<div class=""fixation"">+</div>","null","","","","","","","","","","","","","","","","",""
"html-keyboard-response","60","130033","0.0-5.0-3.0-1.0-1.10","6980792fded33a62e27ce7cc","not_provided","desktop","0","0","0","","","","","","working_memory","","null","<img class='c' src=images/squares/black.png><img class='b' src=images/squares/orange.png><img class='d' src=images/squares/magenta.png><img class='e' src=images/squares/green.png><img class='i' src=images/squares/brown.png><img class='g' src=images/squares/red.png><img class='k' src=images/squares/blue.png><img class='j' src=images/squares/cyan.png><div class=""fixation"">+</div>","null","","","memory","practice","10","8","","","","","","","","","","",""
"html-keyboard-response","61","130935","0.0-5.0-3.0-1.0-2.10","6980792fded33a62e27ce7cc","not_provided","desktop","0","0","0","","","","","","working_memory","","null","<div class=""fixation"">+</div>","null","","","","","","","","","","","","","","","","",""
"html-keyboard-response","62","132026","0.0-5.0-3.0-1.0-3.10","6980792fded33a62e27ce7cc","not_provided","desktop","0","0","0","","","","","","working_memory","","1090","<img class='c' src=images/squares/black.png><div class=""fixation"">+</div>","s","","","test","practice","10","8","k","false","","","","","","","","",""
"html-keyboard-response","63","132527","0.0-5.0-3.0-1.0-4.10","6980792fded33a62e27ce7cc","not_provided","desktop","0","0","0","","","","","","working_memory","","null","<div class=""fixation"">Incorrect</div>","null","","","","","","","","","","","","","","","","",""
"html-keyboard-response","64","133538","0.0-5.0-3.0-1.0-0.11","6980792fded33a62e27ce7cc","not_provided","desktop","0","0","0","","","","","","working_memory","","null","<div class=""fixation"">+</div>","null","","","","","","","","","","","","","","","","",""
"html-keyboard-response","65","133746","0.0-5.0-3.0-1.0-1.11","6980792fded33a62e27ce7cc","not_provided","desktop","0","0","0","","","","","","working_memory","","null","<img class='lower3' src=images/squares/blue.png><div class=""fixation"">+</div>","null","","","memory","practice","11","1","","","","","","","","","","",""
"html-keyboard-response","66","134661","0.0-5.0-3.0-1.0-2.11","6980792fded33a62e27ce7cc","not_provided","desktop","0","0","0","","","","","","working_memory","","null","<div class=""fixation"">+</div>","null","","","","","","","","","","","","","","","","",""
"html-keyboard-response","67","136214","0.0-5.0-3.0-1.0-3.11","6980792fded33a62e27ce7cc","not_provided","desktop","0","0","0","","","","","","working_memory","","1552","<img class='lower3' src=images/squares/cyan.png><div class=""fixation"">+</div>","s","","","test","practice","11","1","s","true","","","","","","","","",""
"html-keyboard-response","68","136729","0.0-5.0-3.0-1.0-4.11","6980792fded33a62e27ce7cc","not_provided","desktop","0","0","0","","","","","","working_memory","","null","<div class=""fixation"">Correct</div>","null","","","","","","","","","","","","","","","","",""
"html-keyboard-response","69","137733","0.0-5.0-3.0-1.0-0.12","6980792fded33a62e27ce7cc","not_provided","desktop","0","0","0","","","","","","working_memory","","null","<div class=""fixation"">+</div>","null","","","","","","","","","","","","","","","","",""
"html-keyboard-response","70","137937","0.0-5.0-3.0-1.0-1.12","6980792fded33a62e27ce7cc","not_provided","desktop","0","0","0","","","","","","working_memory","","null","<img class='a' src=images/squares/green.png><img class='c' src=images/squares/black.png><img class='f' src=images/squares/yellow.png><img class='e' src=images/squares/orange.png><img class='h' src=images/squares/blue.png><img class='g' src=images/squares/cyan.png><img class='l' src=images/squares/magenta.png><img class='j' src=images/squares/brown.png><div class=""fixation"">+</div>","null","","","memory","practice","12","8","","","","","","","","","","",""
"html-keyboard-response","71","138845","0.0-5.0-3.0-1.0-2.12","6980792fded33a62e27ce7cc","not_provided","desktop","0","0","0","","","","","","working_memory","","null","<div class=""fixation"">+</div>","null","","","","","","","","","","","","","","","","",""
"html-keyboard-response","72","140123","0.0-5.0-3.0-1.0-3.12","6980792fded33a62e27ce7cc","not_provided","desktop","0","0","0","","","","","","working_memory","","1278","<img class='g' src=images/squares/red.png><div class=""fixation"">+</div>","s","","","test","practice","12","8","s","true","","","","","","","","",""
"html-keyboard-response","73","140630","0.0-5.0-3.0-1.0-4.12","6980792fded33a62e27ce7cc","not_provided","desktop","0","0","0","","","","","","working_memory","","null","<div class=""fixation"">Correct</div>","null","","","","","","","","","","","","","","","","",""
"html-keyboard-response","74","141635","0.0-5.0-3.0-1.0-0.13","6980792fded33a62e27ce7cc","not_provided","desktop","0","0","0","","","","","","working_memory","","null","<div class=""fixation"">+</div>","null","","","","","","","","","","","","","","","","",""
"html-keyboard-response","75","141839","0.0-5.0-3.0-1.0-1.13","6980792fded33a62e27ce7cc","not_provided","desktop","0","0","0","","","","","","working_memory","","null","<img class='c' src=images/squares/magenta.png><img class='f' src=images/squares/black.png><img class='i' src=images/squares/cyan.png><img class='k' src=images/squares/orange.png><div class=""fixation"">+</div>","null","","","memory","practice","13","4","","","","","","","","","","",""
"html-keyboard-response","76","142744","0.0-5.0-3.0-1.0-2.13","6980792fded33a62e27ce7cc","not_provided","desktop","0","0","0","","","","","","working_memory","","null","<div class=""fixation"">+</div>","null","","","","","","","","","","","","","","","","",""
"html-keyboard-response","77","143824","0.0-5.0-3.0-1.0-3.13","6980792fded33a62e27ce7cc","not_provided","desktop","0","0","0","","","","","","working_memory","","1080","<img class='f' src=images/squares/black.png><div class=""fixation"">+</div>","k","","","test","practice","13","4","k","true","","","","","","","","",""
"html-keyboard-response","78","144338","0.0-5.0-3.0-1.0-4.13","6980792fded33a62e27ce7cc","not_provided","desktop","0","0","0","","","","","","working_memory","","null","<div class=""fixation"">Correct</div>","null","","","","","","","","","","","","","","","","",""
"html-keyboard-response","79","145347","0.0-5.0-3.0-1.0-0.14","6980792fded33a62e27ce7cc","not_provided","desktop","0","0","0","","","","","","working_memory","","null","<div class=""fixation"">+</div>","null","","","","","","","","","","","","","","","","",""
"html-keyboard-response","80","145549","0.0-5.0-3.0-1.0-1.14","6980792fded33a62e27ce7cc","not_provided","desktop","0","0","0","","","","","","working_memory","","null","<img class='b' src=images/squares/orange.png><img class='d' src=images/squares/brown.png><img class='i' src=images/squares/red.png><img class='k' src=images/squares/yellow.png><div class=""fixation"">+</div>","null","","","memory","practice","14","4","","","","","","","","","","",""
"html-keyboard-response","81","146454","0.0-5.0-3.0-1.0-2.14","6980792fded33a62e27ce7cc","not_provided","desktop","0","0","0","","","","","","working_memory","","null","<div class=""fixation"">+</div>","null","","","","","","","","","","","","","","","","",""
"html-keyboard-response","82","147187","0.0-5.0-3.0-1.0-3.14","6980792fded33a62e27ce7cc","not_provided","desktop","0","0","0","","","","","","working_memory","","733","<img class='i' src=images/squares/red.png><div class=""fixation"">+</div>","k","","","test","practice","14","4","k","true","","","","","","","","",""
"html-keyboard-response","83","147702","0.0-5.0-3.0-1.0-4.14","6980792fded33a62e27ce7cc","not_provided","desktop","0","0","0","","","","","","working_memory","","null","<div class=""fixation"">Correct</div>","null","","","","","","","","","","","","","","","","",""
"html-keyboard-response","84","152569","0.0-5.0-4.0","6980792fded33a62e27ce7cc","not_provided","desktop","0","0","0","","","","","","working_memory","","4867","<div style=""text-align:center;font-family:sans-serif;""><p>Good job! You have finished the practice.</p><p>We will now start the real experiment.</p><p>Please try to be as accurate as possible.</p><p><b><u>Note: random guessing may risk your payment.</u></b></p><br><p><b>Press any key to begin.</b></p></div>","k","","","","","","","","","","","","","","","","",""
"html-keyboard-response","85","153583","0.0-5.0-5.0-0.0","6980792fded33a62e27ce7cc","not_provided","desktop","0","0","0","","","","","","working_memory","","null","<div class=""fixation"">+</div>","null","","","","","","","","","","","","","","","","",""
"html-keyboard-response","86","153785","0.0-5.0-5.0-1.0","6980792fded33a62e27ce7cc","not_provided","desktop","0","0","0","","","","","","working_memory","","null","<img class='b' src=images/squares/brown.png><img class='f' src=images/squares/green.png><img class='i' src=images/squares/orange.png><img class='k' src=images/squares/black.png><div class=""fixation"">+</div>","null","","","memory","exp","0","","","","","","","","","","","",""
"html-keyboard-response","87","154688","0.0-5.0-5.0-2.0","6980792fded33a62e27ce7cc","not_provided","desktop","0","0","0","","","","","","working_memory","","null","<div class=""fixation"">+</div>","null","","","","","","","","","","","","","","","","",""
"html-keyboard-response","88","155600","0.0-5.0-5.0-3.0","6980792fded33a62e27ce7cc","not_provided","desktop","0","0","0","","","","","","working_memory","","912","<img class='i' src=images/squares/magenta.png><div class=""fixation"">+</div>","s","","","test_squares","exp","0","4","s","true","ks","d","","","","","","",""
"html-keyboard-response","89","156110","0.0-5.0-5.0-4.0","6980792fded33a62e27ce7cc","not_provided","desktop","0","0","0","","","","","","working_memory","","null","<div class=""fixation"">Correct</div>","null","","","","","","","","","","","","","","","","",""
"html-keyboard-response","90","157123","0.0-5.0-5.0-0.1","6980792fded33a62e27ce7cc","not_provided","desktop","0","0","0","","","","","","working_memory","","null","<div class=""fixation"">+</div>","null","","","","","","","","","","","","","","","","",""
"html-keyboard-response","91","157325","0.0-5.0-5.0-1.1","6980792fded33a62e27ce7cc","not_provided","desktop","0","0","0","","","","","","working_memory","","null","<img class='c' src=images/squares/magenta.png><img class='f' src=images/squares/cyan.png><img class='i' src=images/squares/green.png><img class='j' src=images/squares/blue.png><div class=""fixation"">+</div>","null","","","memory","exp","1","","","","","","","","","","","",""
"html-keyboard-response","92","158227","0.0-5.0-5.0-2.1","6980792fded33a62e27ce7cc","not_provided","desktop","0","0","0","","","","","","working_memory","","null","<div class=""fixation"">+</div>","null","","","","","","","","","","","","","","","","",""
"html-keyboard-response","93","159121","0.0-5.0-5.0-3.1","6980792fded33a62e27ce7cc","not_provided","desktop","0","0","0","","","","","","working_memory","","893","<img class='i' src=images/squares/green.png><div class=""fixation"">+</div>","s","","","test_squares","exp","1","4","k","false","ks","s","","","","","","",""
"html-keyboard-response","94","159635","0.0-5.0-5.0-4.1","6980792fded33a62e27ce7cc","not_provided","desktop","0","0","0","","","","","","working_memory","","null","<div class=""fixation"">Incorrect</div>","null","","","","","","","","","","","","","","","","",""
"html-keyboard-response","95","160637","0.0-5.0-5.0-0.2","6980792fded33a62e27ce7cc","not_provided","desktop","0","0","0","","","","","","working_memory","","null","<div class=""fixation"">+</div>","null","","","","","","","","","","","","","","","","",""
"html-keyboard-response","96","160840","0.0-5.0-5.0-1.2","6980792fded33a62e27ce7cc","not_provided","desktop","0","0","0","","","","","","working_memory","","null","<img class='c' src=images/squares/black.png><img class='b' src=images/squares/magenta.png><img class='f' src=images/squares/blue.png><img class='e' src=images/squares/yellow.png><img class='i' src=images/squares/red.png><img class='g' src=images/squares/orange.png><img class='l' src=images/squares/brown.png><img class='k' src=images/squares/green.png><div class=""fixation"">+</div>","null","","","memory","exp","2","","","","","","","","","","","",""
"html-keyboard-response","97","161746","0.0-5.0-5.0-2.2","6980792fded33a62e27ce7cc","not_provided","desktop","0","0","0","","","","","","working_memory","","null","<div class=""fixation"">+</div>","null","","","","","","","","","","","","","","","","",""
"html-keyboard-response","98","162842","0.0-5.0-5.0-3.2","6980792fded33a62e27ce7cc","not_provided","desktop","0","0","0","","","","","","working_memory","","1095","<img class='l' src=images/squares/brown.png><div class=""fixation"">+</div>","s","","","test_squares","exp","2","8","k","false","ks","s","","","","","","",""
"html-keyboard-response","99","163343","0.0-5.0-5.0-4.2","6980792fded33a62e27ce7cc","not_provided","desktop","0","0","0","","","","","","working_memory","","null","<div class=""fixation"">Incorrect</div>","null","","","","","","","","","","","","","","","","",""
"html-keyboard-response","100","164354","0.0-5.0-5.0-0.3","6980792fded33a62e27ce7cc","not_provided","desktop","0","0","0","","","","","","working_memory","","null","<div class=""fixation"">+</div>","null","","","","","","","","","","","","","","","","",""
"html-keyboard-response","101","164560","0.0-5.0-5.0-1.3","6980792fded33a62e27ce7cc","not_provided","desktop","0","0","0","","","","","","working_memory","","null","<img class='a' src=images/squares/yellow.png><img class='d' src=images/squares/cyan.png><img class='h' src=images/squares/orange.png><img class='j' src=images/squares/magenta.png><div class=""fixation"">+</div>","null","","","memory","exp","3","","","","","","","","","","","",""
"html-keyboard-response","102","165469","0.0-5.0-5.0-2.3","6980792fded33a62e27ce7cc","not_provided","desktop","0","0","0","","","","","","working_memory","","null","<div class=""fixation"">+</div>","null","","","","","","","","","","","","","","","","",""
"html-keyboard-response","103","166120","0.0-5.0-5.0-3.3","6980792fded33a62e27ce7cc","not_provided","desktop","0","0","0","","","","","","working_memory","","651","<img class='d' src=images/squares/cyan.png><div class=""fixation"">+</div>","k","","","test_squares","exp","3","4","k","true","ks","s","","","","","","",""
"html-keyboard-response","104","166623","0.0-5.0-5.0-4.3","6980792fded33a62e27ce7cc","not_provided","desktop","0","0","0","","","","","","working_memory","","null","<div class=""fixation"">Correct</div>","null","","","","","","","","","","","","","","","","",""
"html-keyboard-response","105","167631","0.0-5.0-5.0-0.4","6980792fded33a62e27ce7cc","not_provided","desktop","0","0","0","","","","","","working_memory","","null","<div class=""fixation"">+</div>","null","","","","","","","","","","","","","","","","",""
"html-keyboard-response","106","167833","0.0-5.0-5.0-1.4","6980792fded33a62e27ce7cc","not_provided","desktop","0","0","0","","","","","","working_memory","","null","<img class='b' src=images/squares/red.png><img class='a' src=images/squares/brown.png><img class='d' src=images/squares/magenta.png><img class='f' src=images/squares/green.png><img class='g' src=images/squares/black.png><img class='i' src=images/squares/yellow.png><img class='k' src=images/squares/blue.png><img class='j' src=images/squares/cyan.png><div class=""fixation"">+</div>","null","","","memory","exp","4","","","","","","","","","","","",""
"html-keyboard-response","107","168745","0.0-5.0-5.0-2.4","6980792fded33a62e27ce7cc","not_provided","desktop","0","0","0","","","","","","working_memory","","null","<div class=""fixation"">+</div>","null","","","","","","","","","","","","","","","","",""
"html-keyboard-response","108","169716","0.0-5.0-5.0-3.4","6980792fded33a62e27ce7cc","not_provided","desktop","0","0","0","","","","","","working_memory","","970","<img class='k' src=images/squares/blue.png><div class=""fixation"">+</div>","s","","","test_squares","exp","4","8","k","false","ks","s","","","","","","",""
"html-keyboard-response","109","170221","0.0-5.0-5.0-4.4","6980792fded33a62e27ce7cc","not_provided","desktop","0","0","0","","","","","","working_memory","","null","<div class=""fixation"">Incorrect</div>","null","","","","","","","","","","","","","","","","",""
"html-keyboard-response","110","171230","0.0-5.0-5.0-0.5","6980792fded33a62e27ce7cc","not_provided","desktop","0","0","0","","","","","","working_memory","","null","<div class=""fixation"">+</div>","null","","","","","","","","","","","","","","","","",""
"html-keyboard-response","111","171435","0.0-5.0-5.0-1.5","6980792fded33a62e27ce7cc","not_provided","desktop","0","0","0","","","","","","working_memory","","null","<img class='c' src=images/squares/cyan.png><img class='b' src=images/squares/red.png><img class='d' src=images/squares/brown.png><img class='e' src=images/squares/magenta.png><img class='g' src=images/squares/blue.png><img class='h' src=images/squares/yellow.png><img class='l' src=images/squares/green.png><img class='k' src=images/squares/black.png><div class=""fixation"">+</div>","null","","","memory","exp","5","","","","","","","","","","","",""
"html-keyboard-response","112","172343","0.0-5.0-5.0-2.5","6980792fded33a62e27ce7cc","not_provided","desktop","0","0","0","","","","","","working_memory","","null","<div class=""fixation"">+</div>","null","","","","","","","","","","","","","","","","",""
"html-keyboard-response","113","173399","0.0-5.0-5.0-3.5","6980792fded33a62e27ce7cc","not_provided","desktop","0","0","0","","","","","","working_memory","","1056","<img class='k' src=images/squares/orange.png><div class=""fixation"">+</div>","s","","","test_squares","exp","5","8","s","true","ks","d","","","","","","",""
"html-keyboard-response","114","173900","0.0-5.0-5.0-4.5","6980792fded33a62e27ce7cc","not_provided","desktop","0","0","0","","","","","","working_memory","","null","<div class=""fixation"">Correct</div>","null","","","","","","","","","","","","","","","","",""
"html-keyboard-response","115","174905","0.0-5.0-5.0-0.6","6980792fded33a62e27ce7cc","not_provided","desktop","0","0","0","","","","","","working_memory","","null","<div class=""fixation"">+</div>","null","","","","","","","","","","","","","","","","",""
"html-keyboard-response","116","175111","0.0-5.0-5.0-1.6","6980792fded33a62e27ce7cc","not_provided","desktop","0","0","0","","","","","","working_memory","","null","<img class='b' src=images/squares/blue.png><img class='c' src=images/squares/cyan.png><img class='d' src=images/squares/brown.png><img class='e' src=images/squares/magenta.png><img class='i' src=images/squares/green.png><img class='g' src=images/squares/yellow.png><img class='k' src=images/squares/red.png><img class='l' src=images/squares/black.png><div class=""fixation"">+</div>","null","","","memory","exp","6","","","","","","","","","","","",""
"html-keyboard-response","117","176017","0.0-5.0-5.0-2.6","6980792fded33a62e27ce7cc","not_provided","desktop","0","0","0","","","","","","working_memory","","null","<div class=""fixation"">+</div>","null","","","","","","","","","","","","","","","","",""
"html-keyboard-response","118","177205","0.0-5.0-5.0-3.6","6980792fded33a62e27ce7cc","not_provided","desktop","0","0","0","","","","","","working_memory","","1187","<img class='i' src=images/squares/orange.png><div class=""fixation"">+</div>","s","","","test_squares","exp","6","8","s","true","ks","d","","","","","","",""
"html-keyboard-response","119","177714","0.0-5.0-5.0-4.6","6980792fded33a62e27ce7cc","not_provided","desktop","0","0","0","","","","","","working_memory","","null","<div class=""fixation"">Correct</div>","null","","","","","","","","","","","","","","","","",""
"html-keyboard-response","120","178718","0.0-5.0-5.0-0.7","6980792fded33a62e27ce7cc","not_provided","desktop","0","0","0","","","","","","working_memory","","null","<div class=""fixation"">+</div>","null","","","","","","","","","","","","","","","","",""
"html-keyboard-response","121","178922","0.0-5.0-5.0-1.7","6980792fded33a62e27ce7cc","not_provided","desktop","0","0","0","","","","","","working_memory","","null","<img class='c' src=images/squares/red.png><img class='b' src=images/squares/blue.png><img class='d' src=images/squares/brown.png><img class='e' src=images/squares/orange.png><img class='i' src=images/squares/green.png><img class='g' src=images/squares/yellow.png><img class='l' src=images/squares/cyan.png><img class='k' src=images/squares/black.png><div class=""fixation"">+</div>","null","","","memory","exp","7","","","","","","","","","","","",""
"html-keyboard-response","122","179827","0.0-5.0-5.0-2.7","6980792fded33a62e27ce7cc","not_provided","desktop","0","0","0","","","","","","working_memory","","null","<div class=""fixation"">+</div>","null","","","","","","","","","","","","","","","","",""
"html-keyboard-response","123","181000","0.0-5.0-5.0-3.7","6980792fded33a62e27ce7cc","not_provided","desktop","0","0","0","","","","","","working_memory","","1172","<img class='c' src=images/squares/magenta.png><div class=""fixation"">+</div>","s","","","test_squares","exp","7","8","s","true","ks","d","","","","","","",""
"html-keyboard-response","124","181502","0.0-5.0-5.0-4.7","6980792fded33a62e27ce7cc","not_provided","desktop","0","0","0","","","","","","working_memory","","null","<div class=""fixation"">Correct</div>","null","","","","","","","","","","","","","","","","",""
"html-keyboard-response","125","182506","0.0-5.0-5.0-0.8","6980792fded33a62e27ce7cc","not_provided","desktop","0","0","0","","","","","","working_memory","","null","<div class=""fixation"">+</div>","null","","","","","","","","","","","","","","","","",""
"html-keyboard-response","126","182708","0.0-5.0-5.0-1.8","6980792fded33a62e27ce7cc","not_provided","desktop","0","0","0","","","","","","working_memory","","null","<img class='b' src=images/squares/orange.png><img class='f' src=images/squares/magenta.png><img class='i' src=images/squares/green.png><img class='j' src=images/squares/cyan.png><div class=""fixation"">+</div>","null","","","memory","exp","8","","","","","","","","","","","",""
"html-keyboard-response","127","183619","0.0-5.0-5.0-2.8","6980792fded33a62e27ce7cc","not_provided","desktop","0","0","0","","","","","","working_memory","","null","<div class=""fixation"">+</div>","null","","","","","","","","","","","","","","","","",""
"html-keyboard-response","128","184468","0.0-5.0-5.0-3.8","6980792fded33a62e27ce7cc","not_provided","desktop","0","0","0","","","","","","working_memory","","849","<img class='b' src=images/squares/blue.png><div class=""fixation"">+</div>","s","","","test_squares","exp","8","4","s","true","ks","d","","","","","","",""
"html-keyboard-response","129","184970","0.0-5.0-5.0-4.8","6980792fded33a62e27ce7cc","not_provided","desktop","0","0","0","","","","","","working_memory","","null","<div class=""fixation"">Correct</div>","null","","","","","","","","","","","","","","","","",""
"html-keyboard-response","130","185975","0.0-5.0-5.0-0.9","6980792fded33a62e27ce7cc","not_provided","desktop","0","0","0","","","","","","working_memory","","null","<div class=""fixation"">+</div>","null","","","","","","","","","","","","","","","","",""
"html-keyboard-response","131","186178","0.0-5.0-5.0-1.9","6980792fded33a62e27ce7cc","not_provided","desktop","0","0","0","","","","","","working_memory","","null","<img class='c' src=images/squares/blue.png><img class='f' src=images/squares/orange.png><img class='h' src=images/squares/yellow.png><img class='k' src=images/squares/brown.png><div class=""fixation"">+</div>","null","","","memory","exp","9","","","","","","","","","","","",""
"html-keyboard-response","132","187084","0.0-5.0-5.0-2.9","6980792fded33a62e27ce7cc","not_provided","desktop","0","0","0","","","","","","working_memory","","null","<div class=""fixation"">+</div>","null","","","","","","","","","","","","","","","","",""
"html-keyboard-response","133","187859","0.0-5.0-5.0-3.9","6980792fded33a62e27ce7cc","not_provided","desktop","0","0","0","","","","","","working_memory","","775","<img class='k' src=images/squares/magenta.png><div class=""fixation"">+</div>","s","","","test_squares","exp","9","4","s","true","ks","d","","","","","","",""
"html-keyboard-response","134","188372","0.0-5.0-5.0-4.9","6980792fded33a62e27ce7cc","not_provided","desktop","0","0","0","","","","","","working_memory","","null","<div class=""fixation"">Correct</div>","null","","","","","","","","","","","","","","","","",""
"html-keyboard-response","135","189381","0.0-5.0-5.0-0.10","6980792fded33a62e27ce7cc","not_provided","desktop","0","0","0","","","","","","working_memory","","null","<div class=""fixation"">+</div>","null","","","","","","","","","","","","","","","","",""
"html-keyboard-response","136","189587","0.0-5.0-5.0-1.10","6980792fded33a62e27ce7cc","not_provided","desktop","0","0","0","","","","","","working_memory","","null","<img class='b' src=images/squares/yellow.png><img class='f' src=images/squares/red.png><img class='i' src=images/squares/orange.png><img class='l' src=images/squares/cyan.png><div class=""fixation"">+</div>","null","","","memory","exp","10","","","","","","","","","","","",""
"html-keyboard-response","137","190494","0.0-5.0-5.0-2.10","6980792fded33a62e27ce7cc","not_provided","desktop","0","0","0","","","","","","working_memory","","null","<div class=""fixation"">+</div>","null","","","","","","","","","","","","","","","","",""
"html-keyboard-response","138","191234","0.0-5.0-5.0-3.10","6980792fded33a62e27ce7cc","not_provided","desktop","0","0","0","","","","","","working_memory","","739","<img class='l' src=images/squares/brown.png><div class=""fixation"">+</div>","s","","","test_squares","exp","10","4","s","true","ks","d","","","","","","",""
"html-keyboard-response","139","191746","0.0-5.0-5.0-4.10","6980792fded33a62e27ce7cc","not_provided","desktop","0","0","0","","","","","","working_memory","","null","<div class=""fixation"">Correct</div>","null","","","","","","","","","","","","","","","","",""
"html-keyboard-response","140","192752","0.0-5.0-5.0-0.11","6980792fded33a62e27ce7cc","not_provided","desktop","0","0","0","","","","","","working_memory","","null","<div class=""fixation"">+</div>","null","","","","","","","","","","","","","","","","",""
"html-keyboard-response","141","192964","0.0-5.0-5.0-1.11","6980792fded33a62e27ce7cc","not_provided","desktop","0","0","0","","","","","","working_memory","","null","<img class='c' src=images/squares/magenta.png><img class='a' src=images/squares/green.png><img class='f' src=images/squares/cyan.png><img class='d' src=images/squares/red.png><img class='h' src=images/squares/black.png><img class='g' src=images/squares/yellow.png><img class='l' src=images/squares/blue.png><img class='k' src=images/squares/brown.png><div class=""fixation"">+</div>","null","","","memory","exp","11","","","","","","","","","","","",""
"html-keyboard-response","142","193869","0.0-5.0-5.0-2.11","6980792fded33a62e27ce7cc","not_provided","desktop","0","0","0","","","","","","working_memory","","null","<div class=""fixation"">+</div>","null","","","","","","","","","","","","","","","","",""
"html-keyboard-response","143","194526","0.0-5.0-5.0-3.11","6980792fded33a62e27ce7cc","not_provided","desktop","0","0","0","","","","","","working_memory","","656","<img class='d' src=images/squares/red.png><div class=""fixation"">+</div>","k","","","test_squares","exp","11","8","k","true","ks","s","","","","","","",""
"html-keyboard-response","144","195027","0.0-5.0-5.0-4.11","6980792fded33a62e27ce7cc","not_provided","desktop","0","0","0","","","","","","working_memory","","null","<div class=""fixation"">Correct</div>","null","","","","","","","","","","","","","","","","",""
"html-keyboard-response","145","196029","0.0-5.0-5.0-0.12","6980792fded33a62e27ce7cc","not_provided","desktop","0","0","0","","","","","","working_memory","","null","<div class=""fixation"">+</div>","null","","","","","","","","","","","","","","","","",""
"html-keyboard-response","146","196233","0.0-5.0-5.0-1.12","6980792fded33a62e27ce7cc","not_provided","desktop","0","0","0","","","","","","working_memory","","null","<img class='c' src=images/squares/brown.png><img class='a' src=images/squares/cyan.png><img class='e' src=images/squares/blue.png><img class='d' src=images/squares/green.png><img class='h' src=images/squares/black.png><img class='g' src=images/squares/orange.png><img class='j' src=images/squares/magenta.png><img class='l' src=images/squares/red.png><div class=""fixation"">+</div>","null","","","memory","exp","12","","","","","","","","","","","",""
"html-keyboard-response","147","197141","0.0-5.0-5.0-2.12","6980792fded33a62e27ce7cc","not_provided","desktop","0","0","0","","","","","","working_memory","","null","<div class=""fixation"">+</div>","null","","","","","","","","","","","","","","","","",""
"html-keyboard-response","148","197936","0.0-5.0-5.0-3.12","6980792fded33a62e27ce7cc","not_provided","desktop","0","0","0","","","","","","working_memory","","794","<img class='a' src=images/squares/yellow.png><div class=""fixation"">+</div>","s","","","test_squares","exp","12","8","s","true","ks","d","","","","","","",""
"html-keyboard-response","149","198438","0.0-5.0-5.0-4.12","6980792fded33a62e27ce7cc","not_provided","desktop","0","0","0","","","","","","working_memory","","null","<div class=""fixation"">Correct</div>","null","","","","","","","","","","","","","","","","",""
"html-keyboard-response","150","199452","0.0-5.0-5.0-0.13","6980792fded33a62e27ce7cc","not_provided","desktop","0","0","0","","","","","","working_memory","","null","<div class=""fixation"">+</div>","null","","","","","","","","","","","","","","","","",""
"html-keyboard-response","151","199655","0.0-5.0-5.0-1.13","6980792fded33a62e27ce7cc","not_provided","desktop","0","0","0","","","","","","working_memory","","null","<img class='c' src=images/squares/brown.png><img class='b' src=images/squares/black.png><img class='e' src=images/squares/cyan.png><img class='f' src=images/squares/blue.png><img class='g' src=images/squares/red.png><img class='h' src=images/squares/orange.png><img class='k' src=images/squares/green.png><img class='l' src=images/squares/magenta.png><div class=""fixation"">+</div>","null","","","memory","exp","13","","","","","","","","","","","",""
"html-keyboard-response","152","200565","0.0-5.0-5.0-2.13","6980792fded33a62e27ce7cc","not_provided","desktop","0","0","0","","","","","","working_memory","","null","<div class=""fixation"">+</div>","null","","","","","","","","","","","","","","","","",""
"html-keyboard-response","153","201684","0.0-5.0-5.0-3.13","6980792fded33a62e27ce7cc","not_provided","desktop","0","0","0","","","","","","working_memory","","1119","<img class='k' src=images/squares/yellow.png><div class=""fixation"">+</div>","s","","","test_squares","exp","13","8","s","true","ks","d","","","","","","",""
"html-keyboard-response","154","202189","0.0-5.0-5.0-4.13","6980792fded33a62e27ce7cc","not_provided","desktop","0","0","0","","","","","","working_memory","","null","<div class=""fixation"">Correct</div>","null","","","","","","","","","","","","","","","","",""
"html-keyboard-response","155","203192","0.0-5.0-5.0-0.14","6980792fded33a62e27ce7cc","not_provided","desktop","0","0","0","","","","","","working_memory","","null","<div class=""fixation"">+</div>","null","","","","","","","","","","","","","","","","",""
"html-keyboard-response","156","203397","0.0-5.0-5.0-1.14","6980792fded33a62e27ce7cc","not_provided","desktop","0","0","0","","","","","","working_memory","","null","<img class='c' src=images/squares/black.png><img class='a' src=images/squares/yellow.png><img class='e' src=images/squares/green.png><img class='d' src=images/squares/orange.png><img class='h' src=images/squares/cyan.png><img class='i' src=images/squares/magenta.png><img class='l' src=images/squares/brown.png><img class='k' src=images/squares/red.png><div class=""fixation"">+</div>","null","","","memory","exp","14","","","","","","","","","","","",""
"html-keyboard-response","157","204309","0.0-5.0-5.0-2.14","6980792fded33a62e27ce7cc","not_provided","desktop","0","0","0","","","","","","working_memory","","null","<div class=""fixation"">+</div>","null","","","","","","","","","","","","","","","","",""
"html-keyboard-response","158","205469","0.0-5.0-5.0-3.14","6980792fded33a62e27ce7cc","not_provided","desktop","0","0","0","","","","","","working_memory","","1160","<img class='k' src=images/squares/blue.png><div class=""fixation"">+</div>","s","","","test_squares","exp","14","8","s","true","ks","d","","","","","","",""
"html-keyboard-response","159","205978","0.0-5.0-5.0-4.14","6980792fded33a62e27ce7cc","not_provided","desktop","0","0","0","","","","","","working_memory","","null","<div class=""fixation"">Correct</div>","null","","","","","","","","","","","","","","","","",""
"html-keyboard-response","160","206979","0.0-5.0-5.0-0.15","6980792fded33a62e27ce7cc","not_provided","desktop","0","0","0","","","","","","working_memory","","null","<div class=""fixation"">+</div>","null","","","","","","","","","","","","","","","","",""
"html-keyboard-response","161","207192","0.0-5.0-5.0-1.15","6980792fded33a62e27ce7cc","not_provided","desktop","0","0","0","","","","","","working_memory","","null","<img class='a' src=images/squares/magenta.png><img class='c' src=images/squares/blue.png><img class='d' src=images/squares/green.png><img class='e' src=images/squares/yellow.png><img class='i' src=images/squares/red.png><img class='h' src=images/squares/brown.png><img class='k' src=images/squares/cyan.png><img class='j' src=images/squares/black.png><div class=""fixation"">+</div>","null","","","memory","exp","15","","","","","","","","","","","",""
"html-keyboard-response","162","208104","0.0-5.0-5.0-2.15","6980792fded33a62e27ce7cc","not_provided","desktop","0","0","0","","","","","","working_memory","","null","<div class=""fixation"">+</div>","null","","","","","","","","","","","","","","","","",""
"html-keyboard-response","163","209136","0.0-5.0-5.0-3.15","6980792fded33a62e27ce7cc","not_provided","desktop","0","0","0","","","","","","working_memory","","1032","<img class='i' src=images/squares/orange.png><div class=""fixation"">+</div>","k","","","test_squares","exp","15","8","s","false","ks","d","","","","","","",""
"html-keyboard-response","164","209650","0.0-5.0-5.0-4.15","6980792fded33a62e27ce7cc","not_provided","desktop","0","0","0","","","","","","working_memory","","null","<div class=""fixation"">Incorrect</div>","null","","","","","","","","","","","","","","","","",""
"html-keyboard-response","165","210651","0.0-5.0-5.0-0.16","6980792fded33a62e27ce7cc","not_provided","desktop","0","0","0","","","","","","working_memory","","null","<div class=""fixation"">+</div>","null","","","","","","","","","","","","","","","","",""
"html-keyboard-response","166","210868","0.0-5.0-5.0-1.16","6980792fded33a62e27ce7cc","not_provided","desktop","0","0","0","","","","","","working_memory","","null","<img class='b' src=images/squares/cyan.png><img class='a' src=images/squares/green.png><img class='f' src=images/squares/magenta.png><img class='d' src=images/squares/brown.png><img class='h' src=images/squares/blue.png><img class='g' src=images/squares/red.png><img class='j' src=images/squares/yellow.png><img class='k' src=images/squares/black.png><div class=""fixation"">+</div>","null","","","memory","exp","16","","","","","","","","","","","",""
"html-keyboard-response","167","211769","0.0-5.0-5.0-2.16","6980792fded33a62e27ce7cc","not_provided","desktop","0","0","0","","","","","","working_memory","","null","<div class=""fixation"">+</div>","null","","","","","","","","","","","","","","","","",""
"html-keyboard-response","168","212980","0.0-5.0-5.0-3.16","6980792fded33a62e27ce7cc","not_provided","desktop","0","0","0","","","","","","working_memory","","1210","<img class='f' src=images/squares/orange.png><div class=""fixation"">+</div>","s","","","test_squares","exp","16","8","s","true","ks","d","","","","","","",""
"html-keyboard-response","169","213496","0.0-5.0-5.0-4.16","6980792fded33a62e27ce7cc","not_provided","desktop","0","0","0","","","","","","working_memory","","null","<div class=""fixation"">Correct</div>","null","","","","","","","","","","","","","","","","",""
"html-keyboard-response","170","214497","0.0-5.0-5.0-0.17","6980792fded33a62e27ce7cc","not_provided","desktop","0","0","0","","","","","","working_memory","","null","<div class=""fixation"">+</div>","null","","","","","","","","","","","","","","","","",""
"html-keyboard-response","171","214702","0.0-5.0-5.0-1.17","6980792fded33a62e27ce7cc","not_provided","desktop","0","0","0","","","","","","working_memory","","null","<img class='a' src=images/squares/orange.png><img class='c' src=images/squares/brown.png><img class='f' src=images/squares/yellow.png><img class='d' src=images/squares/red.png><img class='h' src=images/squares/cyan.png><img class='i' src=images/squares/black.png><img class='j' src=images/squares/green.png><img class='k' src=images/squares/blue.png><div class=""fixation"">+</div>","null","","","memory","exp","17","","","","","","","","","","","",""
"html-keyboard-response","172","215609","0.0-5.0-5.0-2.17","6980792fded33a62e27ce7cc","not_provided","desktop","0","0","0","","","","","","working_memory","","null","<div class=""fixation"">+</div>","null","","","","","","","","","","","","","","","","",""
"html-keyboard-response","173","216626","0.0-5.0-5.0-3.17","6980792fded33a62e27ce7cc","not_provided","desktop","0","0","0","","","","","","working_memory","","1017","<img class='c' src=images/squares/magenta.png><div class=""fixation"">+</div>","s","","","test_squares","exp","17","8","s","true","ks","d","","","","","","",""
"html-keyboard-response","174","217131","0.0-5.0-5.0-4.17","6980792fded33a62e27ce7cc","not_provided","desktop","0","0","0","","","","","","working_memory","","null","<div class=""fixation"">Correct</div>","null","","","","","","","","","","","","","","","","",""
"html-keyboard-response","175","218146","0.0-5.0-5.0-0.18","6980792fded33a62e27ce7cc","not_provided","desktop","0","0","0","","","","","","working_memory","","null","<div class=""fixation"">+</div>","null","","","","","","","","","","","","","","","","",""
"html-keyboard-response","176","218350","0.0-5.0-5.0-1.18","6980792fded33a62e27ce7cc","not_provided","desktop","0","0","0","","","","","","working_memory","","null","<img class='a' src=images/squares/yellow.png><img class='b' src=images/squares/brown.png><img class='e' src=images/squares/black.png><img class='d' src=images/squares/green.png><img class='g' src=images/squares/cyan.png><img class='i' src=images/squares/magenta.png><img class='j' src=images/squares/blue.png><img class='l' src=images/squares/red.png><div class=""fixation"">+</div>","null","","","memory","exp","18","","","","","","","","","","","",""
"html-keyboard-response","177","219259","0.0-5.0-5.0-2.18","6980792fded33a62e27ce7cc","not_provided","desktop","0","0","0","","","","","","working_memory","","null","<div class=""fixation"">+</div>","null","","","","","","","","","","","","","","","","",""
"html-keyboard-response","178","220048","0.0-5.0-5.0-3.18","6980792fded33a62e27ce7cc","not_provided","desktop","0","0","0","","","","","","working_memory","","787","<img class='j' src=images/squares/orange.png><div class=""fixation"">+</div>","s","","","test_squares","exp","18","8","s","true","ks","d","","","","","","",""
"html-keyboard-response","179","220559","0.0-5.0-5.0-4.18","6980792fded33a62e27ce7cc","not_provided","desktop","0","0","0","","","","","","working_memory","","null","<div class=""fixation"">Correct</div>","null","","","","","","","","","","","","","","","","",""
"html-keyboard-response","180","221574","0.0-5.0-5.0-0.19","6980792fded33a62e27ce7cc","not_provided","desktop","0","0","0","","","","","","working_memory","","null","<div class=""fixation"">+</div>","null","","","","","","","","","","","","","","","","",""
"html-keyboard-response","181","221776","0.0-5.0-5.0-1.19","6980792fded33a62e27ce7cc","not_provided","desktop","0","0","0","","","","","","working_memory","","null","<img class='b' src=images/squares/brown.png><img class='e' src=images/squares/yellow.png><img class='h' src=images/squares/red.png><img class='l' src=images/squares/orange.png><div class=""fixation"">+</div>","null","","","memory","exp","19","","","","","","","","","","","",""
"html-keyboard-response","182","222686","0.0-5.0-5.0-2.19","6980792fded33a62e27ce7cc","not_provided","desktop","0","0","0","","","","","","working_memory","","null","<div class=""fixation"">+</div>","null","","","","","","","","","","","","","","","","",""
"html-keyboard-response","183","223327","0.0-5.0-5.0-3.19","6980792fded33a62e27ce7cc","not_provided","desktop","0","0","0","","","","","","working_memory","","640","<img class='e' src=images/squares/yellow.png><div class=""fixation"">+</div>","k","","","test_squares","exp","19","4","k","true","ks","s","","","","","","",""
"html-keyboard-response","184","223830","0.0-5.0-5.0-4.19","6980792fded33a62e27ce7cc","not_provided","desktop","0","0","0","","","","","","working_memory","","null","<div class=""fixation"">Correct</div>","null","","","","","","","","","","","","","","","","",""
"html-keyboard-response","185","224833","0.0-5.0-5.0-0.20","6980792fded33a62e27ce7cc","not_provided","desktop","0","0","0","","","","","","working_memory","","null","<div class=""fixation"">+</div>","null","","","","","","","","","","","","","","","","",""
"html-keyboard-response","186","225036","0.0-5.0-5.0-1.20","6980792fded33a62e27ce7cc","not_provided","desktop","0","0","0","","","","","","working_memory","","null","<img class='c' src=images/squares/black.png><img class='a' src=images/squares/brown.png><img class='f' src=images/squares/red.png><img class='e' src=images/squares/blue.png><img class='g' src=images/squares/magenta.png><img class='i' src=images/squares/orange.png><img class='l' src=images/squares/green.png><img class='k' src=images/squares/yellow.png><div class=""fixation"">+</div>","null","","","memory","exp","20","","","","","","","","","","","",""
"html-keyboard-response","187","225942","0.0-5.0-5.0-2.20","6980792fded33a62e27ce7cc","not_provided","desktop","0","0","0","","","","","","working_memory","","null","<div class=""fixation"">+</div>","null","","","","","","","","","","","","","","","","",""
"html-keyboard-response","188","226947","0.0-5.0-5.0-3.20","6980792fded33a62e27ce7cc","not_provided","desktop","0","0","0","","","","","","working_memory","","1004","<img class='i' src=images/squares/orange.png><div class=""fixation"">+</div>","k","","","test_squares","exp","20","8","k","true","ks","s","","","","","","",""
"html-keyboard-response","189","227450","0.0-5.0-5.0-4.20","6980792fded33a62e27ce7cc","not_provided","desktop","0","0","0","","","","","","working_memory","","null","<div class=""fixation"">Correct</div>","null","","","","","","","","","","","","","","","","",""
"html-keyboard-response","190","228460","0.0-5.0-5.0-0.21","6980792fded33a62e27ce7cc","not_provided","desktop","0","0","0","","","","","","working_memory","","null","<div class=""fixation"">+</div>","null","","","","","","","","","","","","","","","","",""
"html-keyboard-response","191","228665","0.0-5.0-5.0-1.21","6980792fded33a62e27ce7cc","not_provided","desktop","0","0","0","","","","","","working_memory","","null","<img class='b' src=images/squares/brown.png><img class='e' src=images/squares/green.png><img class='i' src=images/squares/red.png><img class='l' src=images/squares/black.png><div class=""fixation"">+</div>","null","","","memory","exp","21","","","","","","","","","","","",""
"html-keyboard-response","192","229575","0.0-5.0-5.0-2.21","6980792fded33a62e27ce7cc","not_provided","desktop","0","0","0","","","","","","working_memory","","null","<div class=""fixation"">+</div>","null","","","","","","","","","","","","","","","","",""
"html-keyboard-response","193","230332","0.0-5.0-5.0-3.21","6980792fded33a62e27ce7cc","not_provided","desktop","0","0","0","","","","","","working_memory","","756","<img class='i' src=images/squares/cyan.png><div class=""fixation"">+</div>","s","","","test_squares","exp","21","4","s","true","ks","d","","","","","","",""
"html-keyboard-response","194","230844","0.0-5.0-5.0-4.21","6980792fded33a62e27ce7cc","not_provided","desktop","0","0","0","","","","","","working_memory","","null","<div class=""fixation"">Correct</div>","null","","","","","","","","","","","","","","","","",""
"html-keyboard-response","195","231858","0.0-5.0-5.0-0.22","6980792fded33a62e27ce7cc","not_provided","desktop","0","0","0","","","","","","working_memory","","null","<div class=""fixation"">+</div>","null","","","","","","","","","","","","","","","","",""
"html-keyboard-response","196","232063","0.0-5.0-5.0-1.22","6980792fded33a62e27ce7cc","not_provided","desktop","0","0","0","","","","","","working_memory","","null","<img class='a' src=images/squares/orange.png><img class='f' src=images/squares/red.png><img class='g' src=images/squares/black.png><img class='k' src=images/squares/brown.png><div class=""fixation"">+</div>","null","","","memory","exp","22","","","","","","","","","","","",""
"html-keyboard-response","197","232969","0.0-5.0-5.0-2.22","6980792fded33a62e27ce7cc","not_provided","desktop","0","0","0","","","","","","working_memory","","null","<div class=""fixation"">+</div>","null","","","","","","","","","","","","","","","","",""
"html-keyboard-response","198","233624","0.0-5.0-5.0-3.22","6980792fded33a62e27ce7cc","not_provided","desktop","0","0","0","","","","","","working_memory","","655","<img class='k' src=images/squares/blue.png><div class=""fixation"">+</div>","s","","","test_squares","exp","22","4","s","true","ks","d","","","","","","",""
"html-keyboard-response","199","234128","0.0-5.0-5.0-4.22","6980792fded33a62e27ce7cc","not_provided","desktop","0","0","0","","","","","","working_memory","","null","<div class=""fixation"">Correct</div>","null","","","","","","","","","","","","","","","","",""
"html-keyboard-response","200","235133","0.0-5.0-5.0-0.23","6980792fded33a62e27ce7cc","not_provided","desktop","0","0","0","","","","","","working_memory","","null","<div class=""fixation"">+</div>","null","","","","","","","","","","","","","","","","",""
"html-keyboard-response","201","235337","0.0-5.0-5.0-1.23","6980792fded33a62e27ce7cc","not_provided","desktop","0","0","0","","","","","","working_memory","","null","<img class='a' src=images/squares/red.png><img class='c' src=images/squares/black.png><img class='e' src=images/squares/orange.png><img class='f' src=images/squares/blue.png><img class='g' src=images/squares/brown.png><img class='h' src=images/squares/yellow.png><img class='l' src=images/squares/green.png><img class='k' src=images/squares/magenta.png><div class=""fixation"">+</div>","null","","","memory","exp","23","","","","","","","","","","","",""
"html-keyboard-response","202","236247","0.0-5.0-5.0-2.23","6980792fded33a62e27ce7cc","not_provided","desktop","0","0","0","","","","","","working_memory","","null","<div class=""fixation"">+</div>","null","","","","","","","","","","","","","","","","",""
"html-keyboard-response","203","237384","0.0-5.0-5.0-3.23","6980792fded33a62e27ce7cc","not_provided","desktop","0","0","0","","","","","","working_memory","","1136","<img class='c' src=images/squares/cyan.png><div class=""fixation"">+</div>","s","","","test_squares","exp","23","8","s","true","ks","d","","","","","","",""
"html-keyboard-response","204","237895","0.0-5.0-5.0-4.23","6980792fded33a62e27ce7cc","not_provided","desktop","0","0","0","","","","","","working_memory","","null","<div class=""fixation"">Correct</div>","null","","","","","","","","","","","","","","","","",""
"html-keyboard-response","205","238909","0.0-5.0-5.0-0.24","6980792fded33a62e27ce7cc","not_provided","desktop","0","0","0","","","","","","working_memory","","null","<div class=""fixation"">+</div>","null","","","","","","","","","","","","","","","","",""
"html-keyboard-response","206","239112","0.0-5.0-5.0-1.24","6980792fded33a62e27ce7cc","not_provided","desktop","0","0","0","","","","","","working_memory","","null","<img class='b' src=images/squares/black.png><img class='d' src=images/squares/blue.png><img class='i' src=images/squares/yellow.png><img class='l' src=images/squares/orange.png><div class=""fixation"">+</div>","null","","","memory","exp","24","","","","","","","","","","","",""
"html-keyboard-response","207","240024","0.0-5.0-5.0-2.24","6980792fded33a62e27ce7cc","not_provided","desktop","0","0","0","","","","","","working_memory","","null","<div class=""fixation"">+</div>","null","","","","","","","","","","","","","","","","",""
"html-keyboard-response","208","240758","0.0-5.0-5.0-3.24","6980792fded33a62e27ce7cc","not_provided","desktop","0","0","0","","","","","","working_memory","","734","<img class='l' src=images/squares/red.png><div class=""fixation"">+</div>","s","","","test_squares","exp","24","4","s","true","ks","d","","","","","","",""
"html-keyboard-response","209","241262","0.0-5.0-5.0-4.24","6980792fded33a62e27ce7cc","not_provided","desktop","0","0","0","","","","","","working_memory","","null","<div class=""fixation"">Correct</div>","null","","","","","","","","","","","","","","","","",""
"html-keyboard-response","210","242272","0.0-5.0-5.0-0.25","6980792fded33a62e27ce7cc","not_provided","desktop","0","0","0","","","","","","working_memory","","null","<div class=""fixation"">+</div>","null","","","","","","","","","","","","","","","","",""
"html-keyboard-response","211","242474","0.0-5.0-5.0-1.25","6980792fded33a62e27ce7cc","not_provided","desktop","0","0","0","","","","","","working_memory","","null","<img class='b' src=images/squares/magenta.png><img class='e' src=images/squares/blue.png><img class='h' src=images/squares/yellow.png><img class='k' src=images/squares/brown.png><div class=""fixation"">+</div>","null","","","memory","exp","25","","","","","","","","","","","",""
"html-keyboard-response","212","243388","0.0-5.0-5.0-2.25","6980792fded33a62e27ce7cc","not_provided","desktop","0","0","0","","","","","","working_memory","","null","<div class=""fixation"">+</div>","null","","","","","","","","","","","","","","","","",""
"html-keyboard-response","213","244324","0.0-5.0-5.0-3.25","6980792fded33a62e27ce7cc","not_provided","desktop","0","0","0","","","","","","working_memory","","936","<img class='e' src=images/squares/red.png><div class=""fixation"">+</div>","s","","","test_squares","exp","25","4","s","true","ks","d","","","","","","",""
"html-keyboard-response","214","244832","0.0-5.0-5.0-4.25","6980792fded33a62e27ce7cc","not_provided","desktop","0","0","0","","","","","","working_memory","","null","<div class=""fixation"">Correct</div>","null","","","","","","","","","","","","","","","","",""
"html-keyboard-response","215","245849","0.0-5.0-5.0-0.26","6980792fded33a62e27ce7cc","not_provided","desktop","0","0","0","","","","","","working_memory","","null","<div class=""fixation"">+</div>","null","","","","","","","","","","","","","","","","",""
"html-keyboard-response","216","246052","0.0-5.0-5.0-1.26","6980792fded33a62e27ce7cc","not_provided","desktop","0","0","0","","","","","","working_memory","","null","<img class='a' src=images/squares/cyan.png><img class='f' src=images/squares/red.png><img class='h' src=images/squares/yellow.png><img class='l' src=images/squares/black.png><div class=""fixation"">+</div>","null","","","memory","exp","26","","","","","","","","","","","",""
"html-keyboard-response","217","246958","0.0-5.0-5.0-2.26","6980792fded33a62e27ce7cc","not_provided","desktop","0","0","0","","","","","","working_memory","","null","<div class=""fixation"">+</div>","null","","","","","","","","","","","","","","","","",""
"html-keyboard-response","218","247612","0.0-5.0-5.0-3.26","6980792fded33a62e27ce7cc","not_provided","desktop","0","0","0","","","","","","working_memory","","654","<img class='a' src=images/squares/cyan.png><div class=""fixation"">+</div>","k","","","test_squares","exp","26","4","k","true","ks","s","","","","","","",""
"html-keyboard-response","219","248121","0.0-5.0-5.0-4.26","6980792fded33a62e27ce7cc","not_provided","desktop","0","0","0","","","","","","working_memory","","null","<div class=""fixation"">Correct</div>","null","","","","","","","","","","","","","","","","",""
"html-keyboard-response","220","249129","0.0-5.0-5.0-0.27","6980792fded33a62e27ce7cc","not_provided","desktop","0","0","0","","","","","","working_memory","","null","<div class=""fixation"">+</div>","null","","","","","","","","","","","","","","","","",""
"html-keyboard-response","221","249333","0.0-5.0-5.0-1.27","6980792fded33a62e27ce7cc","not_provided","desktop","0","0","0","","","","","","working_memory","","null","<img class='c' src=images/squares/orange.png><img class='f' src=images/squares/magenta.png><img class='g' src=images/squares/cyan.png><img class='k' src=images/squares/red.png><div class=""fixation"">+</div>","null","","","memory","exp","27","","","","","","","","","","","",""
"html-keyboard-response","222","250240","0.0-5.0-5.0-2.27","6980792fded33a62e27ce7cc","not_provided","desktop","0","0","0","","","","","","working_memory","","null","<div class=""fixation"">+</div>","null","","","","","","","","","","","","","","","","",""
"html-keyboard-response","223","251061","0.0-5.0-5.0-3.27","6980792fded33a62e27ce7cc","not_provided","desktop","0","0","0","","","","","","working_memory","","821","<img class='c' src=images/squares/orange.png><div class=""fixation"">+</div>","s","","","test_squares","exp","27","4","k","false","ks","s","","","","","","",""
"html-keyboard-response","224","251572","0.0-5.0-5.0-4.27","6980792fded33a62e27ce7cc","not_provided","desktop","0","0","0","","","","","","working_memory","","null","<div class=""fixation"">Incorrect</div>","null","","","","","","","","","","","","","","","","",""
"html-keyboard-response","225","252584","0.0-5.0-5.0-0.28","6980792fded33a62e27ce7cc","not_provided","desktop","0","0","0","","","","","","working_memory","","null","<div class=""fixation"">+</div>","null","","","","","","","","","","","","","","","","",""
"html-keyboard-response","226","252790","0.0-5.0-5.0-1.28","6980792fded33a62e27ce7cc","not_provided","desktop","0","0","0","","","","","","working_memory","","null","<img class='b' src=images/squares/magenta.png><img class='e' src=images/squares/red.png><img class='g' src=images/squares/green.png><img class='k' src=images/squares/brown.png><div class=""fixation"">+</div>","null","","","memory","exp","28","","","","","","","","","","","",""
"html-keyboard-response","227","253695","0.0-5.0-5.0-2.28","6980792fded33a62e27ce7cc","not_provided","desktop","0","0","0","","","","","","working_memory","","null","<div class=""fixation"">+</div>","null","","","","","","","","","","","","","","","","",""
"html-keyboard-response","228","254645","0.0-5.0-5.0-3.28","6980792fded33a62e27ce7cc","not_provided","desktop","0","0","0","","","","","","working_memory","","950","<img class='k' src=images/squares/orange.png><div class=""fixation"">+</div>","s","","","test_squares","exp","28","4","s","true","ks","d","","","","","","",""
"html-keyboard-response","229","255158","0.0-5.0-5.0-4.28","6980792fded33a62e27ce7cc","not_provided","desktop","0","0","0","","","","","","working_memory","","null","<div class=""fixation"">Correct</div>","null","","","","","","","","","","","","","","","","",""
"html-keyboard-response","230","256174","0.0-5.0-5.0-0.29","6980792fded33a62e27ce7cc","not_provided","desktop","0","0","0","","","","","","working_memory","","null","<div class=""fixation"">+</div>","null","","","","","","","","","","","","","","","","",""
"html-keyboard-response","231","256377","0.0-5.0-5.0-1.29","6980792fded33a62e27ce7cc","not_provided","desktop","0","0","0","","","","","","working_memory","","null","<img class='b' src=images/squares/black.png><img class='c' src=images/squares/cyan.png><img class='e' src=images/squares/green.png><img class='d' src=images/squares/blue.png><img class='g' src=images/squares/yellow.png><img class='h' src=images/squares/orange.png><img class='l' src=images/squares/red.png><img class='j' src=images/squares/magenta.png><div class=""fixation"">+</div>","null","","","memory","exp","29","","","","","","","","","","","",""
"html-keyboard-response","232","257291","0.0-5.0-5.0-2.29","6980792fded33a62e27ce7cc","not_provided","desktop","0","0","0","","","","","","working_memory","","null","<div class=""fixation"">+</div>","null","","","","","","","","","","","","","","","","",""
"html-keyboard-response","233","258216","0.0-5.0-5.0-3.29","6980792fded33a62e27ce7cc","not_provided","desktop","0","0","0","","","","","","working_memory","","924","<img class='g' src=images/squares/yellow.png><div class=""fixation"">+</div>","s","","","test_squares","exp","29","8","k","false","ks","s","","","","","","",""
"html-keyboard-response","234","258720","0.0-5.0-5.0-4.29","6980792fded33a62e27ce7cc","not_provided","desktop","0","0","0","","","","","","working_memory","","null","<div class=""fixation"">Incorrect</div>","null","","","","","","","","","","","","","","","","",""
"html-keyboard-response","235","259735","0.0-5.0-5.0-0.30","6980792fded33a62e27ce7cc","not_provided","desktop","0","0","0","","","","","","working_memory","","null","<div class=""fixation"">+</div>","null","","","","","","","","","","","","","","","","",""
"html-keyboard-response","236","259949","0.0-5.0-5.0-1.30","6980792fded33a62e27ce7cc","not_provided","desktop","0","0","0","","","","","","working_memory","","null","<img class='b' src=images/squares/brown.png><img class='d' src=images/squares/magenta.png><img class='h' src=images/squares/yellow.png><img class='l' src=images/squares/cyan.png><div class=""fixation"">+</div>","null","","","memory","exp","30","","","","","","","","","","","",""
"html-keyboard-response","237","260853","0.0-5.0-5.0-2.30","6980792fded33a62e27ce7cc","not_provided","desktop","0","0","0","","","","","","working_memory","","null","<div class=""fixation"">+</div>","null","","","","","","","","","","","","","","","","",""
"html-keyboard-response","238","261873","0.0-5.0-5.0-3.30","6980792fded33a62e27ce7cc","not_provided","desktop","0","0","0","","","","","","working_memory","","1020","<img class='l' src=images/squares/cyan.png><div class=""fixation"">+</div>","k","","","test_squares","exp","30","4","k","true","ks","s","","","","","","",""
"html-keyboard-response","239","262386","0.0-5.0-5.0-4.30","6980792fded33a62e27ce7cc","not_provided","desktop","0","0","0","","","","","","working_memory","","null","<div class=""fixation"">Correct</div>","null","","","","","","","","","","","","","","","","",""
"html-keyboard-response","240","263400","0.0-5.0-5.0-0.31","6980792fded33a62e27ce7cc","not_provided","desktop","0","0","0","","","","","","working_memory","","null","<div class=""fixation"">+</div>","null","","","","","","","","","","","","","","","","",""
"html-keyboard-response","241","263602","0.0-5.0-5.0-1.31","6980792fded33a62e27ce7cc","not_provided","desktop","0","0","0","","","","","","working_memory","","null","<img class='a' src=images/squares/brown.png><img class='c' src=images/squares/magenta.png><img class='f' src=images/squares/blue.png><img class='d' src=images/squares/black.png><img class='h' src=images/squares/red.png><img class='i' src=images/squares/green.png><img class='k' src=images/squares/orange.png><img class='j' src=images/squares/yellow.png><div class=""fixation"">+</div>","null","","","memory","exp","31","","","","","","","","","","","",""
"html-keyboard-response","242","264515","0.0-5.0-5.0-2.31","6980792fded33a62e27ce7cc","not_provided","desktop","0","0","0","","","","","","working_memory","","null","<div class=""fixation"">+</div>","null","","","","","","","","","","","","","","","","",""
"html-keyboard-response","243","265249","0.0-5.0-5.0-3.31","6980792fded33a62e27ce7cc","not_provided","desktop","0","0","0","","","","","","working_memory","","733","<img class='d' src=images/squares/cyan.png><div class=""fixation"">+</div>","s","","","test_squares","exp","31","8","s","true","ks","d","","","","","","",""
"html-keyboard-response","244","265757","0.0-5.0-5.0-4.31","6980792fded33a62e27ce7cc","not_provided","desktop","0","0","0","","","","","","working_memory","","null","<div class=""fixation"">Correct</div>","null","","","","","","","","","","","","","","","","",""
"html-keyboard-response","245","266772","0.0-5.0-5.0-0.32","6980792fded33a62e27ce7cc","not_provided","desktop","0","0","0","","","","","","working_memory","","null","<div class=""fixation"">+</div>","null","","","","","","","","","","","","","","","","",""
"html-keyboard-response","246","266975","0.0-5.0-5.0-1.32","6980792fded33a62e27ce7cc","not_provided","desktop","0","0","0","","","","","","working_memory","","null","<img class='a' src=images/squares/yellow.png><img class='e' src=images/squares/brown.png><img class='h' src=images/squares/magenta.png><img class='k' src=images/squares/red.png><div class=""fixation"">+</div>","null","","","memory","exp","32","","","","","","","","","","","",""
"html-keyboard-response","247","267880","0.0-5.0-5.0-2.32","6980792fded33a62e27ce7cc","not_provided","desktop","0","0","0","","","","","","working_memory","","null","<div class=""fixation"">+</div>","null","","","","","","","","","","","","","","","","",""
"html-keyboard-response","248","268676","0.0-5.0-5.0-3.32","6980792fded33a62e27ce7cc","not_provided","desktop","0","0","0","","","","","","working_memory","","795","<img class='h' src=images/squares/magenta.png><div class=""fixation"">+</div>","k","","","test_squares","exp","32","4","k","true","ks","s","","","","","","",""
"html-keyboard-response","249","269191","0.0-5.0-5.0-4.32","6980792fded33a62e27ce7cc","not_provided","desktop","0","0","0","","","","","","working_memory","","null","<div class=""fixation"">Correct</div>","null","","","","","","","","","","","","","","","","",""
"html-keyboard-response","250","270197","0.0-5.0-5.0-0.33","6980792fded33a62e27ce7cc","not_provided","desktop","0","0","0","","","","","","working_memory","","null","<div class=""fixation"">+</div>","null","","","","","","","","","","","","","","","","",""
"html-keyboard-response","251","270403","0.0-5.0-5.0-1.33","6980792fded33a62e27ce7cc","not_provided","desktop","0","0","0","","","","","","working_memory","","null","<img class='c' src=images/squares/cyan.png><img class='a' src=images/squares/red.png><img class='e' src=images/squares/yellow.png><img class='d' src=images/squares/black.png><img class='i' src=images/squares/brown.png><img class='h' src=images/squares/orange.png><img class='k' src=images/squares/magenta.png><img class='j' src=images/squares/green.png><div class=""fixation"">+</div>","null","","","memory","exp","33","","","","","","","","","","","",""
"html-keyboard-response","252","271310","0.0-5.0-5.0-2.33","6980792fded33a62e27ce7cc","not_provided","desktop","0","0","0","","","","","","working_memory","","null","<div class=""fixation"">+</div>","null","","","","","","","","","","","","","","","","",""
"html-keyboard-response","253","272079","0.0-5.0-5.0-3.33","6980792fded33a62e27ce7cc","not_provided","desktop","0","0","0","","","","","","working_memory","","767","<img class='a' src=images/squares/red.png><div class=""fixation"">+</div>","s","","","test_squares","exp","33","8","k","false","ks","s","","","","","","",""
"html-keyboard-response","254","272580","0.0-5.0-5.0-4.33","6980792fded33a62e27ce7cc","not_provided","desktop","0","0","0","","","","","","working_memory","","null","<div class=""fixation"">Incorrect</div>","null","","","","","","","","","","","","","","","","",""
"html-keyboard-response","255","273580","0.0-5.0-5.0-0.34","6980792fded33a62e27ce7cc","not_provided","desktop","0","0","0","","","","","","working_memory","","null","<div class=""fixation"">+</div>","null","","","","","","","","","","","","","","","","",""
"html-keyboard-response","256","273786","0.0-5.0-5.0-1.34","6980792fded33a62e27ce7cc","not_provided","desktop","0","0","0","","","","","","working_memory","","null","<img class='a' src=images/squares/black.png><img class='f' src=images/squares/blue.png><img class='g' src=images/squares/green.png><img class='k' src=images/squares/magenta.png><div class=""fixation"">+</div>","null","","","memory","exp","34","","","","","","","","","","","",""
"html-keyboard-response","257","274696","0.0-5.0-5.0-2.34","6980792fded33a62e27ce7cc","not_provided","desktop","0","0","0","","","","","","working_memory","","null","<div class=""fixation"">+</div>","null","","","","","","","","","","","","","","","","",""
"html-keyboard-response","258","275471","0.0-5.0-5.0-3.34","6980792fded33a62e27ce7cc","not_provided","desktop","0","0","0","","","","","","working_memory","","775","<img class='k' src=images/squares/magenta.png><div class=""fixation"">+</div>","k","","","test_squares","exp","34","4","k","true","ks","s","","","","","","",""
"html-keyboard-response","259","275980","0.0-5.0-5.0-4.34","6980792fded33a62e27ce7cc","not_provided","desktop","0","0","0","","","","","","working_memory","","null","<div class=""fixation"">Correct</div>","null","","","","","","","","","","","","","","","","",""
"html-keyboard-response","260","276986","0.0-5.0-5.0-0.35","6980792fded33a62e27ce7cc","not_provided","desktop","0","0","0","","","","","","working_memory","","null","<div class=""fixation"">+</div>","null","","","","","","","","","","","","","","","","",""
"html-keyboard-response","261","277190","0.0-5.0-5.0-1.35","6980792fded33a62e27ce7cc","not_provided","desktop","0","0","0","","","","","","working_memory","","null","<img class='b' src=images/squares/red.png><img class='a' src=images/squares/cyan.png><img class='f' src=images/squares/brown.png><img class='e' src=images/squares/yellow.png><img class='i' src=images/squares/black.png><img class='h' src=images/squares/orange.png><img class='l' src=images/squares/blue.png><img class='k' src=images/squares/magenta.png><div class=""fixation"">+</div>","null","","","memory","exp","35","","","","","","","","","","","",""
"html-keyboard-response","262","278101","0.0-5.0-5.0-2.35","6980792fded33a62e27ce7cc","not_provided","desktop","0","0","0","","","","","","working_memory","","null","<div class=""fixation"">+</div>","null","","","","","","","","","","","","","","","","",""
"html-keyboard-response","263","279012","0.0-5.0-5.0-3.35","6980792fded33a62e27ce7cc","not_provided","desktop","0","0","0","","","","","","working_memory","","911","<img class='i' src=images/squares/green.png><div class=""fixation"">+</div>","s","","","test_squares","exp","35","8","s","true","ks","d","","","","","","",""
"html-keyboard-response","264","279526","0.0-5.0-5.0-4.35","6980792fded33a62e27ce7cc","not_provided","desktop","0","0","0","","","","","","working_memory","","null","<div class=""fixation"">Correct</div>","null","","","","","","","","","","","","","","","","",""
"html-keyboard-response","265","280533","0.0-5.0-5.0-0.36","6980792fded33a62e27ce7cc","not_provided","desktop","0","0","0","","","","","","working_memory","","null","<div class=""fixation"">+</div>","null","","","","","","","","","","","","","","","","",""
"html-keyboard-response","266","280738","0.0-5.0-5.0-1.36","6980792fded33a62e27ce7cc","not_provided","desktop","0","0","0","","","","","","working_memory","","null","<img class='c' src=images/squares/blue.png><img class='f' src=images/squares/green.png><img class='h' src=images/squares/yellow.png><img class='j' src=images/squares/brown.png><div class=""fixation"">+</div>","null","","","memory","exp","36","","","","","","","","","","","",""
"html-keyboard-response","267","281646","0.0-5.0-5.0-2.36","6980792fded33a62e27ce7cc","not_provided","desktop","0","0","0","","","","","","working_memory","","null","<div class=""fixation"">+</div>","null","","","","","","","","","","","","","","","","",""
"html-keyboard-response","268","282472","0.0-5.0-5.0-3.36","6980792fded33a62e27ce7cc","not_provided","desktop","0","0","0","","","","","","working_memory","","826","<img class='c' src=images/squares/blue.png><div class=""fixation"">+</div>","k","","","test_squares","exp","36","4","k","true","ks","s","","","","","","",""
"html-keyboard-response","269","282980","0.0-5.0-5.0-4.36","6980792fded33a62e27ce7cc","not_provided","desktop","0","0","0","","","","","","working_memory","","null","<div class=""fixation"">Correct</div>","null","","","","","","","","","","","","","","","","",""
"html-keyboard-response","270","283990","0.0-5.0-5.0-0.37","6980792fded33a62e27ce7cc","not_provided","desktop","0","0","0","","","","","","working_memory","","null","<div class=""fixation"">+</div>","null","","","","","","","","","","","","","","","","",""
"html-keyboard-response","271","284193","0.0-5.0-5.0-1.37","6980792fded33a62e27ce7cc","not_provided","desktop","0","0","0","","","","","","working_memory","","null","<img class='b' src=images/squares/blue.png><img class='f' src=images/squares/orange.png><img class='g' src=images/squares/green.png><img class='l' src=images/squares/red.png><div class=""fixation"">+</div>","null","","","memory","exp","37","","","","","","","","","","","",""
"html-keyboard-response","272","285105","0.0-5.0-5.0-2.37","6980792fded33a62e27ce7cc","not_provided","desktop","0","0","0","","","","","","working_memory","","null","<div class=""fixation"">+</div>","null","","","","","","","","","","","","","","","","",""
"html-keyboard-response","273","285863","0.0-5.0-5.0-3.37","6980792fded33a62e27ce7cc","not_provided","desktop","0","0","0","","","","","","working_memory","","758","<img class='b' src=images/squares/blue.png><div class=""fixation"">+</div>","k","","","test_squares","exp","37","4","k","true","ks","s","","","","","","",""
"html-keyboard-response","274","286376","0.0-5.0-5.0-4.37","6980792fded33a62e27ce7cc","not_provided","desktop","0","0","0","","","","","","working_memory","","null","<div class=""fixation"">Correct</div>","null","","","","","","","","","","","","","","","","",""
"html-keyboard-response","275","287381","0.0-5.0-5.0-0.38","6980792fded33a62e27ce7cc","not_provided","desktop","0","0","0","","","","","","working_memory","","null","<div class=""fixation"">+</div>","null","","","","","","","","","","","","","","","","",""
"html-keyboard-response","276","287585","0.0-5.0-5.0-1.38","6980792fded33a62e27ce7cc","not_provided","desktop","0","0","0","","","","","","working_memory","","null","<img class='a' src=images/squares/magenta.png><img class='b' src=images/squares/brown.png><img class='d' src=images/squares/black.png><img class='f' src=images/squares/red.png><img class='h' src=images/squares/cyan.png><img class='i' src=images/squares/green.png><img class='j' src=images/squares/blue.png><img class='k' src=images/squares/orange.png><div class=""fixation"">+</div>","null","","","memory","exp","38","","","","","","","","","","","",""
"html-keyboard-response","277","288495","0.0-5.0-5.0-2.38","6980792fded33a62e27ce7cc","not_provided","desktop","0","0","0","","","","","","working_memory","","null","<div class=""fixation"">+</div>","null","","","","","","","","","","","","","","","","",""
"html-keyboard-response","278","289188","0.0-5.0-5.0-3.38","6980792fded33a62e27ce7cc","not_provided","desktop","0","0","0","","","","","","working_memory","","692","<img class='f' src=images/squares/red.png><div class=""fixation"">+</div>","s","","","test_squares","exp","38","8","k","false","ks","s","","","","","","",""
"html-keyboard-response","279","289703","0.0-5.0-5.0-4.38","6980792fded33a62e27ce7cc","not_provided","desktop","0","0","0","","","","","","working_memory","","null","<div class=""fixation"">Incorrect</div>","null","","","","","","","","","","","","","","","","",""
"html-keyboard-response","280","290709","0.0-5.0-5.0-0.39","6980792fded33a62e27ce7cc","not_provided","desktop","0","0","0","","","","","","working_memory","","null","<div class=""fixation"">+</div>","null","","","","","","","","","","","","","","","","",""
"html-keyboard-response","281","290913","0.0-5.0-5.0-1.39","6980792fded33a62e27ce7cc","not_provided","desktop","0","0","0","","","","","","working_memory","","null","<img class='a' src=images/squares/brown.png><img class='f' src=images/squares/black.png><img class='g' src=images/squares/blue.png><img class='l' src=images/squares/magenta.png><div class=""fixation"">+</div>","null","","","memory","exp","39","","","","","","","","","","","",""
"html-keyboard-response","282","291822","0.0-5.0-5.0-2.39","6980792fded33a62e27ce7cc","not_provided","desktop","0","0","0","","","","","","working_memory","","null","<div class=""fixation"">+</div>","null","","","","","","","","","","","","","","","","",""
"html-keyboard-response","283","292788","0.0-5.0-5.0-3.39","6980792fded33a62e27ce7cc","not_provided","desktop","0","0","0","","","","","","working_memory","","965","<img class='l' src=images/squares/orange.png><div class=""fixation"">+</div>","s","","","test_squares","exp","39","4","s","true","ks","d","","","","","","",""
"html-keyboard-response","284","293294","0.0-5.0-5.0-4.39","6980792fded33a62e27ce7cc","not_provided","desktop","0","0","0","","","","","","working_memory","","null","<div class=""fixation"">Correct</div>","null","","","","","","","","","","","","","","","","",""
"html-keyboard-response","285","294298","0.0-5.0-5.0-0.40","6980792fded33a62e27ce7cc","not_provided","desktop","0","0","0","","","","","","working_memory","","null","<div class=""fixation"">+</div>","null","","","","","","","","","","","","","","","","",""
"html-keyboard-response","286","294503","0.0-5.0-5.0-1.40","6980792fded33a62e27ce7cc","not_provided","desktop","0","0","0","","","","","","working_memory","","null","<img class='c' src=images/squares/brown.png><img class='e' src=images/squares/orange.png><img class='h' src=images/squares/magenta.png><img class='l' src=images/squares/red.png><div class=""fixation"">+</div>","null","","","memory","exp","40","","","","","","","","","","","",""
"html-keyboard-response","287","295407","0.0-5.0-5.0-2.40","6980792fded33a62e27ce7cc","not_provided","desktop","0","0","0","","","","","","working_memory","","null","<div class=""fixation"">+</div>","null","","","","","","","","","","","","","","","","",""
"html-keyboard-response","288","296274","0.0-5.0-5.0-3.40","6980792fded33a62e27ce7cc","not_provided","desktop","0","0","0","","","","","","working_memory","","867","<img class='l' src=images/squares/black.png><div class=""fixation"">+</div>","s","","","test_squares","exp","40","4","s","true","ks","d","","","","","","",""
"html-keyboard-response","289","296779","0.0-5.0-5.0-4.40","6980792fded33a62e27ce7cc","not_provided","desktop","0","0","0","","","","","","working_memory","","null","<div class=""fixation"">Correct</div>","null","","","","","","","","","","","","","","","","",""
"html-keyboard-response","290","297787","0.0-5.0-5.0-0.41","6980792fded33a62e27ce7cc","not_provided","desktop","0","0","0","","","","","","working_memory","","null","<div class=""fixation"">+</div>","null","","","","","","","","","","","","","","","","",""
"html-keyboard-response","291","297991","0.0-5.0-5.0-1.41","6980792fded33a62e27ce7cc","not_provided","desktop","0","0","0","","","","","","working_memory","","null","<img class='c' src=images/squares/green.png><img class='f' src=images/squares/orange.png><img class='h' src=images/squares/magenta.png><img class='l' src=images/squares/brown.png><div class=""fixation"">+</div>","null","","","memory","exp","41","","","","","","","","","","","",""
"html-keyboard-response","292","298908","0.0-5.0-5.0-2.41","6980792fded33a62e27ce7cc","not_provided","desktop","0","0","0","","","","","","working_memory","","null","<div class=""fixation"">+</div>","null","","","","","","","","","","","","","","","","",""
"html-keyboard-response","293","299587","0.0-5.0-5.0-3.41","6980792fded33a62e27ce7cc","not_provided","desktop","0","0","0","","","","","","working_memory","","679","<img class='c' src=images/squares/green.png><div class=""fixation"">+</div>","k","","","test_squares","exp","41","4","k","true","ks","s","","","","","","",""
"html-keyboard-response","294","300102","0.0-5.0-5.0-4.41","6980792fded33a62e27ce7cc","not_provided","desktop","0","0","0","","","","","","working_memory","","null","<div class=""fixation"">Correct</div>","null","","","","","","","","","","","","","","","","",""
"html-keyboard-response","295","301105","0.0-5.0-5.0-0.42","6980792fded33a62e27ce7cc","not_provided","desktop","0","0","0","","","","","","working_memory","","null","<div class=""fixation"">+</div>","null","","","","","","","","","","","","","","","","",""
"html-keyboard-response","296","301308","0.0-5.0-5.0-1.42","6980792fded33a62e27ce7cc","not_provided","desktop","0","0","0","","","","","","working_memory","","null","<img class='a' src=images/squares/brown.png><img class='e' src=images/squares/green.png><img class='i' src=images/squares/orange.png><img class='l' src=images/squares/cyan.png><div class=""fixation"">+</div>","null","","","memory","exp","42","","","","","","","","","","","",""
"html-keyboard-response","297","302218","0.0-5.0-5.0-2.42","6980792fded33a62e27ce7cc","not_provided","desktop","0","0","0","","","","","","working_memory","","null","<div class=""fixation"">+</div>","null","","","","","","","","","","","","","","","","",""
"html-keyboard-response","298","302809","0.0-5.0-5.0-3.42","6980792fded33a62e27ce7cc","not_provided","desktop","0","0","0","","","","","","working_memory","","591","<img class='e' src=images/squares/black.png><div class=""fixation"">+</div>","s","","","test_squares","exp","42","4","s","true","ks","d","","","","","","",""
"html-keyboard-response","299","303315","0.0-5.0-5.0-4.42","6980792fded33a62e27ce7cc","not_provided","desktop","0","0","0","","","","","","working_memory","","null","<div class=""fixation"">Correct</div>","null","","","","","","","","","","","","","","","","",""
"html-keyboard-response","300","304321","0.0-5.0-5.0-0.43","6980792fded33a62e27ce7cc","not_provided","desktop","0","0","0","","","","","","working_memory","","null","<div class=""fixation"">+</div>","null","","","","","","","","","","","","","","","","",""
"html-keyboard-response","301","304525","0.0-5.0-5.0-1.43","6980792fded33a62e27ce7cc","not_provided","desktop","0","0","0","","","","","","working_memory","","null","<img class='c' src=images/squares/orange.png><img class='f' src=images/squares/magenta.png><img class='h' src=images/squares/black.png><img class='k' src=images/squares/brown.png><div class=""fixation"">+</div>","null","","","memory","exp","43","","","","","","","","","","","",""
"html-keyboard-response","302","305434","0.0-5.0-5.0-2.43","6980792fded33a62e27ce7cc","not_provided","desktop","0","0","0","","","","","","working_memory","","null","<div class=""fixation"">+</div>","null","","","","","","","","","","","","","","","","",""
"html-keyboard-response","303","306173","0.0-5.0-5.0-3.43","6980792fded33a62e27ce7cc","not_provided","desktop","0","0","0","","","","","","working_memory","","738","<img class='c' src=images/squares/orange.png><div class=""fixation"">+</div>","k","","","test_squares","exp","43","4","k","true","ks","s","","","","","","",""
