"trial_type","trial_index","time_elapsed","internal_node_id","subject_id","study_id","device_type","blur_count","fullscreen_exit_count","failed_attention_checks","success","timeout","failed_images","failed_audio","failed_video","phase","value","rt","stimulus","response","view_history","question_order","trial_name","block_type","trial_num","set_size","correct_response","accuracy","mapping","condition","prompt","flipped","attention","expected_answer","category","question_index","task"
"pavlovia","0","779","0.0-0.0","697caeea2ec1c2604535f8aa","not_provided","desktop","0","0","0","","","","","","","","","","","","","","","","","","","","","","","","","","",""
"preload","1","953","0.0-2.0","697caeea2ec1c2604535f8aa","not_provided","desktop","0","0","0","true","false","[]","[]","[]","","","","","","","","","","","","","","","","","","","","","",""
"html-keyboard-response","2","12096","0.0-3.0-0.0","697caeea2ec1c2604535f8aa","not_provided","desktop","0","0","0","","","","","","captcha","","","","","","","","","","","","","","","","","","","","",""
"fullscreen","3","18143","0.0-4.0","697caeea2ec1c2604535f8aa","not_provided","desktop","0","0","0","true","","","","","setup","","","","","","","","","","","","","","","","","","","","",""
"call-function","4","18145","0.0-5.0-0.0","697caeea2ec1c2604535f8aa","not_provided","desktop","0","0","0","","","","","","working_memory","","","","","","","","","","","","","","","","","","","","",""
"html-keyboard-response","5","34496","0.0-5.0-1.0","697caeea2ec1c2604535f8aa","not_provided","desktop","0","0","0","","","","","","working_memory","","16348","<div style=""text-align:center;font-family:sans-serif;""><p>Welcome to the luck game experiment!</p><p>This two-day experiment takes part in a study aimed at developing better clinical treatments.</p><p>We appreciate your participation and require your full concentration.</p><br><p>This is a two-day study. Payment (£6/hour) is only given upon completing both parts today and tomorrow.</p><p>You must finish the second part for compensation. After today, you'll receive an invitation for tomorrow's session.</p><p>Please ensure you can attend both sessions before proceeding. Otherwise, you may exit now.</p><p>If you have any questions, please contact us via prolific.</p><br><p>Please stay attentive and in fullscreen mode to ensure payment.</p><p>Thank you for participating!</p><br><p id=""continue-prompt"" style=""visibility:hidden;""><b>Press any key to continue.</b></p></div>"," ","","","","","","","","","","","","","","","","",""
"instructions","6","73746","0.0-5.0-2.0-0.0","697caeea2ec1c2604535f8aa","not_provided","desktop","0","0","0","","","","","","working_memory","","39247","","","[{""page_index"":0,""viewing_time"":1432},{""page_index"":1,""viewing_time"":1355},{""page_index"":2,""viewing_time"":5122},{""page_index"":3,""viewing_time"":2430},{""page_index"":4,""viewing_time"":4609},{""page_index"":5,""viewing_time"":7058},{""page_index"":6,""viewing_time"":9632},{""page_index"":7,""viewing_time"":3909},{""page_index"":8,""viewing_time"":3700}]","","","","","","","","","","","","","","","",""
"survey-multi-choice","7","119849","0.0-5.0-2.0-1.0","697caeea2ec1c2604535f8aa","not_provided","desktop","0","0","0","","","","","","working_memory","","46097","","{""set_size"":""2 or 4"",""steps"":""True"",""choose_square"":""Press the 'k' or 's' key."",""remember"":""The color and location of the single 'test' square"",""task"":""To tell if a square previously appeared in the location of the shown square""}","","[0,1,2,3,4]","test_squares_quiz","","","","","","","","","","","","","",""
"html-button-response","8","121897","0.0-5.0-2.0-2.0-0.0","697caeea2ec1c2604535f8aa","not_provided","desktop","0","0","0","","","","","","working_memory","","2043","<p>Sorry, you made a mistake on the quiz.<br>Let's go back to the instructions &mdash; please read carefully before submitting again.<br>Thank you!</p>","0","","","","","","","","","","","","","","","","",""
"instructions","9","139729","0.0-5.0-2.1-0.1","697caeea2ec1c2604535f8aa","not_provided","desktop","0","0","0","","","","","","working_memory","","17830","","","[{""page_index"":0,""viewing_time"":1247},{""page_index"":1,""viewing_time"":907},{""page_index"":2,""viewing_time"":992},{""page_index"":3,""viewing_time"":914},{""page_index"":4,""viewing_time"":3603},{""page_index"":5,""viewing_time"":3843},{""page_index"":6,""viewing_time"":3906},{""page_index"":7,""viewing_time"":1415},{""page_index"":8,""viewing_time"":1003}]","","","","","","","","","","","","","","","",""
"survey-multi-choice","10","167896","0.0-5.0-2.1-1.1","697caeea2ec1c2604535f8aa","not_provided","desktop","0","0","0","","","","","","working_memory","","28162","","{""set_size"":""4 or 8"",""steps"":""True"",""choose_square"":""Press the 'k' or 's' key."",""remember"":""The colors and locations of the 'memory' squares"",""task"":""To tell if the 'test' square is in the same color as the square previously appearing in this location""}","","[0,1,2,3,4]","test_squares_quiz","","","","","","","","","","","","","",""
"html-keyboard-response","11","184111","0.0-5.0-3.0-0.0","697caeea2ec1c2604535f8aa","not_provided","desktop","0","0","0","","","","","","working_memory","","16211","<p>We will now start some practice trials.<br><b>The practice trials will also include some trials in which you will need to remember only one square to make sure you understood the instructions.</b><br>You may already want to be ready with your fingers on '<b>s</b>' and '<b>k</b>'.<br><img class=""wm-example-img"" src=""images/examples/keyboard.png""><br><b style=""font-size:1.2em;"">&lsquo;K&rsquo; = SAME &nbsp;&nbsp;&nbsp; &lsquo;S&rsquo; = DIFFERENT</b><br><br><u>Please try to be as accurate as possible.</u><br><br><b>Press any key to begin</b></p>","k","","","","","","","","","","","","","","","","",""
"html-keyboard-response","12","186142","0.0-5.0-3.0-1.0-0.0","697caeea2ec1c2604535f8aa","not_provided","desktop","0","0","0","","","","","","working_memory","","null","<div class=""fixation"">+</div>","null","","","","","","","","","","","","","","","","",""
"html-keyboard-response","13","186350","0.0-5.0-3.0-1.0-1.0","697caeea2ec1c2604535f8aa","not_provided","desktop","0","0","0","","","","","","working_memory","","null","<img class='lower3' src=images/squares/green.png><div class=""fixation"">+</div>","null","","","memory","practice","0","1","","","","","","","","","","",""
"html-keyboard-response","14","187260","0.0-5.0-3.0-1.0-2.0","697caeea2ec1c2604535f8aa","not_provided","desktop","0","0","0","","","","","","working_memory","","null","<div class=""fixation"">+</div>","null","","","","","","","","","","","","","","","","",""
"html-keyboard-response","15","191999","0.0-5.0-3.0-1.0-3.0","697caeea2ec1c2604535f8aa","not_provided","desktop","0","0","0","","","","","","working_memory","","4736","<img class='lower3' src=images/squares/cyan.png><div class=""fixation"">+</div>","s","","","test","practice","0","1","s","true","","","","","","","","",""
"html-keyboard-response","16","192505","0.0-5.0-3.0-1.0-4.0","697caeea2ec1c2604535f8aa","not_provided","desktop","0","0","0","","","","","","working_memory","","null","<div class=""fixation"">Correct</div>","null","","","","","","","","","","","","","","","","",""
"html-keyboard-response","17","193516","0.0-5.0-3.0-1.0-0.1","697caeea2ec1c2604535f8aa","not_provided","desktop","0","0","0","","","","","","working_memory","","null","<div class=""fixation"">+</div>","null","","","","","","","","","","","","","","","","",""
"html-keyboard-response","18","193719","0.0-5.0-3.0-1.0-1.1","697caeea2ec1c2604535f8aa","not_provided","desktop","0","0","0","","","","","","working_memory","","null","<img class='a' src=images/squares/black.png><img class='d' src=images/squares/magenta.png><img class='h' src=images/squares/yellow.png><img class='k' src=images/squares/orange.png><div class=""fixation"">+</div>","null","","","memory","practice","1","4","","","","","","","","","","",""
"html-keyboard-response","19","194624","0.0-5.0-3.0-1.0-2.1","697caeea2ec1c2604535f8aa","not_provided","desktop","0","0","0","","","","","","working_memory","","null","<div class=""fixation"">+</div>","null","","","","","","","","","","","","","","","","",""
"html-keyboard-response","20","195460","0.0-5.0-3.0-1.0-3.1","697caeea2ec1c2604535f8aa","not_provided","desktop","0","0","0","","","","","","working_memory","","834","<img class='a' src=images/squares/black.png><div class=""fixation"">+</div>","s","","","test","practice","1","4","k","false","","","","","","","","",""
"html-keyboard-response","21","195962","0.0-5.0-3.0-1.0-4.1","697caeea2ec1c2604535f8aa","not_provided","desktop","0","0","0","","","","","","working_memory","","null","<div class=""fixation"">Incorrect</div>","null","","","","","","","","","","","","","","","","",""
"html-keyboard-response","22","196972","0.0-5.0-3.0-1.0-0.2","697caeea2ec1c2604535f8aa","not_provided","desktop","0","0","0","","","","","","working_memory","","null","<div class=""fixation"">+</div>","null","","","","","","","","","","","","","","","","",""
"html-keyboard-response","23","197185","0.0-5.0-3.0-1.0-1.2","697caeea2ec1c2604535f8aa","not_provided","desktop","0","0","0","","","","","","working_memory","","null","<img class='lower2' src=images/squares/brown.png><div class=""fixation"">+</div>","null","","","memory","practice","2","1","","","","","","","","","","",""
"html-keyboard-response","24","198095","0.0-5.0-3.0-1.0-2.2","697caeea2ec1c2604535f8aa","not_provided","desktop","0","0","0","","","","","","working_memory","","null","<div class=""fixation"">+</div>","null","","","","","","","","","","","","","","","","",""
"html-keyboard-response","25","201438","0.0-5.0-3.0-1.0-3.2","697caeea2ec1c2604535f8aa","not_provided","desktop","0","0","0","","","","","","working_memory","","3341","<img class='lower2' src=images/squares/brown.png><div class=""fixation"">+</div>","k","","","test","practice","2","1","k","true","","","","","","","","",""
"html-keyboard-response","26","201945","0.0-5.0-3.0-1.0-4.2","697caeea2ec1c2604535f8aa","not_provided","desktop","0","0","0","","","","","","working_memory","","null","<div class=""fixation"">Correct</div>","null","","","","","","","","","","","","","","","","",""
"html-keyboard-response","27","202959","0.0-5.0-3.0-1.0-0.3","697caeea2ec1c2604535f8aa","not_provided","desktop","0","0","0","","","","","","working_memory","","null","<div class=""fixation"">+</div>","null","","","","","","","","","","","","","","","","",""
"html-keyboard-response","28","203165","0.0-5.0-3.0-1.0-1.3","697caeea2ec1c2604535f8aa","not_provided","desktop","0","0","0","","","","","","working_memory","","null","<img class='a' src=images/squares/brown.png><img class='b' src=images/squares/cyan.png><img class='d' src=images/squares/blue.png><img class='e' src=images/squares/red.png><img class='i' src=images/squares/green.png><img class='g' src=images/squares/black.png><img class='k' src=images/squares/magenta.png><img class='j' src=images/squares/yellow.png><div class=""fixation"">+</div>","null","","","memory","practice","3","8","","","","","","","","","","",""
"html-keyboard-response","29","204071","0.0-5.0-3.0-1.0-2.3","697caeea2ec1c2604535f8aa","not_provided","desktop","0","0","0","","","","","","working_memory","","null","<div class=""fixation"">+</div>","null","","","","","","","","","","","","","","","","",""
"html-keyboard-response","30","205364","0.0-5.0-3.0-1.0-3.3","697caeea2ec1c2604535f8aa","not_provided","desktop","0","0","0","","","","","","working_memory","","1292","<img class='g' src=images/squares/black.png><div class=""fixation"">+</div>","s","","","test","practice","3","8","k","false","","","","","","","","",""
"html-keyboard-response","31","205878","0.0-5.0-3.0-1.0-4.3","697caeea2ec1c2604535f8aa","not_provided","desktop","0","0","0","","","","","","working_memory","","null","<div class=""fixation"">Incorrect</div>","null","","","","","","","","","","","","","","","","",""
"html-keyboard-response","32","206894","0.0-5.0-3.0-1.0-0.4","697caeea2ec1c2604535f8aa","not_provided","desktop","0","0","0","","","","","","working_memory","","null","<div class=""fixation"">+</div>","null","","","","","","","","","","","","","","","","",""
"html-keyboard-response","33","207104","0.0-5.0-3.0-1.0-1.4","697caeea2ec1c2604535f8aa","not_provided","desktop","0","0","0","","","","","","working_memory","","null","<img class='a' src=images/squares/green.png><img class='d' src=images/squares/black.png><img class='i' src=images/squares/orange.png><img class='l' src=images/squares/yellow.png><div class=""fixation"">+</div>","null","","","memory","practice","4","4","","","","","","","","","","",""
"html-keyboard-response","34","208006","0.0-5.0-3.0-1.0-2.4","697caeea2ec1c2604535f8aa","not_provided","desktop","0","0","0","","","","","","working_memory","","null","<div class=""fixation"">+</div>","null","","","","","","","","","","","","","","","","",""
"html-keyboard-response","35","209136","0.0-5.0-3.0-1.0-3.4","697caeea2ec1c2604535f8aa","not_provided","desktop","0","0","0","","","","","","working_memory","","1129","<img class='l' src=images/squares/yellow.png><div class=""fixation"">+</div>","k","","","test","practice","4","4","k","true","","","","","","","","",""
"html-keyboard-response","36","209637","0.0-5.0-3.0-1.0-4.4","697caeea2ec1c2604535f8aa","not_provided","desktop","0","0","0","","","","","","working_memory","","null","<div class=""fixation"">Correct</div>","null","","","","","","","","","","","","","","","","",""
"html-keyboard-response","37","210656","0.0-5.0-3.0-1.0-0.5","697caeea2ec1c2604535f8aa","not_provided","desktop","0","0","0","","","","","","working_memory","","null","<div class=""fixation"">+</div>","null","","","","","","","","","","","","","","","","",""
"html-keyboard-response","38","210870","0.0-5.0-3.0-1.0-1.5","697caeea2ec1c2604535f8aa","not_provided","desktop","0","0","0","","","","","","working_memory","","null","<img class='upper1' src=images/squares/red.png><div class=""fixation"">+</div>","null","","","memory","practice","5","1","","","","","","","","","","",""
"html-keyboard-response","39","211776","0.0-5.0-3.0-1.0-2.5","697caeea2ec1c2604535f8aa","not_provided","desktop","0","0","0","","","","","","working_memory","","null","<div class=""fixation"">+</div>","null","","","","","","","","","","","","","","","","",""
"html-keyboard-response","40","213102","0.0-5.0-3.0-1.0-3.5","697caeea2ec1c2604535f8aa","not_provided","desktop","0","0","0","","","","","","working_memory","","1324","<img class='upper1' src=images/squares/red.png><div class=""fixation"">+</div>","k","","","test","practice","5","1","k","true","","","","","","","","",""
"html-keyboard-response","41","213612","0.0-5.0-3.0-1.0-4.5","697caeea2ec1c2604535f8aa","not_provided","desktop","0","0","0","","","","","","working_memory","","null","<div class=""fixation"">Correct</div>","null","","","","","","","","","","","","","","","","",""
"html-keyboard-response","42","214621","0.0-5.0-3.0-1.0-0.6","697caeea2ec1c2604535f8aa","not_provided","desktop","0","0","0","","","","","","working_memory","","null","<div class=""fixation"">+</div>","null","","","","","","","","","","","","","","","","",""
"html-keyboard-response","43","214836","0.0-5.0-3.0-1.0-1.6","697caeea2ec1c2604535f8aa","not_provided","desktop","0","0","0","","","","","","working_memory","","null","<img class='a' src=images/squares/green.png><img class='b' src=images/squares/red.png><img class='f' src=images/squares/brown.png><img class='e' src=images/squares/magenta.png><img class='i' src=images/squares/cyan.png><img class='g' src=images/squares/yellow.png><img class='j' src=images/squares/black.png><img class='l' src=images/squares/orange.png><div class=""fixation"">+</div>","null","","","memory","practice","6","8","","","","","","","","","","",""
"html-keyboard-response","44","215739","0.0-5.0-3.0-1.0-2.6","697caeea2ec1c2604535f8aa","not_provided","desktop","0","0","0","","","","","","working_memory","","null","<div class=""fixation"">+</div>","null","","","","","","","","","","","","","","","","",""
"html-keyboard-response","45","216631","0.0-5.0-3.0-1.0-3.6","697caeea2ec1c2604535f8aa","not_provided","desktop","0","0","0","","","","","","working_memory","","890","<img class='e' src=images/squares/blue.png><div class=""fixation"">+</div>","k","","","test","practice","6","8","s","false","","","","","","","","",""
"html-keyboard-response","46","217145","0.0-5.0-3.0-1.0-4.6","697caeea2ec1c2604535f8aa","not_provided","desktop","0","0","0","","","","","","working_memory","","null","<div class=""fixation"">Incorrect</div>","null","","","","","","","","","","","","","","","","",""
"html-keyboard-response","47","218152","0.0-5.0-3.0-1.0-0.7","697caeea2ec1c2604535f8aa","not_provided","desktop","0","0","0","","","","","","working_memory","","null","<div class=""fixation"">+</div>","null","","","","","","","","","","","","","","","","",""
"html-keyboard-response","48","218363","0.0-5.0-3.0-1.0-1.7","697caeea2ec1c2604535f8aa","not_provided","desktop","0","0","0","","","","","","working_memory","","null","<img class='a' src=images/squares/red.png><img class='e' src=images/squares/orange.png><img class='i' src=images/squares/yellow.png><img class='j' src=images/squares/magenta.png><div class=""fixation"">+</div>","null","","","memory","practice","7","4","","","","","","","","","","",""
"html-keyboard-response","49","219274","0.0-5.0-3.0-1.0-2.7","697caeea2ec1c2604535f8aa","not_provided","desktop","0","0","0","","","","","","working_memory","","null","<div class=""fixation"">+</div>","null","","","","","","","","","","","","","","","","",""
"html-keyboard-response","50","220492","0.0-5.0-3.0-1.0-3.7","697caeea2ec1c2604535f8aa","not_provided","desktop","0","0","0","","","","","","working_memory","","1217","<img class='e' src=images/squares/brown.png><div class=""fixation"">+</div>","k","","","test","practice","7","4","s","false","","","","","","","","",""
"html-keyboard-response","51","221003","0.0-5.0-3.0-1.0-4.7","697caeea2ec1c2604535f8aa","not_provided","desktop","0","0","0","","","","","","working_memory","","null","<div class=""fixation"">Incorrect</div>","null","","","","","","","","","","","","","","","","",""
"html-keyboard-response","52","222017","0.0-5.0-3.0-1.0-0.8","697caeea2ec1c2604535f8aa","not_provided","desktop","0","0","0","","","","","","working_memory","","null","<div class=""fixation"">+</div>","null","","","","","","","","","","","","","","","","",""
"html-keyboard-response","53","222230","0.0-5.0-3.0-1.0-1.8","697caeea2ec1c2604535f8aa","not_provided","desktop","0","0","0","","","","","","working_memory","","null","<img class='b' src=images/squares/red.png><img class='a' src=images/squares/black.png><img class='d' src=images/squares/orange.png><img class='f' src=images/squares/green.png><img class='h' src=images/squares/blue.png><img class='g' src=images/squares/brown.png><img class='l' src=images/squares/magenta.png><img class='j' src=images/squares/cyan.png><div class=""fixation"">+</div>","null","","","memory","practice","8","8","","","","","","","","","","",""
"html-keyboard-response","54","223135","0.0-5.0-3.0-1.0-2.8","697caeea2ec1c2604535f8aa","not_provided","desktop","0","0","0","","","","","","working_memory","","null","<div class=""fixation"">+</div>","null","","","","","","","","","","","","","","","","",""
"html-keyboard-response","55","224097","0.0-5.0-3.0-1.0-3.8","697caeea2ec1c2604535f8aa","not_provided","desktop","0","0","0","","","","","","working_memory","","961","<img class='d' src=images/squares/orange.png><div class=""fixation"">+</div>","k","","","test","practice","8","8","k","true","","","","","","","","",""
"html-keyboard-response","56","224611","0.0-5.0-3.0-1.0-4.8","697caeea2ec1c2604535f8aa","not_provided","desktop","0","0","0","","","","","","working_memory","","null","<div class=""fixation"">Correct</div>","null","","","","","","","","","","","","","","","","",""
"html-keyboard-response","57","225615","0.0-5.0-3.0-1.0-0.9","697caeea2ec1c2604535f8aa","not_provided","desktop","0","0","0","","","","","","working_memory","","null","<div class=""fixation"">+</div>","null","","","","","","","","","","","","","","","","",""
"html-keyboard-response","58","225823","0.0-5.0-3.0-1.0-1.9","697caeea2ec1c2604535f8aa","not_provided","desktop","0","0","0","","","","","","working_memory","","null","<img class='a' src=images/squares/blue.png><img class='d' src=images/squares/red.png><img class='g' src=images/squares/yellow.png><img class='k' src=images/squares/black.png><div class=""fixation"">+</div>","null","","","memory","practice","9","4","","","","","","","","","","",""
"html-keyboard-response","59","226735","0.0-5.0-3.0-1.0-2.9","697caeea2ec1c2604535f8aa","not_provided","desktop","0","0","0","","","","","","working_memory","","null","<div class=""fixation"">+</div>","null","","","","","","","","","","","","","","","","",""
"html-keyboard-response","60","227616","0.0-5.0-3.0-1.0-3.9","697caeea2ec1c2604535f8aa","not_provided","desktop","0","0","0","","","","","","working_memory","","879","<img class='k' src=images/squares/black.png><div class=""fixation"">+</div>","k","","","test","practice","9","4","k","true","","","","","","","","",""
"html-keyboard-response","61","228132","0.0-5.0-3.0-1.0-4.9","697caeea2ec1c2604535f8aa","not_provided","desktop","0","0","0","","","","","","working_memory","","null","<div class=""fixation"">Correct</div>","null","","","","","","","","","","","","","","","","",""
"html-keyboard-response","62","229138","0.0-5.0-3.0-1.0-0.10","697caeea2ec1c2604535f8aa","not_provided","desktop","0","0","0","","","","","","working_memory","","null","<div class=""fixation"">+</div>","null","","","","","","","","","","","","","","","","",""
"html-keyboard-response","63","229351","0.0-5.0-3.0-1.0-1.10","697caeea2ec1c2604535f8aa","not_provided","desktop","0","0","0","","","","","","working_memory","","null","<img class='a' src=images/squares/cyan.png><img class='f' src=images/squares/brown.png><img class='i' src=images/squares/blue.png><img class='k' src=images/squares/magenta.png><div class=""fixation"">+</div>","null","","","memory","practice","10","4","","","","","","","","","","",""
"html-keyboard-response","64","230267","0.0-5.0-3.0-1.0-2.10","697caeea2ec1c2604535f8aa","not_provided","desktop","0","0","0","","","","","","working_memory","","null","<div class=""fixation"">+</div>","null","","","","","","","","","","","","","","","","",""
"html-keyboard-response","65","231067","0.0-5.0-3.0-1.0-3.10","697caeea2ec1c2604535f8aa","not_provided","desktop","0","0","0","","","","","","working_memory","","798","<img class='a' src=images/squares/cyan.png><div class=""fixation"">+</div>","k","","","test","practice","10","4","k","true","","","","","","","","",""
"html-keyboard-response","66","231579","0.0-5.0-3.0-1.0-4.10","697caeea2ec1c2604535f8aa","not_provided","desktop","0","0","0","","","","","","working_memory","","null","<div class=""fixation"">Correct</div>","null","","","","","","","","","","","","","","","","",""
"html-keyboard-response","67","232582","0.0-5.0-3.0-1.0-0.11","697caeea2ec1c2604535f8aa","not_provided","desktop","0","0","0","","","","","","working_memory","","null","<div class=""fixation"">+</div>","null","","","","","","","","","","","","","","","","",""
"html-keyboard-response","68","232793","0.0-5.0-3.0-1.0-1.11","697caeea2ec1c2604535f8aa","not_provided","desktop","0","0","0","","","","","","working_memory","","null","<img class='lower1' src=images/squares/green.png><div class=""fixation"">+</div>","null","","","memory","practice","11","1","","","","","","","","","","",""
"html-keyboard-response","69","233700","0.0-5.0-3.0-1.0-2.11","697caeea2ec1c2604535f8aa","not_provided","desktop","0","0","0","","","","","","working_memory","","null","<div class=""fixation"">+</div>","null","","","","","","","","","","","","","","","","",""
"html-keyboard-response","70","234508","0.0-5.0-3.0-1.0-3.11","697caeea2ec1c2604535f8aa","not_provided","desktop","0","0","0","","","","","","working_memory","","808","<img class='lower1' src=images/squares/black.png><div class=""fixation"">+</div>","s","","","test","practice","11","1","s","true","","","","","","","","",""
"html-keyboard-response","71","235013","0.0-5.0-3.0-1.0-4.11","697caeea2ec1c2604535f8aa","not_provided","desktop","0","0","0","","","","","","working_memory","","null","<div class=""fixation"">Correct</div>","null","","","","","","","","","","","","","","","","",""
"html-keyboard-response","72","236019","0.0-5.0-3.0-1.0-0.12","697caeea2ec1c2604535f8aa","not_provided","desktop","0","0","0","","","","","","working_memory","","null","<div class=""fixation"">+</div>","null","","","","","","","","","","","","","","","","",""
"html-keyboard-response","73","236229","0.0-5.0-3.0-1.0-1.12","697caeea2ec1c2604535f8aa","not_provided","desktop","0","0","0","","","","","","working_memory","","null","<img class='lower1' src=images/squares/blue.png><div class=""fixation"">+</div>","null","","","memory","practice","12","1","","","","","","","","","","",""
"html-keyboard-response","74","237136","0.0-5.0-3.0-1.0-2.12","697caeea2ec1c2604535f8aa","not_provided","desktop","0","0","0","","","","","","working_memory","","null","<div class=""fixation"">+</div>","null","","","","","","","","","","","","","","","","",""
"html-keyboard-response","75","237991","0.0-5.0-3.0-1.0-3.12","697caeea2ec1c2604535f8aa","not_provided","desktop","0","0","0","","","","","","working_memory","","853","<img class='lower1' src=images/squares/blue.png><div class=""fixation"">+</div>","k","","","test","practice","12","1","k","true","","","","","","","","",""
"html-keyboard-response","76","238498","0.0-5.0-3.0-1.0-4.12","697caeea2ec1c2604535f8aa","not_provided","desktop","0","0","0","","","","","","working_memory","","null","<div class=""fixation"">Correct</div>","null","","","","","","","","","","","","","","","","",""
"html-keyboard-response","77","239514","0.0-5.0-3.0-1.0-0.13","697caeea2ec1c2604535f8aa","not_provided","desktop","0","0","0","","","","","","working_memory","","null","<div class=""fixation"">+</div>","null","","","","","","","","","","","","","","","","",""
"html-keyboard-response","78","239721","0.0-5.0-3.0-1.0-1.13","697caeea2ec1c2604535f8aa","not_provided","desktop","0","0","0","","","","","","working_memory","","null","<img class='c' src=images/squares/yellow.png><img class='a' src=images/squares/green.png><img class='f' src=images/squares/blue.png><img class='e' src=images/squares/brown.png><img class='g' src=images/squares/magenta.png><img class='h' src=images/squares/black.png><img class='k' src=images/squares/cyan.png><img class='j' src=images/squares/orange.png><div class=""fixation"">+</div>","null","","","memory","practice","13","8","","","","","","","","","","",""
"html-keyboard-response","79","240634","0.0-5.0-3.0-1.0-2.13","697caeea2ec1c2604535f8aa","not_provided","desktop","0","0","0","","","","","","working_memory","","null","<div class=""fixation"">+</div>","null","","","","","","","","","","","","","","","","",""
"html-keyboard-response","80","241537","0.0-5.0-3.0-1.0-3.13","697caeea2ec1c2604535f8aa","not_provided","desktop","0","0","0","","","","","","working_memory","","901","<img class='k' src=images/squares/cyan.png><div class=""fixation"">+</div>","k","","","test","practice","13","8","k","true","","","","","","","","",""
"html-keyboard-response","81","242054","0.0-5.0-3.0-1.0-4.13","697caeea2ec1c2604535f8aa","not_provided","desktop","0","0","0","","","","","","working_memory","","null","<div class=""fixation"">Correct</div>","null","","","","","","","","","","","","","","","","",""
"html-keyboard-response","82","243055","0.0-5.0-3.0-1.0-0.14","697caeea2ec1c2604535f8aa","not_provided","desktop","0","0","0","","","","","","working_memory","","null","<div class=""fixation"">+</div>","null","","","","","","","","","","","","","","","","",""
"html-keyboard-response","83","243265","0.0-5.0-3.0-1.0-1.14","697caeea2ec1c2604535f8aa","not_provided","desktop","0","0","0","","","","","","working_memory","","null","<img class='c' src=images/squares/cyan.png><img class='e' src=images/squares/black.png><img class='h' src=images/squares/yellow.png><img class='k' src=images/squares/red.png><div class=""fixation"">+</div>","null","","","memory","practice","14","4","","","","","","","","","","",""
"html-keyboard-response","84","244178","0.0-5.0-3.0-1.0-2.14","697caeea2ec1c2604535f8aa","not_provided","desktop","0","0","0","","","","","","working_memory","","null","<div class=""fixation"">+</div>","null","","","","","","","","","","","","","","","","",""
"html-keyboard-response","85","244930","0.0-5.0-3.0-1.0-3.14","697caeea2ec1c2604535f8aa","not_provided","desktop","0","0","0","","","","","","working_memory","","750","<img class='e' src=images/squares/black.png><div class=""fixation"">+</div>","k","","","test","practice","14","4","k","true","","","","","","","","",""
"html-keyboard-response","86","245438","0.0-5.0-3.0-1.0-4.14","697caeea2ec1c2604535f8aa","not_provided","desktop","0","0","0","","","","","","working_memory","","null","<div class=""fixation"">Correct</div>","null","","","","","","","","","","","","","","","","",""
"html-keyboard-response","87","251582","0.0-5.0-4.0","697caeea2ec1c2604535f8aa","not_provided","desktop","0","0","0","","","","","","working_memory","","6143","<div style=""text-align:center;font-family:sans-serif;""><p>Good job! You have finished the practice.</p><p>We will now start the real experiment.</p><p>Please try to be as accurate as possible.</p><p><b><u>Note: random guessing may risk your payment.</u></b></p><br><p><b>Press any key to begin.</b></p></div>","k","","","","","","","","","","","","","","","","",""
"html-keyboard-response","88","252585","0.0-5.0-5.0-0.0","697caeea2ec1c2604535f8aa","not_provided","desktop","0","0","0","","","","","","working_memory","","null","<div class=""fixation"">+</div>","null","","","","","","","","","","","","","","","","",""
"html-keyboard-response","89","252803","0.0-5.0-5.0-1.0","697caeea2ec1c2604535f8aa","not_provided","desktop","0","0","0","","","","","","working_memory","","null","<img class='b' src=images/squares/red.png><img class='d' src=images/squares/black.png><img class='g' src=images/squares/blue.png><img class='k' src=images/squares/magenta.png><div class=""fixation"">+</div>","null","","","memory","exp","0","","","","","","","","","","","",""
"html-keyboard-response","90","253720","0.0-5.0-5.0-2.0","697caeea2ec1c2604535f8aa","not_provided","desktop","0","0","0","","","","","","working_memory","","null","<div class=""fixation"">+</div>","null","","","","","","","","","","","","","","","","",""
"html-keyboard-response","91","254530","0.0-5.0-5.0-3.0","697caeea2ec1c2604535f8aa","not_provided","desktop","0","0","0","","","","","","working_memory","","808","<img class='k' src=images/squares/magenta.png><div class=""fixation"">+</div>","k","","","test_squares","exp","0","4","k","true","ks","s","","","","","","",""
"html-keyboard-response","92","255043","0.0-5.0-5.0-4.0","697caeea2ec1c2604535f8aa","not_provided","desktop","0","0","0","","","","","","working_memory","","null","<div class=""fixation"">Correct</div>","null","","","","","","","","","","","","","","","","",""
"html-keyboard-response","93","256050","0.0-5.0-5.0-0.1","697caeea2ec1c2604535f8aa","not_provided","desktop","0","0","0","","","","","","working_memory","","null","<div class=""fixation"">+</div>","null","","","","","","","","","","","","","","","","",""
"html-keyboard-response","94","256264","0.0-5.0-5.0-1.1","697caeea2ec1c2604535f8aa","not_provided","desktop","0","0","0","","","","","","working_memory","","null","<img class='b' src=images/squares/magenta.png><img class='c' src=images/squares/cyan.png><img class='f' src=images/squares/black.png><img class='d' src=images/squares/blue.png><img class='g' src=images/squares/green.png><img class='h' src=images/squares/brown.png><img class='k' src=images/squares/yellow.png><img class='l' src=images/squares/red.png><div class=""fixation"">+</div>","null","","","memory","exp","1","","","","","","","","","","","",""
"html-keyboard-response","95","257166","0.0-5.0-5.0-2.1","697caeea2ec1c2604535f8aa","not_provided","desktop","0","0","0","","","","","","working_memory","","null","<div class=""fixation"">+</div>","null","","","","","","","","","","","","","","","","",""
"html-keyboard-response","96","258215","0.0-5.0-5.0-3.1","697caeea2ec1c2604535f8aa","not_provided","desktop","0","0","0","","","","","","working_memory","","1047","<img class='f' src=images/squares/orange.png><div class=""fixation"">+</div>","k","","","test_squares","exp","1","8","s","false","ks","d","","","","","","",""
"html-keyboard-response","97","258726","0.0-5.0-5.0-4.1","697caeea2ec1c2604535f8aa","not_provided","desktop","0","0","0","","","","","","working_memory","","null","<div class=""fixation"">Incorrect</div>","null","","","","","","","","","","","","","","","","",""
"html-keyboard-response","98","259742","0.0-5.0-5.0-0.2","697caeea2ec1c2604535f8aa","not_provided","desktop","0","0","0","","","","","","working_memory","","null","<div class=""fixation"">+</div>","null","","","","","","","","","","","","","","","","",""
"html-keyboard-response","99","259948","0.0-5.0-5.0-1.2","697caeea2ec1c2604535f8aa","not_provided","desktop","0","0","0","","","","","","working_memory","","null","<img class='b' src=images/squares/red.png><img class='f' src=images/squares/orange.png><img class='i' src=images/squares/black.png><img class='j' src=images/squares/cyan.png><div class=""fixation"">+</div>","null","","","memory","exp","2","","","","","","","","","","","",""
"html-keyboard-response","100","260860","0.0-5.0-5.0-2.2","697caeea2ec1c2604535f8aa","not_provided","desktop","0","0","0","","","","","","working_memory","","null","<div class=""fixation"">+</div>","null","","","","","","","","","","","","","","","","",""
"html-keyboard-response","101","261855","0.0-5.0-5.0-3.2","697caeea2ec1c2604535f8aa","not_provided","desktop","0","0","0","","","","","","working_memory","","994","<img class='f' src=images/squares/magenta.png><div class=""fixation"">+</div>","k","","","test_squares","exp","2","4","s","false","ks","d","","","","","","",""
"html-keyboard-response","102","262371","0.0-5.0-5.0-4.2","697caeea2ec1c2604535f8aa","not_provided","desktop","0","0","0","","","","","","working_memory","","null","<div class=""fixation"">Incorrect</div>","null","","","","","","","","","","","","","","","","",""
"html-keyboard-response","103","263380","0.0-5.0-5.0-0.3","697caeea2ec1c2604535f8aa","not_provided","desktop","0","0","0","","","","","","working_memory","","null","<div class=""fixation"">+</div>","null","","","","","","","","","","","","","","","","",""
"html-keyboard-response","104","263596","0.0-5.0-5.0-1.3","697caeea2ec1c2604535f8aa","not_provided","desktop","0","0","0","","","","","","working_memory","","null","<img class='b' src=images/squares/yellow.png><img class='f' src=images/squares/red.png><img class='i' src=images/squares/cyan.png><img class='k' src=images/squares/green.png><div class=""fixation"">+</div>","null","","","memory","exp","3","","","","","","","","","","","",""
"html-keyboard-response","105","264505","0.0-5.0-5.0-2.3","697caeea2ec1c2604535f8aa","not_provided","desktop","0","0","0","","","","","","working_memory","","null","<div class=""fixation"">+</div>","null","","","","","","","","","","","","","","","","",""
"html-keyboard-response","106","265797","0.0-5.0-5.0-3.3","697caeea2ec1c2604535f8aa","not_provided","desktop","0","0","0","","","","","","working_memory","","1290","<img class='i' src=images/squares/magenta.png><div class=""fixation"">+</div>","s","","","test_squares","exp","3","4","s","true","ks","d","","","","","","",""
"html-keyboard-response","107","266307","0.0-5.0-5.0-4.3","697caeea2ec1c2604535f8aa","not_provided","desktop","0","0","0","","","","","","working_memory","","null","<div class=""fixation"">Correct</div>","null","","","","","","","","","","","","","","","","",""
"html-keyboard-response","108","267318","0.0-5.0-5.0-0.4","697caeea2ec1c2604535f8aa","not_provided","desktop","0","0","0","","","","","","working_memory","","null","<div class=""fixation"">+</div>","null","","","","","","","","","","","","","","","","",""
"html-keyboard-response","109","267530","0.0-5.0-5.0-1.4","697caeea2ec1c2604535f8aa","not_provided","desktop","0","0","0","","","","","","working_memory","","null","<img class='c' src=images/squares/yellow.png><img class='d' src=images/squares/orange.png><img class='g' src=images/squares/blue.png><img class='l' src=images/squares/green.png><div class=""fixation"">+</div>","null","","","memory","exp","4","","","","","","","","","","","",""
"html-keyboard-response","110","268446","0.0-5.0-5.0-2.4","697caeea2ec1c2604535f8aa","not_provided","desktop","0","0","0","","","","","","working_memory","","null","<div class=""fixation"">+</div>","null","","","","","","","","","","","","","","","","",""
"html-keyboard-response","111","270248","0.0-5.0-5.0-3.4","697caeea2ec1c2604535f8aa","not_provided","desktop","0","0","0","","","","","","working_memory","","1801","<img class='l' src=images/squares/magenta.png><div class=""fixation"">+</div>","s","","","test_squares","exp","4","4","s","true","ks","d","","","","","","",""
"html-keyboard-response","112","270759","0.0-5.0-5.0-4.4","697caeea2ec1c2604535f8aa","not_provided","desktop","0","0","0","","","","","","working_memory","","null","<div class=""fixation"">Correct</div>","null","","","","","","","","","","","","","","","","",""
"html-keyboard-response","113","271763","0.0-5.0-5.0-0.5","697caeea2ec1c2604535f8aa","not_provided","desktop","0","0","0","","","","","","working_memory","","null","<div class=""fixation"">+</div>","null","","","","","","","","","","","","","","","","",""
"html-keyboard-response","114","271965","0.0-5.0-5.0-1.5","697caeea2ec1c2604535f8aa","not_provided","desktop","0","0","0","","","","","","working_memory","","null","<img class='c' src=images/squares/black.png><img class='a' src=images/squares/brown.png><img class='e' src=images/squares/yellow.png><img class='d' src=images/squares/green.png><img class='i' src=images/squares/blue.png><img class='h' src=images/squares/cyan.png><img class='j' src=images/squares/orange.png><img class='l' src=images/squares/red.png><div class=""fixation"">+</div>","null","","","memory","exp","5","","","","","","","","","","","",""
"html-keyboard-response","115","272871","0.0-5.0-5.0-2.5","697caeea2ec1c2604535f8aa","not_provided","desktop","0","0","0","","","","","","working_memory","","null","<div class=""fixation"">+</div>","null","","","","","","","","","","","","","","","","",""
"html-keyboard-response","116","274402","0.0-5.0-5.0-3.5","697caeea2ec1c2604535f8aa","not_provided","desktop","0","0","0","","","","","","working_memory","","1530","<img class='h' src=images/squares/cyan.png><div class=""fixation"">+</div>","s","","","test_squares","exp","5","8","k","false","ks","s","","","","","","",""
"html-keyboard-response","117","274909","0.0-5.0-5.0-4.5","697caeea2ec1c2604535f8aa","not_provided","desktop","0","0","0","","","","","","working_memory","","null","<div class=""fixation"">Incorrect</div>","null","","","","","","","","","","","","","","","","",""
"html-keyboard-response","118","275911","0.0-5.0-5.0-0.6","697caeea2ec1c2604535f8aa","not_provided","desktop","0","0","0","","","","","","working_memory","","null","<div class=""fixation"">+</div>","null","","","","","","","","","","","","","","","","",""
"html-keyboard-response","119","276129","0.0-5.0-5.0-1.6","697caeea2ec1c2604535f8aa","not_provided","desktop","0","0","0","","","","","","working_memory","","null","<img class='b' src=images/squares/cyan.png><img class='c' src=images/squares/magenta.png><img class='f' src=images/squares/green.png><img class='e' src=images/squares/blue.png><img class='g' src=images/squares/black.png><img class='i' src=images/squares/orange.png><img class='l' src=images/squares/brown.png><img class='k' src=images/squares/red.png><div class=""fixation"">+</div>","null","","","memory","exp","6","","","","","","","","","","","",""
"html-keyboard-response","120","277039","0.0-5.0-5.0-2.6","697caeea2ec1c2604535f8aa","not_provided","desktop","0","0","0","","","","","","working_memory","","null","<div class=""fixation"">+</div>","null","","","","","","","","","","","","","","","","",""
"html-keyboard-response","121","278077","0.0-5.0-5.0-3.6","697caeea2ec1c2604535f8aa","not_provided","desktop","0","0","0","","","","","","working_memory","","1036","<img class='k' src=images/squares/yellow.png><div class=""fixation"">+</div>","k","","","test_squares","exp","6","8","s","false","ks","d","","","","","","",""
"html-keyboard-response","122","278579","0.0-5.0-5.0-4.6","697caeea2ec1c2604535f8aa","not_provided","desktop","0","0","0","","","","","","working_memory","","null","<div class=""fixation"">Incorrect</div>","null","","","","","","","","","","","","","","","","",""
"html-keyboard-response","123","279594","0.0-5.0-5.0-0.7","697caeea2ec1c2604535f8aa","not_provided","desktop","0","0","0","","","","","","working_memory","","null","<div class=""fixation"">+</div>","null","","","","","","","","","","","","","","","","",""
"html-keyboard-response","124","279798","0.0-5.0-5.0-1.7","697caeea2ec1c2604535f8aa","not_provided","desktop","0","0","0","","","","","","working_memory","","null","<img class='a' src=images/squares/cyan.png><img class='b' src=images/squares/green.png><img class='d' src=images/squares/brown.png><img class='f' src=images/squares/orange.png><img class='g' src=images/squares/yellow.png><img class='i' src=images/squares/blue.png><img class='j' src=images/squares/black.png><img class='k' src=images/squares/red.png><div class=""fixation"">+</div>","null","","","memory","exp","7","","","","","","","","","","","",""
"html-keyboard-response","125","280712","0.0-5.0-5.0-2.7","697caeea2ec1c2604535f8aa","not_provided","desktop","0","0","0","","","","","","working_memory","","null","<div class=""fixation"">+</div>","null","","","","","","","","","","","","","","","","",""
"html-keyboard-response","126","281759","0.0-5.0-5.0-3.7","697caeea2ec1c2604535f8aa","not_provided","desktop","0","0","0","","","","","","working_memory","","1046","<img class='j' src=images/squares/black.png><div class=""fixation"">+</div>","k","","","test_squares","exp","7","8","k","true","ks","s","","","","","","",""
"html-keyboard-response","127","282270","0.0-5.0-5.0-4.7","697caeea2ec1c2604535f8aa","not_provided","desktop","0","0","0","","","","","","working_memory","","null","<div class=""fixation"">Correct</div>","null","","","","","","","","","","","","","","","","",""
"html-keyboard-response","128","283284","0.0-5.0-5.0-0.8","697caeea2ec1c2604535f8aa","not_provided","desktop","0","0","0","","","","","","working_memory","","null","<div class=""fixation"">+</div>","null","","","","","","","","","","","","","","","","",""
"html-keyboard-response","129","283498","0.0-5.0-5.0-1.8","697caeea2ec1c2604535f8aa","not_provided","desktop","0","0","0","","","","","","working_memory","","null","<img class='c' src=images/squares/cyan.png><img class='b' src=images/squares/red.png><img class='e' src=images/squares/yellow.png><img class='d' src=images/squares/orange.png><img class='g' src=images/squares/blue.png><img class='i' src=images/squares/green.png><img class='l' src=images/squares/brown.png><img class='k' src=images/squares/black.png><div class=""fixation"">+</div>","null","","","memory","exp","8","","","","","","","","","","","",""
"html-keyboard-response","130","284401","0.0-5.0-5.0-2.8","697caeea2ec1c2604535f8aa","not_provided","desktop","0","0","0","","","","","","working_memory","","null","<div class=""fixation"">+</div>","null","","","","","","","","","","","","","","","","",""
"html-keyboard-response","131","285557","0.0-5.0-5.0-3.8","697caeea2ec1c2604535f8aa","not_provided","desktop","0","0","0","","","","","","working_memory","","1155","<img class='l' src=images/squares/magenta.png><div class=""fixation"">+</div>","k","","","test_squares","exp","8","8","s","false","ks","d","","","","","","",""
"html-keyboard-response","132","286062","0.0-5.0-5.0-4.8","697caeea2ec1c2604535f8aa","not_provided","desktop","0","0","0","","","","","","working_memory","","null","<div class=""fixation"">Incorrect</div>","null","","","","","","","","","","","","","","","","",""
"html-keyboard-response","133","287079","0.0-5.0-5.0-0.9","697caeea2ec1c2604535f8aa","not_provided","desktop","0","0","0","","","","","","working_memory","","null","<div class=""fixation"">+</div>","null","","","","","","","","","","","","","","","","",""
"html-keyboard-response","134","287283","0.0-5.0-5.0-1.9","697caeea2ec1c2604535f8aa","not_provided","desktop","0","0","0","","","","","","working_memory","","null","<img class='b' src=images/squares/brown.png><img class='c' src=images/squares/cyan.png><img class='e' src=images/squares/orange.png><img class='f' src=images/squares/yellow.png><img class='h' src=images/squares/black.png><img class='g' src=images/squares/blue.png><img class='j' src=images/squares/green.png><img class='k' src=images/squares/magenta.png><div class=""fixation"">+</div>","null","","","memory","exp","9","","","","","","","","","","","",""
"html-keyboard-response","135","288199","0.0-5.0-5.0-2.9","697caeea2ec1c2604535f8aa","not_provided","desktop","0","0","0","","","","","","working_memory","","null","<div class=""fixation"">+</div>","null","","","","","","","","","","","","","","","","",""
"html-keyboard-response","136","288965","0.0-5.0-5.0-3.9","697caeea2ec1c2604535f8aa","not_provided","desktop","0","0","0","","","","","","working_memory","","765","<img class='f' src=images/squares/yellow.png><div class=""fixation"">+</div>","k","","","test_squares","exp","9","8","k","true","ks","s","","","","","","",""
"html-keyboard-response","137","289471","0.0-5.0-5.0-4.9","697caeea2ec1c2604535f8aa","not_provided","desktop","0","0","0","","","","","","working_memory","","null","<div class=""fixation"">Correct</div>","null","","","","","","","","","","","","","","","","",""
"html-keyboard-response","138","290474","0.0-5.0-5.0-0.10","697caeea2ec1c2604535f8aa","not_provided","desktop","0","0","0","","","","","","working_memory","","null","<div class=""fixation"">+</div>","null","","","","","","","","","","","","","","","","",""
"html-keyboard-response","139","290686","0.0-5.0-5.0-1.10","697caeea2ec1c2604535f8aa","not_provided","desktop","0","0","0","","","","","","working_memory","","null","<img class='c' src=images/squares/magenta.png><img class='a' src=images/squares/yellow.png><img class='f' src=images/squares/orange.png><img class='e' src=images/squares/green.png><img class='i' src=images/squares/brown.png><img class='g' src=images/squares/red.png><img class='j' src=images/squares/blue.png><img class='k' src=images/squares/cyan.png><div class=""fixation"">+</div>","null","","","memory","exp","10","","","","","","","","","","","",""
"html-keyboard-response","140","291598","0.0-5.0-5.0-2.10","697caeea2ec1c2604535f8aa","not_provided","desktop","0","0","0","","","","","","working_memory","","null","<div class=""fixation"">+</div>","null","","","","","","","","","","","","","","","","",""
"html-keyboard-response","141","292640","0.0-5.0-5.0-3.10","697caeea2ec1c2604535f8aa","not_provided","desktop","0","0","0","","","","","","working_memory","","1041","<img class='e' src=images/squares/black.png><div class=""fixation"">+</div>","s","","","test_squares","exp","10","8","s","true","ks","d","","","","","","",""
"html-keyboard-response","142","293149","0.0-5.0-5.0-4.10","697caeea2ec1c2604535f8aa","not_provided","desktop","0","0","0","","","","","","working_memory","","null","<div class=""fixation"">Correct</div>","null","","","","","","","","","","","","","","","","",""
"html-keyboard-response","143","294154","0.0-5.0-5.0-0.11","697caeea2ec1c2604535f8aa","not_provided","desktop","0","0","0","","","","","","working_memory","","null","<div class=""fixation"">+</div>","null","","","","","","","","","","","","","","","","",""
"html-keyboard-response","144","294369","0.0-5.0-5.0-1.11","697caeea2ec1c2604535f8aa","not_provided","desktop","0","0","0","","","","","","working_memory","","null","<img class='a' src=images/squares/orange.png><img class='b' src=images/squares/brown.png><img class='f' src=images/squares/blue.png><img class='e' src=images/squares/black.png><img class='g' src=images/squares/yellow.png><img class='h' src=images/squares/green.png><img class='k' src=images/squares/cyan.png><img class='l' src=images/squares/red.png><div class=""fixation"">+</div>","null","","","memory","exp","11","","","","","","","","","","","",""
"html-keyboard-response","145","295280","0.0-5.0-5.0-2.11","697caeea2ec1c2604535f8aa","not_provided","desktop","0","0","0","","","","","","working_memory","","null","<div class=""fixation"">+</div>","null","","","","","","","","","","","","","","","","",""
"html-keyboard-response","146","296386","0.0-5.0-5.0-3.11","697caeea2ec1c2604535f8aa","not_provided","desktop","0","0","0","","","","","","working_memory","","1105","<img class='a' src=images/squares/magenta.png><div class=""fixation"">+</div>","k","","","test_squares","exp","11","8","s","false","ks","d","","","","","","",""
"html-keyboard-response","147","296900","0.0-5.0-5.0-4.11","697caeea2ec1c2604535f8aa","not_provided","desktop","0","0","0","","","","","","working_memory","","null","<div class=""fixation"">Incorrect</div>","null","","","","","","","","","","","","","","","","",""
"html-keyboard-response","148","297915","0.0-5.0-5.0-0.12","697caeea2ec1c2604535f8aa","not_provided","desktop","0","0","0","","","","","","working_memory","","null","<div class=""fixation"">+</div>","null","","","","","","","","","","","","","","","","",""
"html-keyboard-response","149","298129","0.0-5.0-5.0-1.12","697caeea2ec1c2604535f8aa","not_provided","desktop","0","0","0","","","","","","working_memory","","null","<img class='a' src=images/squares/black.png><img class='e' src=images/squares/yellow.png><img class='h' src=images/squares/blue.png><img class='k' src=images/squares/cyan.png><div class=""fixation"">+</div>","null","","","memory","exp","12","","","","","","","","","","","",""
"html-keyboard-response","150","299043","0.0-5.0-5.0-2.12","697caeea2ec1c2604535f8aa","not_provided","desktop","0","0","0","","","","","","working_memory","","null","<div class=""fixation"">+</div>","null","","","","","","","","","","","","","","","","",""
"html-keyboard-response","151","299670","0.0-5.0-5.0-3.12","697caeea2ec1c2604535f8aa","not_provided","desktop","0","0","0","","","","","","working_memory","","626","<img class='k' src=images/squares/cyan.png><div class=""fixation"">+</div>","k","","","test_squares","exp","12","4","k","true","ks","s","","","","","","",""
"html-keyboard-response","152","300186","0.0-5.0-5.0-4.12","697caeea2ec1c2604535f8aa","not_provided","desktop","0","0","0","","","","","","working_memory","","null","<div class=""fixation"">Correct</div>","null","","","","","","","","","","","","","","","","",""
"html-keyboard-response","153","301201","0.0-5.0-5.0-0.13","697caeea2ec1c2604535f8aa","not_provided","desktop","0","0","0","","","","","","working_memory","","null","<div class=""fixation"">+</div>","null","","","","","","","","","","","","","","","","",""
"html-keyboard-response","154","301416","0.0-5.0-5.0-1.13","697caeea2ec1c2604535f8aa","not_provided","desktop","0","0","0","","","","","","working_memory","","null","<img class='b' src=images/squares/brown.png><img class='a' src=images/squares/blue.png><img class='f' src=images/squares/green.png><img class='e' src=images/squares/orange.png><img class='h' src=images/squares/magenta.png><img class='g' src=images/squares/black.png><img class='l' src=images/squares/red.png><img class='j' src=images/squares/cyan.png><div class=""fixation"">+</div>","null","","","memory","exp","13","","","","","","","","","","","",""
"html-keyboard-response","155","302320","0.0-5.0-5.0-2.13","697caeea2ec1c2604535f8aa","not_provided","desktop","0","0","0","","","","","","working_memory","","null","<div class=""fixation"">+</div>","null","","","","","","","","","","","","","","","","",""
"html-keyboard-response","156","305526","0.0-5.0-5.0-3.13","697caeea2ec1c2604535f8aa","not_provided","desktop","0","0","0","","","","","","working_memory","","3204","<img class='j' src=images/squares/cyan.png><div class=""fixation"">+</div>","s","","","test_squares","exp","13","8","k","false","ks","s","","","","","","",""
"html-keyboard-response","157","306036","0.0-5.0-5.0-4.13","697caeea2ec1c2604535f8aa","not_provided","desktop","0","0","0","","","","","","working_memory","","null","<div class=""fixation"">Incorrect</div>","null","","","","","","","","","","","","","","","","",""
"html-keyboard-response","158","307041","0.0-5.0-5.0-0.14","697caeea2ec1c2604535f8aa","not_provided","desktop","0","0","0","","","","","","working_memory","","null","<div class=""fixation"">+</div>","null","","","","","","","","","","","","","","","","",""
"html-keyboard-response","159","307258","0.0-5.0-5.0-1.14","697caeea2ec1c2604535f8aa","not_provided","desktop","0","0","0","","","","","","working_memory","","null","<img class='a' src=images/squares/yellow.png><img class='e' src=images/squares/red.png><img class='g' src=images/squares/cyan.png><img class='j' src=images/squares/brown.png><div class=""fixation"">+</div>","null","","","memory","exp","14","","","","","","","","","","","",""
"html-keyboard-response","160","308165","0.0-5.0-5.0-2.14","697caeea2ec1c2604535f8aa","not_provided","desktop","0","0","0","","","","","","working_memory","","null","<div class=""fixation"">+</div>","null","","","","","","","","","","","","","","","","",""
"html-keyboard-response","161","309317","0.0-5.0-5.0-3.14","697caeea2ec1c2604535f8aa","not_provided","desktop","0","0","0","","","","","","working_memory","","1150","<img class='a' src=images/squares/green.png><div class=""fixation"">+</div>","s","","","test_squares","exp","14","4","s","true","ks","d","","","","","","",""
"html-keyboard-response","162","309822","0.0-5.0-5.0-4.14","697caeea2ec1c2604535f8aa","not_provided","desktop","0","0","0","","","","","","working_memory","","null","<div class=""fixation"">Correct</div>","null","","","","","","","","","","","","","","","","",""
"html-keyboard-response","163","310835","0.0-5.0-5.0-0.15","697caeea2ec1c2604535f8aa","not_provided","desktop","0","0","0","","","","","","working_memory","","null","<div class=""fixation"">+</div>","null","","","","","","","","","","","","","","","","",""
"html-keyboard-response","164","311049","0.0-5.0-5.0-1.15","697caeea2ec1c2604535f8aa","not_provided","desktop","0","0","0","","","","","","working_memory","","null","<img class='c' src=images/squares/orange.png><img class='b' src=images/squares/magenta.png><img class='f' src=images/squares/green.png><img class='e' src=images/squares/brown.png><img class='i' src=images/squares/blue.png><img class='h' src=images/squares/red.png><img class='k' src=images/squares/yellow.png><img class='j' src=images/squares/cyan.png><div class=""fixation"">+</div>","null","","","memory","exp","15","","","","","","","","","","","",""
"html-keyboard-response","165","311961","0.0-5.0-5.0-2.15","697caeea2ec1c2604535f8aa","not_provided","desktop","0","0","0","","","","","","working_memory","","null","<div class=""fixation"">+</div>","null","","","","","","","","","","","","","","","","",""
"html-keyboard-response","166","313326","0.0-5.0-5.0-3.15","697caeea2ec1c2604535f8aa","not_provided","desktop","0","0","0","","","","","","working_memory","","1364","<img class='f' src=images/squares/green.png><div class=""fixation"">+</div>","k","","","test_squares","exp","15","8","k","true","ks","s","","","","","","",""
"html-keyboard-response","167","313834","0.0-5.0-5.0-4.15","697caeea2ec1c2604535f8aa","not_provided","desktop","0","0","0","","","","","","working_memory","","null","<div class=""fixation"">Correct</div>","null","","","","","","","","","","","","","","","","",""
"html-keyboard-response","168","314843","0.0-5.0-5.0-0.16","697caeea2ec1c2604535f8aa","not_provided","desktop","0","0","0","","","","","","working_memory","","null","<div class=""fixation"">+</div>","null","","","","","","","","","","","","","","","","",""
"html-keyboard-response","169","315054","0.0-5.0-5.0-1.16","697caeea2ec1c2604535f8aa","not_provided","desktop","0","0","0","","","","","","working_memory","","null","<img class='c' src=images/squares/green.png><img class='d' src=images/squares/brown.png><img class='g' src=images/squares/blue.png><img class='k' src=images/squares/orange.png><div class=""fixation"">+</div>","null","","","memory","exp","16","","","","","","","","","","","",""
"html-keyboard-response","170","315963","0.0-5.0-5.0-2.16","697caeea2ec1c2604535f8aa","not_provided","desktop","0","0","0","","","","","","working_memory","","null","<div class=""fixation"">+</div>","null","","","","","","","","","","","","","","","","",""
"html-keyboard-response","171","316685","0.0-5.0-5.0-3.16","697caeea2ec1c2604535f8aa","not_provided","desktop","0","0","0","","","","","","working_memory","","721","<img class='c' src=images/squares/green.png><div class=""fixation"">+</div>","k","","","test_squares","exp","16","4","k","true","ks","s","","","","","","",""
"html-keyboard-response","172","317194","0.0-5.0-5.0-4.16","697caeea2ec1c2604535f8aa","not_provided","desktop","0","0","0","","","","","","working_memory","","null","<div class=""fixation"">Correct</div>","null","","","","","","","","","","","","","","","","",""
"html-keyboard-response","173","318208","0.0-5.0-5.0-0.17","697caeea2ec1c2604535f8aa","not_provided","desktop","0","0","0","","","","","","working_memory","","null","<div class=""fixation"">+</div>","null","","","","","","","","","","","","","","","","",""
"html-keyboard-response","174","318418","0.0-5.0-5.0-1.17","697caeea2ec1c2604535f8aa","not_provided","desktop","0","0","0","","","","","","working_memory","","null","<img class='a' src=images/squares/red.png><img class='f' src=images/squares/cyan.png><img class='i' src=images/squares/brown.png><img class='j' src=images/squares/black.png><div class=""fixation"">+</div>","null","","","memory","exp","17","","","","","","","","","","","",""
"html-keyboard-response","175","319322","0.0-5.0-5.0-2.17","697caeea2ec1c2604535f8aa","not_provided","desktop","0","0","0","","","","","","working_memory","","null","<div class=""fixation"">+</div>","null","","","","","","","","","","","","","","","","",""
"html-keyboard-response","176","320095","0.0-5.0-5.0-3.17","697caeea2ec1c2604535f8aa","not_provided","desktop","0","0","0","","","","","","working_memory","","772","<img class='i' src=images/squares/brown.png><div class=""fixation"">+</div>","k","","","test_squares","exp","17","4","k","true","ks","s","","","","","","",""
"html-keyboard-response","177","320598","0.0-5.0-5.0-4.17","697caeea2ec1c2604535f8aa","not_provided","desktop","0","0","0","","","","","","working_memory","","null","<div class=""fixation"">Correct</div>","null","","","","","","","","","","","","","","","","",""
"html-keyboard-response","178","321607","0.0-5.0-5.0-0.18","697caeea2ec1c2604535f8aa","not_provided","desktop","0","0","0","","","","","","working_memory","","null","<div class=""fixation"">+</div>","null","","","","","","","","","","","","","","","","",""
"html-keyboard-response","179","321824","0.0-5.0-5.0-1.18","697caeea2ec1c2604535f8aa","not_provided","desktop","0","0","0","","","","","","working_memory","","null","<img class='c' src=images/squares/red.png><img class='f' src=images/squares/brown.png><img class='g' src=images/squares/blue.png><img class='l' src=images/squares/yellow.png><div class=""fixation"">+</div>","null","","","memory","exp","18","","","","","","","","","","","",""
"html-keyboard-response","180","322731","0.0-5.0-5.0-2.18","697caeea2ec1c2604535f8aa","not_provided","desktop","0","0","0","","","","","","working_memory","","null","<div class=""fixation"">+</div>","null","","","","","","","","","","","","","","","","",""
"html-keyboard-response","181","323701","0.0-5.0-5.0-3.18","697caeea2ec1c2604535f8aa","not_provided","desktop","0","0","0","","","","","","working_memory","","969","<img class='l' src=images/squares/magenta.png><div class=""fixation"">+</div>","s","","","test_squares","exp","18","4","s","true","ks","d","","","","","","",""
"html-keyboard-response","182","324205","0.0-5.0-5.0-4.18","697caeea2ec1c2604535f8aa","not_provided","desktop","0","0","0","","","","","","working_memory","","null","<div class=""fixation"">Correct</div>","null","","","","","","","","","","","","","","","","",""
"html-keyboard-response","183","325210","0.0-5.0-5.0-0.19","697caeea2ec1c2604535f8aa","not_provided","desktop","0","0","0","","","","","","working_memory","","null","<div class=""fixation"">+</div>","null","","","","","","","","","","","","","","","","",""
"html-keyboard-response","184","325423","0.0-5.0-5.0-1.19","697caeea2ec1c2604535f8aa","not_provided","desktop","0","0","0","","","","","","working_memory","","null","<img class='b' src=images/squares/red.png><img class='c' src=images/squares/blue.png><img class='e' src=images/squares/orange.png><img class='f' src=images/squares/brown.png><img class='g' src=images/squares/black.png><img class='i' src=images/squares/green.png><img class='l' src=images/squares/magenta.png><img class='j' src=images/squares/cyan.png><div class=""fixation"">+</div>","null","","","memory","exp","19","","","","","","","","","","","",""
"html-keyboard-response","185","326329","0.0-5.0-5.0-2.19","697caeea2ec1c2604535f8aa","not_provided","desktop","0","0","0","","","","","","working_memory","","null","<div class=""fixation"">+</div>","null","","","","","","","","","","","","","","","","",""
"html-keyboard-response","186","327463","0.0-5.0-5.0-3.19","697caeea2ec1c2604535f8aa","not_provided","desktop","0","0","0","","","","","","working_memory","","1133","<img class='g' src=images/squares/black.png><div class=""fixation"">+</div>","s","","","test_squares","exp","19","8","k","false","ks","s","","","","","","",""
"html-keyboard-response","187","327967","0.0-5.0-5.0-4.19","697caeea2ec1c2604535f8aa","not_provided","desktop","0","0","0","","","","","","working_memory","","null","<div class=""fixation"">Incorrect</div>","null","","","","","","","","","","","","","","","","",""
"html-keyboard-response","188","328980","0.0-5.0-5.0-0.20","697caeea2ec1c2604535f8aa","not_provided","desktop","0","0","0","","","","","","working_memory","","null","<div class=""fixation"">+</div>","null","","","","","","","","","","","","","","","","",""
"html-keyboard-response","189","329183","0.0-5.0-5.0-1.20","697caeea2ec1c2604535f8aa","not_provided","desktop","0","0","0","","","","","","working_memory","","null","<img class='a' src=images/squares/black.png><img class='c' src=images/squares/orange.png><img class='e' src=images/squares/green.png><img class='d' src=images/squares/red.png><img class='i' src=images/squares/magenta.png><img class='g' src=images/squares/blue.png><img class='k' src=images/squares/brown.png><img class='j' src=images/squares/cyan.png><div class=""fixation"">+</div>","null","","","memory","exp","20","","","","","","","","","","","",""
"html-keyboard-response","190","330091","0.0-5.0-5.0-2.20","697caeea2ec1c2604535f8aa","not_provided","desktop","0","0","0","","","","","","working_memory","","null","<div class=""fixation"">+</div>","null","","","","","","","","","","","","","","","","",""
"html-keyboard-response","191","331170","0.0-5.0-5.0-3.20","697caeea2ec1c2604535f8aa","not_provided","desktop","0","0","0","","","","","","working_memory","","1078","<img class='d' src=images/squares/red.png><div class=""fixation"">+</div>","s","","","test_squares","exp","20","8","k","false","ks","s","","","","","","",""
"html-keyboard-response","192","331684","0.0-5.0-5.0-4.20","697caeea2ec1c2604535f8aa","not_provided","desktop","0","0","0","","","","","","working_memory","","null","<div class=""fixation"">Incorrect</div>","null","","","","","","","","","","","","","","","","",""
"html-keyboard-response","193","332693","0.0-5.0-5.0-0.21","697caeea2ec1c2604535f8aa","not_provided","desktop","0","0","0","","","","","","working_memory","","null","<div class=""fixation"">+</div>","null","","","","","","","","","","","","","","","","",""
"html-keyboard-response","194","332906","0.0-5.0-5.0-1.21","697caeea2ec1c2604535f8aa","not_provided","desktop","0","0","0","","","","","","working_memory","","null","<img class='c' src=images/squares/black.png><img class='a' src=images/squares/cyan.png><img class='d' src=images/squares/orange.png><img class='f' src=images/squares/magenta.png><img class='g' src=images/squares/green.png><img class='h' src=images/squares/yellow.png><img class='j' src=images/squares/red.png><img class='k' src=images/squares/brown.png><div class=""fixation"">+</div>","null","","","memory","exp","21","","","","","","","","","","","",""
"html-keyboard-response","195","333808","0.0-5.0-5.0-2.21","697caeea2ec1c2604535f8aa","not_provided","desktop","0","0","0","","","","","","working_memory","","null","<div class=""fixation"">+</div>","null","","","","","","","","","","","","","","","","",""
"html-keyboard-response","196","334787","0.0-5.0-5.0-3.21","697caeea2ec1c2604535f8aa","not_provided","desktop","0","0","0","","","","","","working_memory","","977","<img class='a' src=images/squares/cyan.png><div class=""fixation"">+</div>","s","","","test_squares","exp","21","8","k","false","ks","s","","","","","","",""
"html-keyboard-response","197","335295","0.0-5.0-5.0-4.21","697caeea2ec1c2604535f8aa","not_provided","desktop","0","0","0","","","","","","working_memory","","null","<div class=""fixation"">Incorrect</div>","null","","","","","","","","","","","","","","","","",""
"html-keyboard-response","198","336307","0.0-5.0-5.0-0.22","697caeea2ec1c2604535f8aa","not_provided","desktop","0","0","0","","","","","","working_memory","","null","<div class=""fixation"">+</div>","null","","","","","","","","","","","","","","","","",""
"html-keyboard-response","199","336518","0.0-5.0-5.0-1.22","697caeea2ec1c2604535f8aa","not_provided","desktop","0","0","0","","","","","","working_memory","","null","<img class='a' src=images/squares/cyan.png><img class='f' src=images/squares/green.png><img class='g' src=images/squares/brown.png><img class='l' src=images/squares/black.png><div class=""fixation"">+</div>","null","","","memory","exp","22","","","","","","","","","","","",""
"html-keyboard-response","200","337434","0.0-5.0-5.0-2.22","697caeea2ec1c2604535f8aa","not_provided","desktop","0","0","0","","","","","","working_memory","","null","<div class=""fixation"">+</div>","null","","","","","","","","","","","","","","","","",""
"html-keyboard-response","201","338418","0.0-5.0-5.0-3.22","697caeea2ec1c2604535f8aa","not_provided","desktop","0","0","0","","","","","","working_memory","","983","<img class='l' src=images/squares/magenta.png><div class=""fixation"">+</div>","s","","","test_squares","exp","22","4","s","true","ks","d","","","","","","",""
"html-keyboard-response","202","338921","0.0-5.0-5.0-4.22","697caeea2ec1c2604535f8aa","not_provided","desktop","0","0","0","","","","","","working_memory","","null","<div class=""fixation"">Correct</div>","null","","","","","","","","","","","","","","","","",""
"html-keyboard-response","203","339927","0.0-5.0-5.0-0.23","697caeea2ec1c2604535f8aa","not_provided","desktop","0","0","0","","","","","","working_memory","","null","<div class=""fixation"">+</div>","null","","","","","","","","","","","","","","","","",""
"html-keyboard-response","204","340133","0.0-5.0-5.0-1.23","697caeea2ec1c2604535f8aa","not_provided","desktop","0","0","0","","","","","","working_memory","","null","<img class='a' src=images/squares/blue.png><img class='f' src=images/squares/magenta.png><img class='g' src=images/squares/green.png><img class='k' src=images/squares/red.png><div class=""fixation"">+</div>","null","","","memory","exp","23","","","","","","","","","","","",""
"html-keyboard-response","205","341050","0.0-5.0-5.0-2.23","697caeea2ec1c2604535f8aa","not_provided","desktop","0","0","0","","","","","","working_memory","","null","<div class=""fixation"">+</div>","null","","","","","","","","","","","","","","","","",""
"html-keyboard-response","206","341868","0.0-5.0-5.0-3.23","697caeea2ec1c2604535f8aa","not_provided","desktop","0","0","0","","","","","","working_memory","","817","<img class='g' src=images/squares/green.png><div class=""fixation"">+</div>","k","","","test_squares","exp","23","4","k","true","ks","s","","","","","","",""
"html-keyboard-response","207","342382","0.0-5.0-5.0-4.23","697caeea2ec1c2604535f8aa","not_provided","desktop","0","0","0","","","","","","working_memory","","null","<div class=""fixation"">Correct</div>","null","","","","","","","","","","","","","","","","",""
"html-keyboard-response","208","343392","0.0-5.0-5.0-0.24","697caeea2ec1c2604535f8aa","not_provided","desktop","0","0","0","","","","","","working_memory","","null","<div class=""fixation"">+</div>","null","","","","","","","","","","","","","","","","",""
"html-keyboard-response","209","343599","0.0-5.0-5.0-1.24","697caeea2ec1c2604535f8aa","not_provided","desktop","0","0","0","","","","","","working_memory","","null","<img class='b' src=images/squares/red.png><img class='a' src=images/squares/blue.png><img class='d' src=images/squares/orange.png><img class='e' src=images/squares/yellow.png><img class='g' src=images/squares/brown.png><img class='h' src=images/squares/magenta.png><img class='j' src=images/squares/cyan.png><img class='l' src=images/squares/green.png><div class=""fixation"">+</div>","null","","","memory","exp","24","","","","","","","","","","","",""
"html-keyboard-response","210","344501","0.0-5.0-5.0-2.24","697caeea2ec1c2604535f8aa","not_provided","desktop","0","0","0","","","","","","working_memory","","null","<div class=""fixation"">+</div>","null","","","","","","","","","","","","","","","","",""
"html-keyboard-response","211","346511","0.0-5.0-5.0-3.24","697caeea2ec1c2604535f8aa","not_provided","desktop","0","0","0","","","","","","working_memory","","2009","<img class='a' src=images/squares/black.png><div class=""fixation"">+</div>","k","","","test_squares","exp","24","8","s","false","ks","d","","","","","","",""
"html-keyboard-response","212","347026","0.0-5.0-5.0-4.24","697caeea2ec1c2604535f8aa","not_provided","desktop","0","0","0","","","","","","working_memory","","null","<div class=""fixation"">Incorrect</div>","null","","","","","","","","","","","","","","","","",""
"html-keyboard-response","213","348028","0.0-5.0-5.0-0.25","697caeea2ec1c2604535f8aa","not_provided","desktop","0","0","0","","","","","","working_memory","","null","<div class=""fixation"">+</div>","null","","","","","","","","","","","","","","","","",""
"html-keyboard-response","214","348237","0.0-5.0-5.0-1.25","697caeea2ec1c2604535f8aa","not_provided","desktop","0","0","0","","","","","","working_memory","","null","<img class='b' src=images/squares/red.png><img class='c' src=images/squares/black.png><img class='f' src=images/squares/green.png><img class='d' src=images/squares/orange.png><img class='i' src=images/squares/blue.png><img class='g' src=images/squares/cyan.png><img class='l' src=images/squares/magenta.png><img class='j' src=images/squares/yellow.png><div class=""fixation"">+</div>","null","","","memory","exp","25","","","","","","","","","","","",""
"html-keyboard-response","215","349147","0.0-5.0-5.0-2.25","697caeea2ec1c2604535f8aa","not_provided","desktop","0","0","0","","","","","","working_memory","","null","<div class=""fixation"">+</div>","null","","","","","","","","","","","","","","","","",""
"html-keyboard-response","216","350360","0.0-5.0-5.0-3.25","697caeea2ec1c2604535f8aa","not_provided","desktop","0","0","0","","","","","","working_memory","","1211","<img class='d' src=images/squares/orange.png><div class=""fixation"">+</div>","s","","","test_squares","exp","25","8","k","false","ks","s","","","","","","",""
"html-keyboard-response","217","350871","0.0-5.0-5.0-4.25","697caeea2ec1c2604535f8aa","not_provided","desktop","0","0","0","","","","","","working_memory","","null","<div class=""fixation"">Incorrect</div>","null","","","","","","","","","","","","","","","","",""
"html-keyboard-response","218","351886","0.0-5.0-5.0-0.26","697caeea2ec1c2604535f8aa","not_provided","desktop","0","0","0","","","","","","working_memory","","null","<div class=""fixation"">+</div>","null","","","","","","","","","","","","","","","","",""
"html-keyboard-response","219","352102","0.0-5.0-5.0-1.26","697caeea2ec1c2604535f8aa","not_provided","desktop","0","0","0","","","","","","working_memory","","null","<img class='c' src=images/squares/black.png><img class='b' src=images/squares/magenta.png><img class='d' src=images/squares/yellow.png><img class='e' src=images/squares/green.png><img class='i' src=images/squares/brown.png><img class='h' src=images/squares/cyan.png><img class='l' src=images/squares/orange.png><img class='k' src=images/squares/blue.png><div class=""fixation"">+</div>","null","","","memory","exp","26","","","","","","","","","","","",""
"html-keyboard-response","220","353005","0.0-5.0-5.0-2.26","697caeea2ec1c2604535f8aa","not_provided","desktop","0","0","0","","","","","","working_memory","","null","<div class=""fixation"">+</div>","null","","","","","","","","","","","","","","","","",""
"html-keyboard-response","221","353960","0.0-5.0-5.0-3.26","697caeea2ec1c2604535f8aa","not_provided","desktop","0","0","0","","","","","","working_memory","","953","<img class='i' src=images/squares/brown.png><div class=""fixation"">+</div>","k","","","test_squares","exp","26","8","k","true","ks","s","","","","","","",""
"html-keyboard-response","222","354476","0.0-5.0-5.0-4.26","697caeea2ec1c2604535f8aa","not_provided","desktop","0","0","0","","","","","","working_memory","","null","<div class=""fixation"">Correct</div>","null","","","","","","","","","","","","","","","","",""
"html-keyboard-response","223","355485","0.0-5.0-5.0-0.27","697caeea2ec1c2604535f8aa","not_provided","desktop","0","0","0","","","","","","working_memory","","null","<div class=""fixation"">+</div>","null","","","","","","","","","","","","","","","","",""
"html-keyboard-response","224","355700","0.0-5.0-5.0-1.27","697caeea2ec1c2604535f8aa","not_provided","desktop","0","0","0","","","","","","working_memory","","null","<img class='c' src=images/squares/red.png><img class='e' src=images/squares/green.png><img class='h' src=images/squares/cyan.png><img class='l' src=images/squares/brown.png><div class=""fixation"">+</div>","null","","","memory","exp","27","","","","","","","","","","","",""
"html-keyboard-response","225","356608","0.0-5.0-5.0-2.27","697caeea2ec1c2604535f8aa","not_provided","desktop","0","0","0","","","","","","working_memory","","null","<div class=""fixation"">+</div>","null","","","","","","","","","","","","","","","","",""
"html-keyboard-response","226","358472","0.0-5.0-5.0-3.27","697caeea2ec1c2604535f8aa","not_provided","desktop","0","0","0","","","","","","working_memory","","1862","<img class='e' src=images/squares/green.png><div class=""fixation"">+</div>","s","","","test_squares","exp","27","4","k","false","ks","s","","","","","","",""
"html-keyboard-response","227","358980","0.0-5.0-5.0-4.27","697caeea2ec1c2604535f8aa","not_provided","desktop","0","0","0","","","","","","working_memory","","null","<div class=""fixation"">Incorrect</div>","null","","","","","","","","","","","","","","","","",""
"html-keyboard-response","228","359992","0.0-5.0-5.0-0.28","697caeea2ec1c2604535f8aa","not_provided","desktop","0","0","0","","","","","","working_memory","","null","<div class=""fixation"">+</div>","null","","","","","","","","","","","","","","","","",""
"html-keyboard-response","229","360199","0.0-5.0-5.0-1.28","697caeea2ec1c2604535f8aa","not_provided","desktop","0","0","0","","","","","","working_memory","","null","<img class='a' src=images/squares/brown.png><img class='e' src=images/squares/red.png><img class='g' src=images/squares/cyan.png><img class='l' src=images/squares/magenta.png><div class=""fixation"">+</div>","null","","","memory","exp","28","","","","","","","","","","","",""
"html-keyboard-response","230","361108","0.0-5.0-5.0-2.28","697caeea2ec1c2604535f8aa","not_provided","desktop","0","0","0","","","","","","working_memory","","null","<div class=""fixation"">+</div>","null","","","","","","","","","","","","","","","","",""
"html-keyboard-response","231","362146","0.0-5.0-5.0-3.28","697caeea2ec1c2604535f8aa","not_provided","desktop","0","0","0","","","","","","working_memory","","1037","<img class='l' src=images/squares/black.png><div class=""fixation"">+</div>","s","","","test_squares","exp","28","4","s","true","ks","d","","","","","","",""
"html-keyboard-response","232","362658","0.0-5.0-5.0-4.28","697caeea2ec1c2604535f8aa","not_provided","desktop","0","0","0","","","","","","working_memory","","null","<div class=""fixation"">Correct</div>","null","","","","","","","","","","","","","","","","",""
"html-keyboard-response","233","363665","0.0-5.0-5.0-0.29","697caeea2ec1c2604535f8aa","not_provided","desktop","0","0","0","","","","","","working_memory","","null","<div class=""fixation"">+</div>","null","","","","","","","","","","","","","","","","",""
"html-keyboard-response","234","363877","0.0-5.0-5.0-1.29","697caeea2ec1c2604535f8aa","not_provided","desktop","0","0","0","","","","","","working_memory","","null","<img class='b' src=images/squares/brown.png><img class='e' src=images/squares/cyan.png><img class='i' src=images/squares/black.png><img class='j' src=images/squares/magenta.png><div class=""fixation"">+</div>","null","","","memory","exp","29","","","","","","","","","","","",""
"html-keyboard-response","235","364779","0.0-5.0-5.0-2.29","697caeea2ec1c2604535f8aa","not_provided","desktop","0","0","0","","","","","","working_memory","","null","<div class=""fixation"">+</div>","null","","","","","","","","","","","","","","","","",""
"html-keyboard-response","236","365675","0.0-5.0-5.0-3.29","697caeea2ec1c2604535f8aa","not_provided","desktop","0","0","0","","","","","","working_memory","","895","<img class='i' src=images/squares/black.png><div class=""fixation"">+</div>","k","","","test_squares","exp","29","4","k","true","ks","s","","","","","","",""
"html-keyboard-response","237","366178","0.0-5.0-5.0-4.29","697caeea2ec1c2604535f8aa","not_provided","desktop","0","0","0","","","","","","working_memory","","null","<div class=""fixation"">Correct</div>","null","","","","","","","","","","","","","","","","",""
"html-keyboard-response","238","367182","0.0-5.0-5.0-0.30","697caeea2ec1c2604535f8aa","not_provided","desktop","0","0","0","","","","","","working_memory","","null","<div class=""fixation"">+</div>","null","","","","","","","","","","","","","","","","",""
"html-keyboard-response","239","367398","0.0-5.0-5.0-1.30","697caeea2ec1c2604535f8aa","not_provided","desktop","0","0","0","","","","","","working_memory","","null","<img class='a' src=images/squares/brown.png><img class='c' src=images/squares/blue.png><img class='d' src=images/squares/black.png><img class='f' src=images/squares/red.png><img class='h' src=images/squares/green.png><img class='g' src=images/squares/yellow.png><img class='j' src=images/squares/cyan.png><img class='k' src=images/squares/orange.png><div class=""fixation"">+</div>","null","","","memory","exp","30","","","","","","","","","","","",""
"html-keyboard-response","240","368303","0.0-5.0-5.0-2.30","697caeea2ec1c2604535f8aa","not_provided","desktop","0","0","0","","","","","","working_memory","","null","<div class=""fixation"">+</div>","null","","","","","","","","","","","","","","","","",""
"html-keyboard-response","241","370993","0.0-5.0-5.0-3.30","697caeea2ec1c2604535f8aa","not_provided","desktop","0","0","0","","","","","","working_memory","","2689","<img class='a' src=images/squares/brown.png><div class=""fixation"">+</div>","k","","","test_squares","exp","30","8","k","true","ks","s","","","","","","",""
"html-keyboard-response","242","371500","0.0-5.0-5.0-4.30","697caeea2ec1c2604535f8aa","not_provided","desktop","0","0","0","","","","","","working_memory","","null","<div class=""fixation"">Correct</div>","null","","","","","","","","","","","","","","","","",""
"html-keyboard-response","243","372515","0.0-5.0-5.0-0.31","697caeea2ec1c2604535f8aa","not_provided","desktop","0","0","0","","","","","","working_memory","","null","<div class=""fixation"">+</div>","null","","","","","","","","","","","","","","","","",""
"html-keyboard-response","244","372720","0.0-5.0-5.0-1.31","697caeea2ec1c2604535f8aa","not_provided","desktop","0","0","0","","","","","","working_memory","","null","<img class='b' src=images/squares/magenta.png><img class='a' src=images/squares/cyan.png><img class='d' src=images/squares/red.png><img class='f' src=images/squares/brown.png><img class='g' src=images/squares/yellow.png><img class='h' src=images/squares/blue.png><img class='l' src=images/squares/orange.png><img class='j' src=images/squares/black.png><div class=""fixation"">+</div>","null","","","memory","exp","31","","","","","","","","","","","",""
"html-keyboard-response","245","373632","0.0-5.0-5.0-2.31","697caeea2ec1c2604535f8aa","not_provided","desktop","0","0","0","","","","","","working_memory","","null","<div class=""fixation"">+</div>","null","","","","","","","","","","","","","","","","",""
"html-keyboard-response","246","375505","0.0-5.0-5.0-3.31","697caeea2ec1c2604535f8aa","not_provided","desktop","0","0","0","","","","","","working_memory","","1872","<img class='b' src=images/squares/magenta.png><div class=""fixation"">+</div>","s","","","test_squares","exp","31","8","k","false","ks","s","","","","","","",""
"html-keyboard-response","247","376011","0.0-5.0-5.0-4.31","697caeea2ec1c2604535f8aa","not_provided","desktop","0","0","0","","","","","","working_memory","","null","<div class=""fixation"">Incorrect</div>","null","","","","","","","","","","","","","","","","",""
"html-keyboard-response","248","377023","0.0-5.0-5.0-0.32","697caeea2ec1c2604535f8aa","not_provided","desktop","0","0","0","","","","","","working_memory","","null","<div class=""fixation"">+</div>","null","","","","","","","","","","","","","","","","",""
"html-keyboard-response","249","377230","0.0-5.0-5.0-1.32","697caeea2ec1c2604535f8aa","not_provided","desktop","0","0","0","","","","","","working_memory","","null","<img class='a' src=images/squares/brown.png><img class='c' src=images/squares/green.png><img class='f' src=images/squares/red.png><img class='e' src=images/squares/black.png><img class='h' src=images/squares/yellow.png><img class='g' src=images/squares/blue.png><img class='k' src=images/squares/cyan.png><img class='j' src=images/squares/orange.png><div class=""fixation"">+</div>","null","","","memory","exp","32","","","","","","","","","","","",""
"html-keyboard-response","250","378136","0.0-5.0-5.0-2.32","697caeea2ec1c2604535f8aa","not_provided","desktop","0","0","0","","","","","","working_memory","","null","<div class=""fixation"">+</div>","null","","","","","","","","","","","","","","","","",""
"html-keyboard-response","251","379634","0.0-5.0-5.0-3.32","697caeea2ec1c2604535f8aa","not_provided","desktop","0","0","0","","","","","","working_memory","","1497","<img class='a' src=images/squares/magenta.png><div class=""fixation"">+</div>","s","","","test_squares","exp","32","8","s","true","ks","d","","","","","","",""
"html-keyboard-response","252","380142","0.0-5.0-5.0-4.32","697caeea2ec1c2604535f8aa","not_provided","desktop","0","0","0","","","","","","working_memory","","null","<div class=""fixation"">Correct</div>","null","","","","","","","","","","","","","","","","",""
"html-keyboard-response","253","381149","0.0-5.0-5.0-0.33","697caeea2ec1c2604535f8aa","not_provided","desktop","0","0","0","","","","","","working_memory","","null","<div class=""fixation"">+</div>","null","","","","","","","","","","","","","","","","",""
"html-keyboard-response","254","381362","0.0-5.0-5.0-1.33","697caeea2ec1c2604535f8aa","not_provided","desktop","0","0","0","","","","","","working_memory","","null","<img class='a' src=images/squares/magenta.png><img class='e' src=images/squares/black.png><img class='i' src=images/squares/blue.png><img class='l' src=images/squares/yellow.png><div class=""fixation"">+</div>","null","","","memory","exp","33","","","","","","","","","","","",""
"html-keyboard-response","255","382268","0.0-5.0-5.0-2.33","697caeea2ec1c2604535f8aa","not_provided","desktop","0","0","0","","","","","","working_memory","","null","<div class=""fixation"">+</div>","null","","","","","","","","","","","","","","","","",""
"html-keyboard-response","256","384072","0.0-5.0-5.0-3.33","697caeea2ec1c2604535f8aa","not_provided","desktop","0","0","0","","","","","","working_memory","","1802","<img class='a' src=images/squares/cyan.png><div class=""fixation"">+</div>","s","","","test_squares","exp","33","4","s","true","ks","d","","","","","","",""
"html-keyboard-response","257","384577","0.0-5.0-5.0-4.33","697caeea2ec1c2604535f8aa","not_provided","desktop","0","0","0","","","","","","working_memory","","null","<div class=""fixation"">Correct</div>","null","","","","","","","","","","","","","","","","",""
"html-keyboard-response","258","385591","0.0-5.0-5.0-0.34","697caeea2ec1c2604535f8aa","not_provided","desktop","0","0","0","","","","","","working_memory","","null","<div class=""fixation"">+</div>","null","","","","","","","","","","","","","","","","",""
"html-keyboard-response","259","385802","0.0-5.0-5.0-1.34","697caeea2ec1c2604535f8aa","not_provided","desktop","0","0","0","","","","","","working_memory","","null","<img class='a' src=images/squares/green.png><img class='c' src=images/squares/cyan.png><img class='e' src=images/squares/black.png><img class='f' src=images/squares/brown.png><img class='i' src=images/squares/blue.png><img class='g' src=images/squares/red.png><img class='j' src=images/squares/orange.png><img class='l' src=images/squares/magenta.png><div class=""fixation"">+</div>","null","","","memory","exp","34","","","","","","","","","","","",""
"html-keyboard-response","260","386704","0.0-5.0-5.0-2.34","697caeea2ec1c2604535f8aa","not_provided","desktop","0","0","0","","","","","","working_memory","","null","<div class=""fixation"">+</div>","null","","","","","","","","","","","","","","","","",""
"html-keyboard-response","261","387828","0.0-5.0-5.0-3.34","697caeea2ec1c2604535f8aa","not_provided","desktop","0","0","0","","","","","","working_memory","","1122","<img class='a' src=images/squares/green.png><div class=""fixation"">+</div>","s","","","test_squares","exp","34","8","k","false","ks","s","","","","","","",""
"html-keyboard-response","262","388331","0.0-5.0-5.0-4.34","697caeea2ec1c2604535f8aa","not_provided","desktop","0","0","0","","","","","","working_memory","","null","<div class=""fixation"">Incorrect</div>","null","","","","","","","","","","","","","","","","",""
"html-keyboard-response","263","389348","0.0-5.0-5.0-0.35","697caeea2ec1c2604535f8aa","not_provided","desktop","0","0","0","","","","","","working_memory","","null","<div class=""fixation"">+</div>","null","","","","","","","","","","","","","","","","",""
"html-keyboard-response","264","389552","0.0-5.0-5.0-1.35","697caeea2ec1c2604535f8aa","not_provided","desktop","0","0","0","","","","","","working_memory","","null","<img class='b' src=images/squares/yellow.png><img class='a' src=images/squares/blue.png><img class='d' src=images/squares/brown.png><img class='e' src=images/squares/orange.png><img class='i' src=images/squares/red.png><img class='h' src=images/squares/cyan.png><img class='l' src=images/squares/black.png><img class='k' src=images/squares/green.png><div class=""fixation"">+</div>","null","","","memory","exp","35","","","","","","","","","","","",""
"html-keyboard-response","265","390466","0.0-5.0-5.0-2.35","697caeea2ec1c2604535f8aa","not_provided","desktop","0","0","0","","","","","","working_memory","","null","<div class=""fixation"">+</div>","null","","","","","","","","","","","","","","","","",""
"html-keyboard-response","266","391754","0.0-5.0-5.0-3.35","697caeea2ec1c2604535f8aa","not_provided","desktop","0","0","0","","","","","","working_memory","","1285","<img class='l' src=images/squares/black.png><div class=""fixation"">+</div>","k","","","test_squares","exp","35","8","k","true","ks","s","","","","","","",""
"html-keyboard-response","267","392260","0.0-5.0-5.0-4.35","697caeea2ec1c2604535f8aa","not_provided","desktop","0","0","0","","","","","","working_memory","","null","<div class=""fixation"">Correct</div>","null","","","","","","","","","","","","","","","","",""
"html-keyboard-response","268","393269","0.0-5.0-5.0-0.36","697caeea2ec1c2604535f8aa","not_provided","desktop","0","0","0","","","","","","working_memory","","null","<div class=""fixation"">+</div>","null","","","","","","","","","","","","","","","","",""
"html-keyboard-response","269","393482","0.0-5.0-5.0-1.36","697caeea2ec1c2604535f8aa","not_provided","desktop","0","0","0","","","","","","working_memory","","null","<img class='b' src=images/squares/black.png><img class='d' src=images/squares/red.png><img class='h' src=images/squares/green.png><img class='l' src=images/squares/yellow.png><div class=""fixation"">+</div>","null","","","memory","exp","36","","","","","","","","","","","",""
"html-keyboard-response","270","394397","0.0-5.0-5.0-2.36","697caeea2ec1c2604535f8aa","not_provided","desktop","0","0","0","","","","","","working_memory","","null","<div class=""fixation"">+</div>","null","","","","","","","","","","","","","","","","",""
"html-keyboard-response","271","395723","0.0-5.0-5.0-3.36","697caeea2ec1c2604535f8aa","not_provided","desktop","0","0","0","","","","","","working_memory","","1325","<img class='b' src=images/squares/black.png><div class=""fixation"">+</div>","k","","","test_squares","exp","36","4","k","true","ks","s","","","","","","",""
"html-keyboard-response","272","396237","0.0-5.0-5.0-4.36","697caeea2ec1c2604535f8aa","not_provided","desktop","0","0","0","","","","","","working_memory","","null","<div class=""fixation"">Correct</div>","null","","","","","","","","","","","","","","","","",""
"html-keyboard-response","273","397242","0.0-5.0-5.0-0.37","697caeea2ec1c2604535f8aa","not_provided","desktop","0","0","0","","","","","","working_memory","","null","<div class=""fixation"">+</div>","null","","","","","","","","","","","","","","","","",""
"html-keyboard-response","274","397452","0.0-5.0-5.0-1.37","697caeea2ec1c2604535f8aa","not_provided","desktop","0","0","0","","","","","","working_memory","","null","<img class='b' src=images/squares/black.png><img class='f' src=images/squares/red.png><img class='i' src=images/squares/yellow.png><img class='l' src=images/squares/magenta.png><div class=""fixation"">+</div>","null","","","memory","exp","37","","","","","","","","","","","",""
"html-keyboard-response","275","398354","0.0-5.0-5.0-2.37","697caeea2ec1c2604535f8aa","not_provided","desktop","0","0","0","","","","","","working_memory","","null","<div class=""fixation"">+</div>","null","","","","","","","","","","","","","","","","",""
"html-keyboard-response","276","399271","0.0-5.0-5.0-3.37","697caeea2ec1c2604535f8aa","not_provided","desktop","0","0","0","","","","","","working_memory","","915","<img class='i' src=images/squares/yellow.png><div class=""fixation"">+</div>","k","","","test_squares","exp","37","4","k","true","ks","s","","","","","","",""
"html-keyboard-response","277","399774","0.0-5.0-5.0-4.37","697caeea2ec1c2604535f8aa","not_provided","desktop","0","0","0","","","","","","working_memory","","null","<div class=""fixation"">Correct</div>","null","","","","","","","","","","","","","","","","",""
"html-keyboard-response","278","400782","0.0-5.0-5.0-0.38","697caeea2ec1c2604535f8aa","not_provided","desktop","0","0","0","","","","","","working_memory","","null","<div class=""fixation"">+</div>","null","","","","","","","","","","","","","","","","",""
"html-keyboard-response","279","400987","0.0-5.0-5.0-1.38","697caeea2ec1c2604535f8aa","not_provided","desktop","0","0","0","","","","","","working_memory","","null","<img class='a' src=images/squares/green.png><img class='c' src=images/squares/yellow.png><img class='e' src=images/squares/brown.png><img class='f' src=images/squares/black.png><img class='i' src=images/squares/orange.png><img class='h' src=images/squares/cyan.png><img class='l' src=images/squares/blue.png><img class='k' src=images/squares/magenta.png><div class=""fixation"">+</div>","null","","","memory","exp","38","","","","","","","","","","","",""
"html-keyboard-response","280","401897","0.0-5.0-5.0-2.38","697caeea2ec1c2604535f8aa","not_provided","desktop","0","0","0","","","","","","working_memory","","null","<div class=""fixation"">+</div>","null","","","","","","","","","","","","","","","","",""
"html-keyboard-response","281","404411","0.0-5.0-5.0-3.38","697caeea2ec1c2604535f8aa","not_provided","desktop","0","0","0","","","","","","working_memory","","2512","<img class='h' src=images/squares/cyan.png><div class=""fixation"">+</div>","s","","","test_squares","exp","38","8","k","false","ks","s","","","","","","",""
"html-keyboard-response","282","404923","0.0-5.0-5.0-4.38","697caeea2ec1c2604535f8aa","not_provided","desktop","0","0","0","","","","","","working_memory","","null","<div class=""fixation"">Incorrect</div>","null","","","","","","","","","","","","","","","","",""
"html-keyboard-response","283","405939","0.0-5.0-5.0-0.39","697caeea2ec1c2604535f8aa","not_provided","desktop","0","0","0","","","","","","working_memory","","null","<div class=""fixation"">+</div>","null","","","","","","","","","","","","","","","","",""
"html-keyboard-response","284","406143","0.0-5.0-5.0-1.39","697caeea2ec1c2604535f8aa","not_provided","desktop","0","0","0","","","","","","working_memory","","null","<img class='a' src=images/squares/yellow.png><img class='d' src=images/squares/orange.png><img class='i' src=images/squares/brown.png><img class='j' src=images/squares/magenta.png><div class=""fixation"">+</div>","null","","","memory","exp","39","","","","","","","","","","","",""
"html-keyboard-response","285","407052","0.0-5.0-5.0-2.39","697caeea2ec1c2604535f8aa","not_provided","desktop","0","0","0","","","","","","working_memory","","null","<div class=""fixation"">+</div>","null","","","","","","","","","","","","","","","","",""
"html-keyboard-response","286","407966","0.0-5.0-5.0-3.39","697caeea2ec1c2604535f8aa","not_provided","desktop","0","0","0","","","","","","working_memory","","913","<img class='a' src=images/squares/black.png><div class=""fixation"">+</div>","s","","","test_squares","exp","39","4","s","true","ks","d","","","","","","",""
"html-keyboard-response","287","408471","0.0-5.0-5.0-4.39","697caeea2ec1c2604535f8aa","not_provided","desktop","0","0","0","","","","","","working_memory","","null","<div class=""fixation"">Correct</div>","null","","","","","","","","","","","","","","","","",""
"html-keyboard-response","288","409474","0.0-5.0-5.0-0.40","697caeea2ec1c2604535f8aa","not_provided","desktop","0","0","0","","","","","","working_memory","","null","<div class=""fixation"">+</div>","null","","","","","","","","","","","","","","","","",""
"html-keyboard-response","289","409691","0.0-5.0-5.0-1.40","697caeea2ec1c2604535f8aa","not_provided","desktop","0","0","0","","","","","","working_memory","","null","<img class='a' src=images/squares/magenta.png><img class='c' src=images/squares/blue.png><img class='f' src=images/squares/orange.png><img class='e' src=images/squares/brown.png><img class='g' src=images/squares/green.png><img class='i' src=images/squares/black.png><img class='j' src=images/squares/cyan.png><img class='k' src=images/squares/red.png><div class=""fixation"">+</div>","null","","","memory","exp","40","","","","","","","","","","","",""
"html-keyboard-response","290","410606","0.0-5.0-5.0-2.40","697caeea2ec1c2604535f8aa","not_provided","desktop","0","0","0","","","","","","working_memory","","null","<div class=""fixation"">+</div>","null","","","","","","","","","","","","","","","","",""
"html-keyboard-response","291","411602","0.0-5.0-5.0-3.40","697caeea2ec1c2604535f8aa","not_provided","desktop","0","0","0","","","","","","working_memory","","994","<img class='i' src=images/squares/yellow.png><div class=""fixation"">+</div>","s","","","test_squares","exp","40","8","s","true","ks","d","","","","","","",""
"html-keyboard-response","292","412119","0.0-5.0-5.0-4.40","697caeea2ec1c2604535f8aa","not_provided","desktop","0","0","0","","","","","","working_memory","","null","<div class=""fixation"">Correct</div>","null","","","","","","","","","","","","","","","","",""
"html-keyboard-response","293","413121","0.0-5.0-5.0-0.41","697caeea2ec1c2604535f8aa","not_provided","desktop","0","0","0","","","","","","working_memory","","null","<div class=""fixation"">+</div>","null","","","","","","","","","","","","","","","","",""
"html-keyboard-response","294","413336","0.0-5.0-5.0-1.41","697caeea2ec1c2604535f8aa","not_provided","desktop","0","0","0","","","","","","working_memory","","null","<img class='a' src=images/squares/blue.png><img class='c' src=images/squares/green.png><img class='e' src=images/squares/black.png><img class='f' src=images/squares/yellow.png><img class='h' src=images/squares/cyan.png><img class='i' src=images/squares/magenta.png><img class='l' src=images/squares/brown.png><img class='j' src=images/squares/orange.png><div class=""fixation"">+</div>","null","","","memory","exp","41","","","","","","","","","","","",""
"html-keyboard-response","295","414253","0.0-5.0-5.0-2.41","697caeea2ec1c2604535f8aa","not_provided","desktop","0","0","0","","","","","","working_memory","","null","<div class=""fixation"">+</div>","null","","","","","","","","","","","","","","","","",""
"html-keyboard-response","296","415037","0.0-5.0-5.0-3.41","697caeea2ec1c2604535f8aa","not_provided","desktop","0","0","0","","","","","","working_memory","","782","<img class='i' src=images/squares/red.png><div class=""fixation"">+</div>","s","","","test_squares","exp","41","8","s","true","ks","d","","","","","","",""
"html-keyboard-response","297","415554","0.0-5.0-5.0-4.41","697caeea2ec1c2604535f8aa","not_provided","desktop","0","0","0","","","","","","working_memory","","null","<div class=""fixation"">Correct</div>","null","","","","","","","","","","","","","","","","",""
"html-keyboard-response","298","416559","0.0-5.0-5.0-0.42","697caeea2ec1c2604535f8aa","not_provided","desktop","0","0","0","","","","","","working_memory","","null","<div class=""fixation"">+</div>","null","","","","","","","","","","","","","","","","",""
"html-keyboard-response","299","416776","0.0-5.0-5.0-1.42","697caeea2ec1c2604535f8aa","not_provided","desktop","0","0","0","","","","","","working_memory","","null","<img class='b' src=images/squares/cyan.png><img class='f' src=images/squares/black.png><img class='h' src=images/squares/green.png><img class='l' src=images/squares/brown.png><div class=""fixation"">+</div>","null","","","memory","exp","42","","","","","","","","","","","",""
"html-keyboard-response","300","417678","0.0-5.0-5.0-2.42","697caeea2ec1c2604535f8aa","not_provided","desktop","0","0","0","","","","","","working_memory","","null","<div class=""fixation"">+</div>","null","","","","","","","","","","","","","","","","",""
