"trial_type","trial_index","time_elapsed","internal_node_id","subject_id","study_id","device_type","blur_count","fullscreen_exit_count","failed_attention_checks","success","timeout","failed_images","failed_audio","failed_video","phase","value","rt","stimulus","response","view_history","question_order","trial_name","block_type","trial_num","set_size","correct_response","accuracy","mapping","condition","prompt","flipped","attention","expected_answer","category","question_index","task"
"pavlovia","0","911","0.0-0.0","6980d9a70a7862a47c69046d","not_provided","desktop","0","0","0","","","","","","","","","","","","","","","","","","","","","","","","","","",""
"preload","1","1315","0.0-2.0","6980d9a70a7862a47c69046d","not_provided","desktop","0","0","0","true","false","[]","[]","[]","","","","","","","","","","","","","","","","","","","","","",""
"html-keyboard-response","2","20096","0.0-3.0-0.0","6980d9a70a7862a47c69046d","not_provided","desktop","0","0","0","","","","","","captcha","","","","","","","","","","","","","","","","","","","","",""
"fullscreen","3","25128","0.0-4.0","6980d9a70a7862a47c69046d","not_provided","desktop","0","0","0","true","","","","","setup","","","","","","","","","","","","","","","","","","","","",""
"call-function","4","25130","0.0-5.0-0.0","6980d9a70a7862a47c69046d","not_provided","desktop","0","0","0","","","","","","working_memory","","","","","","","","","","","","","","","","","","","","",""
"html-keyboard-response","5","36560","0.0-5.0-1.0","6980d9a70a7862a47c69046d","not_provided","desktop","0","0","0","","","","","","working_memory","","11427","<div style=""text-align:center;font-family:sans-serif;""><p>Welcome to the luck game experiment!</p><p>This two-day experiment takes part in a study aimed at developing better clinical treatments.</p><p>We appreciate your participation and require your full concentration.</p><br><p>This is a two-day study. Payment (£6/hour) is only given upon completing both parts today and tomorrow.</p><p>You must finish the second part for compensation. After today, you'll receive an invitation for tomorrow's session.</p><p>Please ensure you can attend both sessions before proceeding. Otherwise, you may exit now.</p><p>If you have any questions, please contact us via prolific.</p><br><p>Please stay attentive and in fullscreen mode to ensure payment.</p><p>Thank you for participating!</p><br><p id=""continue-prompt"" style=""visibility:hidden;""><b>Press any key to continue.</b></p></div>"," ","","","","","","","","","","","","","","","","",""
"instructions","6","47111","0.0-5.0-2.0-0.0","6980d9a70a7862a47c69046d","not_provided","desktop","0","0","0","","","","","","working_memory","","10549","","","[{""page_index"":0,""viewing_time"":1703},{""page_index"":1,""viewing_time"":475},{""page_index"":2,""viewing_time"":548},{""page_index"":3,""viewing_time"":476},{""page_index"":4,""viewing_time"":2555},{""page_index"":5,""viewing_time"":2093},{""page_index"":6,""viewing_time"":617},{""page_index"":7,""viewing_time"":807},{""page_index"":8,""viewing_time"":1276}]","","","","","","","","","","","","","","","",""
"survey-multi-choice","7","59570","0.0-5.0-2.0-1.0","6980d9a70a7862a47c69046d","not_provided","desktop","0","0","0","","","","","","working_memory","","12457","","{""set_size"":""4 or 8"",""steps"":""True"",""choose_square"":""Press the 'k' or 's' key."",""remember"":""The colors and locations of the 'memory' squares"",""task"":""To tell if the 'test' square is in the same color as the square previously appearing in this location""}","","[0,1,2,3,4]","test_squares_quiz","","","","","","","","","","","","","",""
"html-keyboard-response","8","60977","0.0-5.0-3.0-0.0","6980d9a70a7862a47c69046d","not_provided","desktop","0","0","0","","","","","","working_memory","","1405","<p>We will now start some practice trials.<br><b>The practice trials will also include some trials in which you will need to remember only one square to make sure you understood the instructions.</b><br>You may already want to be ready with your fingers on '<b>s</b>' and '<b>k</b>'.<br><img class=""wm-example-img"" src=""images/examples/keyboard.png""><br><b style=""font-size:1.2em;"">&lsquo;K&rsquo; = SAME &nbsp;&nbsp;&nbsp; &lsquo;S&rsquo; = DIFFERENT</b><br><br><u>Please try to be as accurate as possible.</u><br><br><b>Press any key to begin</b></p>"," ","","","","","","","","","","","","","","","","",""
"html-keyboard-response","9","62997","0.0-5.0-3.0-1.0-0.0","6980d9a70a7862a47c69046d","not_provided","desktop","0","0","0","","","","","","working_memory","","null","<div class=""fixation"">+</div>","null","","","","","","","","","","","","","","","","",""
"html-keyboard-response","10","63209","0.0-5.0-3.0-1.0-1.0","6980d9a70a7862a47c69046d","not_provided","desktop","0","0","0","","","","","","working_memory","","null","<img class='upper2' src=images/squares/orange.png><div class=""fixation"">+</div>","null","","","memory","practice","0","1","","","","","","","","","","",""
"html-keyboard-response","11","64125","0.0-5.0-3.0-1.0-2.0","6980d9a70a7862a47c69046d","not_provided","desktop","0","0","0","","","","","","working_memory","","null","<div class=""fixation"">+</div>","null","","","","","","","","","","","","","","","","",""
"html-keyboard-response","12","64710","0.0-5.0-3.0-1.0-3.0","6980d9a70a7862a47c69046d","not_provided","desktop","0","0","0","","","","","","working_memory","","582","<img class='upper2' src=images/squares/orange.png><div class=""fixation"">+</div>","s","","","test","practice","0","1","k","false","","","","","","","","",""
"html-keyboard-response","13","65226","0.0-5.0-3.0-1.0-4.0","6980d9a70a7862a47c69046d","not_provided","desktop","0","0","0","","","","","","working_memory","","null","<div class=""fixation"">Incorrect</div>","null","","","","","","","","","","","","","","","","",""
"html-keyboard-response","14","66236","0.0-5.0-3.0-1.0-0.1","6980d9a70a7862a47c69046d","not_provided","desktop","0","0","0","","","","","","working_memory","","null","<div class=""fixation"">+</div>","null","","","","","","","","","","","","","","","","",""
"html-keyboard-response","15","66447","0.0-5.0-3.0-1.0-1.1","6980d9a70a7862a47c69046d","not_provided","desktop","0","0","0","","","","","","working_memory","","null","<img class='b' src=images/squares/yellow.png><img class='d' src=images/squares/brown.png><img class='g' src=images/squares/magenta.png><img class='l' src=images/squares/red.png><div class=""fixation"">+</div>","null","","","memory","practice","1","4","","","","","","","","","","",""
"html-keyboard-response","16","67353","0.0-5.0-3.0-1.0-2.1","6980d9a70a7862a47c69046d","not_provided","desktop","0","0","0","","","","","","working_memory","","null","<div class=""fixation"">+</div>","null","","","","","","","","","","","","","","","","",""
"html-keyboard-response","17","68093","0.0-5.0-3.0-1.0-3.1","6980d9a70a7862a47c69046d","not_provided","desktop","0","0","0","","","","","","working_memory","","739","<img class='g' src=images/squares/magenta.png><div class=""fixation"">+</div>","s","","","test","practice","1","4","k","false","","","","","","","","",""
"html-keyboard-response","18","68601","0.0-5.0-3.0-1.0-4.1","6980d9a70a7862a47c69046d","not_provided","desktop","0","0","0","","","","","","working_memory","","null","<div class=""fixation"">Incorrect</div>","null","","","","","","","","","","","","","","","","",""
"html-keyboard-response","19","69617","0.0-5.0-3.0-1.0-0.2","6980d9a70a7862a47c69046d","not_provided","desktop","0","0","0","","","","","","working_memory","","null","<div class=""fixation"">+</div>","null","","","","","","","","","","","","","","","","",""
"html-keyboard-response","20","69822","0.0-5.0-3.0-1.0-1.2","6980d9a70a7862a47c69046d","not_provided","desktop","0","0","0","","","","","","working_memory","","null","<img class='upper2' src=images/squares/magenta.png><div class=""fixation"">+</div>","null","","","memory","practice","2","1","","","","","","","","","","",""
"html-keyboard-response","21","70729","0.0-5.0-3.0-1.0-2.2","6980d9a70a7862a47c69046d","not_provided","desktop","0","0","0","","","","","","working_memory","","null","<div class=""fixation"">+</div>","null","","","","","","","","","","","","","","","","",""
"html-keyboard-response","22","71279","0.0-5.0-3.0-1.0-3.2","6980d9a70a7862a47c69046d","not_provided","desktop","0","0","0","","","","","","working_memory","","548","<img class='upper2' src=images/squares/black.png><div class=""fixation"">+</div>","k","","","test","practice","2","1","s","false","","","","","","","","",""
"html-keyboard-response","23","71795","0.0-5.0-3.0-1.0-4.2","6980d9a70a7862a47c69046d","not_provided","desktop","0","0","0","","","","","","working_memory","","null","<div class=""fixation"">Incorrect</div>","null","","","","","","","","","","","","","","","","",""
"html-keyboard-response","24","72811","0.0-5.0-3.0-1.0-0.3","6980d9a70a7862a47c69046d","not_provided","desktop","0","0","0","","","","","","working_memory","","null","<div class=""fixation"">+</div>","null","","","","","","","","","","","","","","","","",""
"html-keyboard-response","25","73026","0.0-5.0-3.0-1.0-1.3","6980d9a70a7862a47c69046d","not_provided","desktop","0","0","0","","","","","","working_memory","","null","<img class='lower1' src=images/squares/brown.png><div class=""fixation"">+</div>","null","","","memory","practice","3","1","","","","","","","","","","",""
"html-keyboard-response","26","73937","0.0-5.0-3.0-1.0-2.3","6980d9a70a7862a47c69046d","not_provided","desktop","0","0","0","","","","","","working_memory","","null","<div class=""fixation"">+</div>","null","","","","","","","","","","","","","","","","",""
"html-keyboard-response","27","75546","0.0-5.0-3.0-1.0-3.3","6980d9a70a7862a47c69046d","not_provided","desktop","0","0","0","","","","","","working_memory","","1606","<img class='lower1' src=images/squares/orange.png><div class=""fixation"">+</div>","k","","","test","practice","3","1","s","false","","","","","","","","",""
"html-keyboard-response","28","76062","0.0-5.0-3.0-1.0-4.3","6980d9a70a7862a47c69046d","not_provided","desktop","0","0","0","","","","","","working_memory","","null","<div class=""fixation"">Incorrect</div>","null","","","","","","","","","","","","","","","","",""
"html-keyboard-response","29","77068","0.0-5.0-3.0-1.0-0.4","6980d9a70a7862a47c69046d","not_provided","desktop","0","0","0","","","","","","working_memory","","null","<div class=""fixation"">+</div>","null","","","","","","","","","","","","","","","","",""
"html-keyboard-response","30","77284","0.0-5.0-3.0-1.0-1.4","6980d9a70a7862a47c69046d","not_provided","desktop","0","0","0","","","","","","working_memory","","null","<img class='a' src=images/squares/brown.png><img class='c' src=images/squares/black.png><img class='d' src=images/squares/green.png><img class='e' src=images/squares/orange.png><img class='g' src=images/squares/yellow.png><img class='i' src=images/squares/blue.png><img class='k' src=images/squares/magenta.png><img class='j' src=images/squares/red.png><div class=""fixation"">+</div>","null","","","memory","practice","4","8","","","","","","","","","","",""
"html-keyboard-response","31","78194","0.0-5.0-3.0-1.0-2.4","6980d9a70a7862a47c69046d","not_provided","desktop","0","0","0","","","","","","working_memory","","null","<div class=""fixation"">+</div>","null","","","","","","","","","","","","","","","","",""
"html-keyboard-response","32","78988","0.0-5.0-3.0-1.0-3.4","6980d9a70a7862a47c69046d","not_provided","desktop","0","0","0","","","","","","working_memory","","793","<img class='e' src=images/squares/cyan.png><div class=""fixation"">+</div>","s","","","test","practice","4","8","s","true","","","","","","","","",""
"html-keyboard-response","33","79500","0.0-5.0-3.0-1.0-4.4","6980d9a70a7862a47c69046d","not_provided","desktop","0","0","0","","","","","","working_memory","","null","<div class=""fixation"">Correct</div>","null","","","","","","","","","","","","","","","","",""
"html-keyboard-response","34","80523","0.0-5.0-3.0-1.0-0.5","6980d9a70a7862a47c69046d","not_provided","desktop","0","0","0","","","","","","working_memory","","null","<div class=""fixation"">+</div>","null","","","","","","","","","","","","","","","","",""
"html-keyboard-response","35","80726","0.0-5.0-3.0-1.0-1.5","6980d9a70a7862a47c69046d","not_provided","desktop","0","0","0","","","","","","working_memory","","null","<img class='lower2' src=images/squares/blue.png><div class=""fixation"">+</div>","null","","","memory","practice","5","1","","","","","","","","","","",""
"html-keyboard-response","36","81638","0.0-5.0-3.0-1.0-2.5","6980d9a70a7862a47c69046d","not_provided","desktop","0","0","0","","","","","","working_memory","","null","<div class=""fixation"">+</div>","null","","","","","","","","","","","","","","","","",""
"html-keyboard-response","37","82317","0.0-5.0-3.0-1.0-3.5","6980d9a70a7862a47c69046d","not_provided","desktop","0","0","0","","","","","","working_memory","","677","<img class='lower2' src=images/squares/red.png><div class=""fixation"">+</div>","s","","","test","practice","5","1","s","true","","","","","","","","",""
"html-keyboard-response","38","82830","0.0-5.0-3.0-1.0-4.5","6980d9a70a7862a47c69046d","not_provided","desktop","0","0","0","","","","","","working_memory","","null","<div class=""fixation"">Correct</div>","null","","","","","","","","","","","","","","","","",""
"html-keyboard-response","39","83846","0.0-5.0-3.0-1.0-0.6","6980d9a70a7862a47c69046d","not_provided","desktop","0","0","0","","","","","","working_memory","","null","<div class=""fixation"">+</div>","null","","","","","","","","","","","","","","","","",""
"html-keyboard-response","40","84064","0.0-5.0-3.0-1.0-1.6","6980d9a70a7862a47c69046d","not_provided","desktop","0","0","0","","","","","","working_memory","","null","<img class='c' src=images/squares/magenta.png><img class='b' src=images/squares/black.png><img class='e' src=images/squares/red.png><img class='d' src=images/squares/brown.png><img class='h' src=images/squares/blue.png><img class='g' src=images/squares/green.png><img class='l' src=images/squares/cyan.png><img class='k' src=images/squares/orange.png><div class=""fixation"">+</div>","null","","","memory","practice","6","8","","","","","","","","","","",""
"html-keyboard-response","41","84973","0.0-5.0-3.0-1.0-2.6","6980d9a70a7862a47c69046d","not_provided","desktop","0","0","0","","","","","","working_memory","","null","<div class=""fixation"">+</div>","null","","","","","","","","","","","","","","","","",""
"html-keyboard-response","42","85772","0.0-5.0-3.0-1.0-3.6","6980d9a70a7862a47c69046d","not_provided","desktop","0","0","0","","","","","","working_memory","","797","<img class='c' src=images/squares/magenta.png><div class=""fixation"">+</div>","k","","","test","practice","6","8","k","true","","","","","","","","",""
"html-keyboard-response","43","86281","0.0-5.0-3.0-1.0-4.6","6980d9a70a7862a47c69046d","not_provided","desktop","0","0","0","","","","","","working_memory","","null","<div class=""fixation"">Correct</div>","null","","","","","","","","","","","","","","","","",""
"html-keyboard-response","44","87288","0.0-5.0-3.0-1.0-0.7","6980d9a70a7862a47c69046d","not_provided","desktop","0","0","0","","","","","","working_memory","","null","<div class=""fixation"">+</div>","null","","","","","","","","","","","","","","","","",""
"html-keyboard-response","45","87501","0.0-5.0-3.0-1.0-1.7","6980d9a70a7862a47c69046d","not_provided","desktop","0","0","0","","","","","","working_memory","","null","<img class='b' src=images/squares/blue.png><img class='d' src=images/squares/cyan.png><img class='h' src=images/squares/black.png><img class='j' src=images/squares/yellow.png><div class=""fixation"">+</div>","null","","","memory","practice","7","4","","","","","","","","","","",""
"html-keyboard-response","46","88413","0.0-5.0-3.0-1.0-2.7","6980d9a70a7862a47c69046d","not_provided","desktop","0","0","0","","","","","","working_memory","","null","<div class=""fixation"">+</div>","null","","","","","","","","","","","","","","","","",""
"html-keyboard-response","47","89156","0.0-5.0-3.0-1.0-3.7","6980d9a70a7862a47c69046d","not_provided","desktop","0","0","0","","","","","","working_memory","","742","<img class='d' src=images/squares/red.png><div class=""fixation"">+</div>","k","","","test","practice","7","4","s","false","","","","","","","","",""
"html-keyboard-response","48","89670","0.0-5.0-3.0-1.0-4.7","6980d9a70a7862a47c69046d","not_provided","desktop","0","0","0","","","","","","working_memory","","null","<div class=""fixation"">Incorrect</div>","null","","","","","","","","","","","","","","","","",""
"html-keyboard-response","49","90684","0.0-5.0-3.0-1.0-0.8","6980d9a70a7862a47c69046d","not_provided","desktop","0","0","0","","","","","","working_memory","","null","<div class=""fixation"">+</div>","null","","","","","","","","","","","","","","","","",""
"html-keyboard-response","50","90894","0.0-5.0-3.0-1.0-1.8","6980d9a70a7862a47c69046d","not_provided","desktop","0","0","0","","","","","","working_memory","","null","<img class='lower1' src=images/squares/brown.png><div class=""fixation"">+</div>","null","","","memory","practice","8","1","","","","","","","","","","",""
"html-keyboard-response","51","91797","0.0-5.0-3.0-1.0-2.8","6980d9a70a7862a47c69046d","not_provided","desktop","0","0","0","","","","","","working_memory","","null","<div class=""fixation"">+</div>","null","","","","","","","","","","","","","","","","",""
"html-keyboard-response","52","92228","0.0-5.0-3.0-1.0-3.8","6980d9a70a7862a47c69046d","not_provided","desktop","0","0","0","","","","","","working_memory","","429","<img class='lower1' src=images/squares/brown.png><div class=""fixation"">+</div>","s","","","test","practice","8","1","k","false","","","","","","","","",""
"html-keyboard-response","53","92735","0.0-5.0-3.0-1.0-4.8","6980d9a70a7862a47c69046d","not_provided","desktop","0","0","0","","","","","","working_memory","","null","<div class=""fixation"">Incorrect</div>","null","","","","","","","","","","","","","","","","",""
"html-keyboard-response","54","93738","0.0-5.0-3.0-1.0-0.9","6980d9a70a7862a47c69046d","not_provided","desktop","0","0","0","","","","","","working_memory","","null","<div class=""fixation"">+</div>","null","","","","","","","","","","","","","","","","",""
"html-keyboard-response","55","93950","0.0-5.0-3.0-1.0-1.9","6980d9a70a7862a47c69046d","not_provided","desktop","0","0","0","","","","","","working_memory","","null","<img class='b' src=images/squares/blue.png><img class='d' src=images/squares/orange.png><img class='h' src=images/squares/black.png><img class='k' src=images/squares/yellow.png><div class=""fixation"">+</div>","null","","","memory","practice","9","4","","","","","","","","","","",""
"html-keyboard-response","56","94865","0.0-5.0-3.0-1.0-2.9","6980d9a70a7862a47c69046d","not_provided","desktop","0","0","0","","","","","","working_memory","","null","<div class=""fixation"">+</div>","null","","","","","","","","","","","","","","","","",""
"html-keyboard-response","57","95589","0.0-5.0-3.0-1.0-3.9","6980d9a70a7862a47c69046d","not_provided","desktop","0","0","0","","","","","","working_memory","","723","<img class='k' src=images/squares/brown.png><div class=""fixation"">+</div>","k","","","test","practice","9","4","s","false","","","","","","","","",""
"html-keyboard-response","58","96101","0.0-5.0-3.0-1.0-4.9","6980d9a70a7862a47c69046d","not_provided","desktop","0","0","0","","","","","","working_memory","","null","<div class=""fixation"">Incorrect</div>","null","","","","","","","","","","","","","","","","",""
"html-keyboard-response","59","97103","0.0-5.0-3.0-1.0-0.10","6980d9a70a7862a47c69046d","not_provided","desktop","0","0","0","","","","","","working_memory","","null","<div class=""fixation"">+</div>","null","","","","","","","","","","","","","","","","",""
"html-keyboard-response","60","97320","0.0-5.0-3.0-1.0-1.10","6980d9a70a7862a47c69046d","not_provided","desktop","0","0","0","","","","","","working_memory","","null","<img class='a' src=images/squares/orange.png><img class='d' src=images/squares/cyan.png><img class='g' src=images/squares/magenta.png><img class='l' src=images/squares/red.png><div class=""fixation"">+</div>","null","","","memory","practice","10","4","","","","","","","","","","",""
"html-keyboard-response","61","98229","0.0-5.0-3.0-1.0-2.10","6980d9a70a7862a47c69046d","not_provided","desktop","0","0","0","","","","","","working_memory","","null","<div class=""fixation"">+</div>","null","","","","","","","","","","","","","","","","",""
"html-keyboard-response","62","98703","0.0-5.0-3.0-1.0-3.10","6980d9a70a7862a47c69046d","not_provided","desktop","0","0","0","","","","","","working_memory","","472","<img class='l' src=images/squares/yellow.png><div class=""fixation"">+</div>","s","","","test","practice","10","4","s","true","","","","","","","","",""
"html-keyboard-response","63","99205","0.0-5.0-3.0-1.0-4.10","6980d9a70a7862a47c69046d","not_provided","desktop","0","0","0","","","","","","working_memory","","null","<div class=""fixation"">Correct</div>","null","","","","","","","","","","","","","","","","",""
"html-keyboard-response","64","100210","0.0-5.0-3.0-1.0-0.11","6980d9a70a7862a47c69046d","not_provided","desktop","0","0","0","","","","","","working_memory","","null","<div class=""fixation"">+</div>","null","","","","","","","","","","","","","","","","",""
"html-keyboard-response","65","100426","0.0-5.0-3.0-1.0-1.11","6980d9a70a7862a47c69046d","not_provided","desktop","0","0","0","","","","","","working_memory","","null","<img class='upper1' src=images/squares/green.png><div class=""fixation"">+</div>","null","","","memory","practice","11","1","","","","","","","","","","",""
"html-keyboard-response","66","101331","0.0-5.0-3.0-1.0-2.11","6980d9a70a7862a47c69046d","not_provided","desktop","0","0","0","","","","","","working_memory","","null","<div class=""fixation"">+</div>","null","","","","","","","","","","","","","","","","",""
"html-keyboard-response","67","102054","0.0-5.0-3.0-1.0-3.11","6980d9a70a7862a47c69046d","not_provided","desktop","0","0","0","","","","","","working_memory","","721","<img class='upper1' src=images/squares/magenta.png><div class=""fixation"">+</div>","s","","","test","practice","11","1","s","true","","","","","","","","",""
"html-keyboard-response","68","102557","0.0-5.0-3.0-1.0-4.11","6980d9a70a7862a47c69046d","not_provided","desktop","0","0","0","","","","","","working_memory","","null","<div class=""fixation"">Correct</div>","null","","","","","","","","","","","","","","","","",""
"html-keyboard-response","69","103566","0.0-5.0-3.0-1.0-0.12","6980d9a70a7862a47c69046d","not_provided","desktop","0","0","0","","","","","","working_memory","","null","<div class=""fixation"">+</div>","null","","","","","","","","","","","","","","","","",""
"html-keyboard-response","70","103786","0.0-5.0-3.0-1.0-1.12","6980d9a70a7862a47c69046d","not_provided","desktop","0","0","0","","","","","","working_memory","","null","<img class='b' src=images/squares/yellow.png><img class='c' src=images/squares/orange.png><img class='e' src=images/squares/black.png><img class='f' src=images/squares/blue.png><img class='g' src=images/squares/red.png><img class='h' src=images/squares/brown.png><img class='l' src=images/squares/green.png><img class='j' src=images/squares/magenta.png><div class=""fixation"">+</div>","null","","","memory","practice","12","8","","","","","","","","","","",""
"html-keyboard-response","71","104694","0.0-5.0-3.0-1.0-2.12","6980d9a70a7862a47c69046d","not_provided","desktop","0","0","0","","","","","","working_memory","","null","<div class=""fixation"">+</div>","null","","","","","","","","","","","","","","","","",""
"html-keyboard-response","72","105229","0.0-5.0-3.0-1.0-3.12","6980d9a70a7862a47c69046d","not_provided","desktop","0","0","0","","","","","","working_memory","","534","<img class='c' src=images/squares/orange.png><div class=""fixation"">+</div>","s","","","test","practice","12","8","k","false","","","","","","","","",""
"html-keyboard-response","73","105743","0.0-5.0-3.0-1.0-4.12","6980d9a70a7862a47c69046d","not_provided","desktop","0","0","0","","","","","","working_memory","","null","<div class=""fixation"">Incorrect</div>","null","","","","","","","","","","","","","","","","",""
"html-keyboard-response","74","106744","0.0-5.0-3.0-1.0-0.13","6980d9a70a7862a47c69046d","not_provided","desktop","0","0","0","","","","","","working_memory","","null","<div class=""fixation"">+</div>","null","","","","","","","","","","","","","","","","",""
"html-keyboard-response","75","106957","0.0-5.0-3.0-1.0-1.13","6980d9a70a7862a47c69046d","not_provided","desktop","0","0","0","","","","","","working_memory","","null","<img class='a' src=images/squares/blue.png><img class='d' src=images/squares/yellow.png><img class='h' src=images/squares/green.png><img class='k' src=images/squares/magenta.png><div class=""fixation"">+</div>","null","","","memory","practice","13","4","","","","","","","","","","",""
"html-keyboard-response","76","107862","0.0-5.0-3.0-1.0-2.13","6980d9a70a7862a47c69046d","not_provided","desktop","0","0","0","","","","","","working_memory","","null","<div class=""fixation"">+</div>","null","","","","","","","","","","","","","","","","",""
"html-keyboard-response","77","109064","0.0-5.0-3.0-1.0-3.13","6980d9a70a7862a47c69046d","not_provided","desktop","0","0","0","","","","","","working_memory","","1201","<img class='a' src=images/squares/orange.png><div class=""fixation"">+</div>","s","","","test","practice","13","4","s","true","","","","","","","","",""
"html-keyboard-response","78","109577","0.0-5.0-3.0-1.0-4.13","6980d9a70a7862a47c69046d","not_provided","desktop","0","0","0","","","","","","working_memory","","null","<div class=""fixation"">Correct</div>","null","","","","","","","","","","","","","","","","",""
"html-keyboard-response","79","110594","0.0-5.0-3.0-1.0-0.14","6980d9a70a7862a47c69046d","not_provided","desktop","0","0","0","","","","","","working_memory","","null","<div class=""fixation"">+</div>","null","","","","","","","","","","","","","","","","",""
"html-keyboard-response","80","110798","0.0-5.0-3.0-1.0-1.14","6980d9a70a7862a47c69046d","not_provided","desktop","0","0","0","","","","","","working_memory","","null","<img class='upper1' src=images/squares/black.png><div class=""fixation"">+</div>","null","","","memory","practice","14","1","","","","","","","","","","",""
"html-keyboard-response","81","111705","0.0-5.0-3.0-1.0-2.14","6980d9a70a7862a47c69046d","not_provided","desktop","0","0","0","","","","","","working_memory","","null","<div class=""fixation"">+</div>","null","","","","","","","","","","","","","","","","",""
"html-keyboard-response","82","113259","0.0-5.0-3.0-1.0-3.14","6980d9a70a7862a47c69046d","not_provided","desktop","0","0","0","","","","","","working_memory","","1552","<img class='upper1' src=images/squares/black.png><div class=""fixation"">+</div>","s","","","test","practice","14","1","k","false","","","","","","","","",""
"html-keyboard-response","83","113773","0.0-5.0-3.0-1.0-4.14","6980d9a70a7862a47c69046d","not_provided","desktop","0","0","0","","","","","","working_memory","","null","<div class=""fixation"">Incorrect</div>","null","","","","","","","","","","","","","","","","",""
"html-keyboard-response","84","115229","0.0-5.0-3.0-2.0-0.0","6980d9a70a7862a47c69046d","not_provided","desktop","0","0","0","","","","","","working_memory","","1452","<p>Sorry. You made too many mistakes.<br>Let's do the practice session once again.<br><br><b>Press any key to continue</b></p>"," ","","","","","","","","","","","","","","","","",""
"html-keyboard-response","85","116067","0.0-5.0-3.1-0.1","6980d9a70a7862a47c69046d","not_provided","desktop","0","0","0","","","","","","working_memory","","836","<p>We will now start some practice trials.<br><b>The practice trials will also include some trials in which you will need to remember only one square to make sure you understood the instructions.</b><br>You may already want to be ready with your fingers on '<b>s</b>' and '<b>k</b>'.<br><img class=""wm-example-img"" src=""images/examples/keyboard.png""><br><b style=""font-size:1.2em;"">&lsquo;K&rsquo; = SAME &nbsp;&nbsp;&nbsp; &lsquo;S&rsquo; = DIFFERENT</b><br><br><u>Please try to be as accurate as possible.</u><br><br><b>Press any key to begin</b></p>"," ","","","","","","","","","","","","","","","","",""
"html-keyboard-response","86","118076","0.0-5.0-3.1-1.1-0.15","6980d9a70a7862a47c69046d","not_provided","desktop","0","0","0","","","","","","working_memory","","null","<div class=""fixation"">+</div>","null","","","","","","","","","","","","","","","","",""
"html-keyboard-response","87","118291","0.0-5.0-3.1-1.1-1.15","6980d9a70a7862a47c69046d","not_provided","desktop","0","0","0","","","","","","working_memory","","null","<img class='upper2' src=images/squares/magenta.png><div class=""fixation"">+</div>","null","","","memory","practice","15","1","","","","","","","","","","",""
"html-keyboard-response","88","119202","0.0-5.0-3.1-1.1-2.15","6980d9a70a7862a47c69046d","not_provided","desktop","0","0","0","","","","","","working_memory","","null","<div class=""fixation"">+</div>","null","","","","","","","","","","","","","","","","",""
"html-keyboard-response","89","119965","0.0-5.0-3.1-1.1-3.15","6980d9a70a7862a47c69046d","not_provided","desktop","0","0","0","","","","","","working_memory","","761","<img class='upper2' src=images/squares/black.png><div class=""fixation"">+</div>","s","","","test","practice","15","1","s","true","","","","","","","","",""
"html-keyboard-response","90","120477","0.0-5.0-3.1-1.1-4.15","6980d9a70a7862a47c69046d","not_provided","desktop","0","0","0","","","","","","working_memory","","null","<div class=""fixation"">Correct</div>","null","","","","","","","","","","","","","","","","",""
"html-keyboard-response","91","121479","0.0-5.0-3.1-1.1-0.16","6980d9a70a7862a47c69046d","not_provided","desktop","0","0","0","","","","","","working_memory","","null","<div class=""fixation"">+</div>","null","","","","","","","","","","","","","","","","",""
"html-keyboard-response","92","121685","0.0-5.0-3.1-1.1-1.16","6980d9a70a7862a47c69046d","not_provided","desktop","0","0","0","","","","","","working_memory","","null","<img class='b' src=images/squares/blue.png><img class='c' src=images/squares/black.png><img class='f' src=images/squares/orange.png><img class='d' src=images/squares/yellow.png><img class='i' src=images/squares/cyan.png><img class='g' src=images/squares/red.png><img class='j' src=images/squares/green.png><img class='l' src=images/squares/magenta.png><div class=""fixation"">+</div>","null","","","memory","practice","16","8","","","","","","","","","","",""
"html-keyboard-response","93","122588","0.0-5.0-3.1-1.1-2.16","6980d9a70a7862a47c69046d","not_provided","desktop","0","0","0","","","","","","working_memory","","null","<div class=""fixation"">+</div>","null","","","","","","","","","","","","","","","","",""
"html-keyboard-response","94","123242","0.0-5.0-3.1-1.1-3.16","6980d9a70a7862a47c69046d","not_provided","desktop","0","0","0","","","","","","working_memory","","653","<img class='b' src=images/squares/blue.png><div class=""fixation"">+</div>","s","","","test","practice","16","8","k","false","","","","","","","","",""
"html-keyboard-response","95","123758","0.0-5.0-3.1-1.1-4.16","6980d9a70a7862a47c69046d","not_provided","desktop","0","0","0","","","","","","working_memory","","null","<div class=""fixation"">Incorrect</div>","null","","","","","","","","","","","","","","","","",""
"html-keyboard-response","96","124775","0.0-5.0-3.1-1.1-0.17","6980d9a70a7862a47c69046d","not_provided","desktop","0","0","0","","","","","","working_memory","","null","<div class=""fixation"">+</div>","null","","","","","","","","","","","","","","","","",""
"html-keyboard-response","97","124989","0.0-5.0-3.1-1.1-1.17","6980d9a70a7862a47c69046d","not_provided","desktop","0","0","0","","","","","","working_memory","","null","<img class='b' src=images/squares/magenta.png><img class='f' src=images/squares/cyan.png><img class='h' src=images/squares/blue.png><img class='j' src=images/squares/orange.png><div class=""fixation"">+</div>","null","","","memory","practice","17","4","","","","","","","","","","",""
"html-keyboard-response","98","125902","0.0-5.0-3.1-1.1-2.17","6980d9a70a7862a47c69046d","not_provided","desktop","0","0","0","","","","","","working_memory","","null","<div class=""fixation"">+</div>","null","","","","","","","","","","","","","","","","",""
"html-keyboard-response","99","127388","0.0-5.0-3.1-1.1-3.17","6980d9a70a7862a47c69046d","not_provided","desktop","0","0","0","","","","","","working_memory","","1484","<img class='h' src=images/squares/blue.png><div class=""fixation"">+</div>","s","","","test","practice","17","4","k","false","","","","","","","","",""
"html-keyboard-response","100","127893","0.0-5.0-3.1-1.1-4.17","6980d9a70a7862a47c69046d","not_provided","desktop","0","0","0","","","","","","working_memory","","null","<div class=""fixation"">Incorrect</div>","null","","","","","","","","","","","","","","","","",""
"html-keyboard-response","101","128907","0.0-5.0-3.1-1.1-0.18","6980d9a70a7862a47c69046d","not_provided","desktop","0","0","0","","","","","","working_memory","","null","<div class=""fixation"">+</div>","null","","","","","","","","","","","","","","","","",""
"html-keyboard-response","102","129113","0.0-5.0-3.1-1.1-1.18","6980d9a70a7862a47c69046d","not_provided","desktop","0","0","0","","","","","","working_memory","","null","<img class='a' src=images/squares/yellow.png><img class='c' src=images/squares/black.png><img class='f' src=images/squares/red.png><img class='e' src=images/squares/cyan.png><img class='h' src=images/squares/brown.png><img class='i' src=images/squares/green.png><img class='l' src=images/squares/orange.png><img class='j' src=images/squares/blue.png><div class=""fixation"">+</div>","null","","","memory","practice","18","8","","","","","","","","","","",""
"html-keyboard-response","103","130019","0.0-5.0-3.1-1.1-2.18","6980d9a70a7862a47c69046d","not_provided","desktop","0","0","0","","","","","","working_memory","","null","<div class=""fixation"">+</div>","null","","","","","","","","","","","","","","","","",""
"html-keyboard-response","104","130940","0.0-5.0-3.1-1.1-3.18","6980d9a70a7862a47c69046d","not_provided","desktop","0","0","0","","","","","","working_memory","","919","<img class='h' src=images/squares/brown.png><div class=""fixation"">+</div>","s","","","test","practice","18","8","k","false","","","","","","","","",""
"html-keyboard-response","105","131449","0.0-5.0-3.1-1.1-4.18","6980d9a70a7862a47c69046d","not_provided","desktop","0","0","0","","","","","","working_memory","","null","<div class=""fixation"">Incorrect</div>","null","","","","","","","","","","","","","","","","",""
"html-keyboard-response","106","132452","0.0-5.0-3.1-1.1-0.19","6980d9a70a7862a47c69046d","not_provided","desktop","0","0","0","","","","","","working_memory","","null","<div class=""fixation"">+</div>","null","","","","","","","","","","","","","","","","",""
"html-keyboard-response","107","132655","0.0-5.0-3.1-1.1-1.19","6980d9a70a7862a47c69046d","not_provided","desktop","0","0","0","","","","","","working_memory","","null","<img class='upper2' src=images/squares/blue.png><div class=""fixation"">+</div>","null","","","memory","practice","19","1","","","","","","","","","","",""
"html-keyboard-response","108","133571","0.0-5.0-3.1-1.1-2.19","6980d9a70a7862a47c69046d","not_provided","desktop","0","0","0","","","","","","working_memory","","null","<div class=""fixation"">+</div>","null","","","","","","","","","","","","","","","","",""
"html-keyboard-response","109","134588","0.0-5.0-3.1-1.1-3.19","6980d9a70a7862a47c69046d","not_provided","desktop","0","0","0","","","","","","working_memory","","1015","<img class='upper2' src=images/squares/orange.png><div class=""fixation"">+</div>","s","","","test","practice","19","1","s","true","","","","","","","","",""
"html-keyboard-response","110","135104","0.0-5.0-3.1-1.1-4.19","6980d9a70a7862a47c69046d","not_provided","desktop","0","0","0","","","","","","working_memory","","null","<div class=""fixation"">Correct</div>","null","","","","","","","","","","","","","","","","",""
"html-keyboard-response","111","136107","0.0-5.0-3.1-1.1-0.20","6980d9a70a7862a47c69046d","not_provided","desktop","0","0","0","","","","","","working_memory","","null","<div class=""fixation"">+</div>","null","","","","","","","","","","","","","","","","",""
"html-keyboard-response","112","136309","0.0-5.0-3.1-1.1-1.20","6980d9a70a7862a47c69046d","not_provided","desktop","0","0","0","","","","","","working_memory","","null","<img class='lower3' src=images/squares/orange.png><div class=""fixation"">+</div>","null","","","memory","practice","20","1","","","","","","","","","","",""
"html-keyboard-response","113","137219","0.0-5.0-3.1-1.1-2.20","6980d9a70a7862a47c69046d","not_provided","desktop","0","0","0","","","","","","working_memory","","null","<div class=""fixation"">+</div>","null","","","","","","","","","","","","","","","","",""
"html-keyboard-response","114","138348","0.0-5.0-3.1-1.1-3.20","6980d9a70a7862a47c69046d","not_provided","desktop","0","0","0","","","","","","working_memory","","1128","<img class='lower3' src=images/squares/orange.png><div class=""fixation"">+</div>","k","","","test","practice","20","1","k","true","","","","","","","","",""
"html-keyboard-response","115","138863","0.0-5.0-3.1-1.1-4.20","6980d9a70a7862a47c69046d","not_provided","desktop","0","0","0","","","","","","working_memory","","null","<div class=""fixation"">Correct</div>","null","","","","","","","","","","","","","","","","",""
"html-keyboard-response","116","139864","0.0-5.0-3.1-1.1-0.21","6980d9a70a7862a47c69046d","not_provided","desktop","0","0","0","","","","","","working_memory","","null","<div class=""fixation"">+</div>","null","","","","","","","","","","","","","","","","",""
"html-keyboard-response","117","140067","0.0-5.0-3.1-1.1-1.21","6980d9a70a7862a47c69046d","not_provided","desktop","0","0","0","","","","","","working_memory","","null","<img class='c' src=images/squares/brown.png><img class='d' src=images/squares/black.png><img class='i' src=images/squares/green.png><img class='k' src=images/squares/orange.png><div class=""fixation"">+</div>","null","","","memory","practice","21","4","","","","","","","","","","",""
"html-keyboard-response","118","140975","0.0-5.0-3.1-1.1-2.21","6980d9a70a7862a47c69046d","not_provided","desktop","0","0","0","","","","","","working_memory","","null","<div class=""fixation"">+</div>","null","","","","","","","","","","","","","","","","",""
"html-keyboard-response","119","142334","0.0-5.0-3.1-1.1-3.21","6980d9a70a7862a47c69046d","not_provided","desktop","0","0","0","","","","","","working_memory","","1358","<img class='i' src=images/squares/red.png><div class=""fixation"">+</div>","k","","","test","practice","21","4","s","false","","","","","","","","",""
"html-keyboard-response","120","142838","0.0-5.0-3.1-1.1-4.21","6980d9a70a7862a47c69046d","not_provided","desktop","0","0","0","","","","","","working_memory","","null","<div class=""fixation"">Incorrect</div>","null","","","","","","","","","","","","","","","","",""
"html-keyboard-response","121","143841","0.0-5.0-3.1-1.1-0.22","6980d9a70a7862a47c69046d","not_provided","desktop","0","0","0","","","","","","working_memory","","null","<div class=""fixation"">+</div>","null","","","","","","","","","","","","","","","","",""
"html-keyboard-response","122","144058","0.0-5.0-3.1-1.1-1.22","6980d9a70a7862a47c69046d","not_provided","desktop","0","0","0","","","","","","working_memory","","null","<img class='c' src=images/squares/blue.png><img class='f' src=images/squares/black.png><img class='i' src=images/squares/magenta.png><img class='j' src=images/squares/red.png><div class=""fixation"">+</div>","null","","","memory","practice","22","4","","","","","","","","","","",""
"html-keyboard-response","123","144966","0.0-5.0-3.1-1.1-2.22","6980d9a70a7862a47c69046d","not_provided","desktop","0","0","0","","","","","","working_memory","","null","<div class=""fixation"">+</div>","null","","","","","","","","","","","","","","","","",""
"html-keyboard-response","124","146010","0.0-5.0-3.1-1.1-3.22","6980d9a70a7862a47c69046d","not_provided","desktop","0","0","0","","","","","","working_memory","","1042","<img class='f' src=images/squares/green.png><div class=""fixation"">+</div>","s","","","test","practice","22","4","s","true","","","","","","","","",""
"html-keyboard-response","125","146522","0.0-5.0-3.1-1.1-4.22","6980d9a70a7862a47c69046d","not_provided","desktop","0","0","0","","","","","","working_memory","","null","<div class=""fixation"">Correct</div>","null","","","","","","","","","","","","","","","","",""
"html-keyboard-response","126","147524","0.0-5.0-3.1-1.1-0.23","6980d9a70a7862a47c69046d","not_provided","desktop","0","0","0","","","","","","working_memory","","null","<div class=""fixation"">+</div>","null","","","","","","","","","","","","","","","","",""
"html-keyboard-response","127","147732","0.0-5.0-3.1-1.1-1.23","6980d9a70a7862a47c69046d","not_provided","desktop","0","0","0","","","","","","working_memory","","null","<img class='lower3' src=images/squares/magenta.png><div class=""fixation"">+</div>","null","","","memory","practice","23","1","","","","","","","","","","",""
"html-keyboard-response","128","148645","0.0-5.0-3.1-1.1-2.23","6980d9a70a7862a47c69046d","not_provided","desktop","0","0","0","","","","","","working_memory","","null","<div class=""fixation"">+</div>","null","","","","","","","","","","","","","","","","",""
"html-keyboard-response","129","148711","0.0-5.0-3.1-1.1-3.23","6980d9a70a7862a47c69046d","not_provided","desktop","0","0","0","","","","","","working_memory","","64","<img class='lower3' src=images/squares/cyan.png><div class=""fixation"">+</div>","s","","","test","practice","23","1","s","true","","","","","","","","",""
"html-keyboard-response","130","149221","0.0-5.0-3.1-1.1-4.23","6980d9a70a7862a47c69046d","not_provided","desktop","0","0","0","","","","","","working_memory","","null","<div class=""fixation"">Correct</div>","null","","","","","","","","","","","","","","","","",""
"html-keyboard-response","131","150224","0.0-5.0-3.1-1.1-0.24","6980d9a70a7862a47c69046d","not_provided","desktop","0","0","0","","","","","","working_memory","","null","<div class=""fixation"">+</div>","null","","","","","","","","","","","","","","","","",""
"html-keyboard-response","132","150437","0.0-5.0-3.1-1.1-1.24","6980d9a70a7862a47c69046d","not_provided","desktop","0","0","0","","","","","","working_memory","","null","<img class='c' src=images/squares/orange.png><img class='f' src=images/squares/cyan.png><img class='h' src=images/squares/blue.png><img class='k' src=images/squares/magenta.png><div class=""fixation"">+</div>","null","","","memory","practice","24","4","","","","","","","","","","",""
"html-keyboard-response","133","151340","0.0-5.0-3.1-1.1-2.24","6980d9a70a7862a47c69046d","not_provided","desktop","0","0","0","","","","","","working_memory","","null","<div class=""fixation"">+</div>","null","","","","","","","","","","","","","","","","",""
"html-keyboard-response","134","152170","0.0-5.0-3.1-1.1-3.24","6980d9a70a7862a47c69046d","not_provided","desktop","0","0","0","","","","","","working_memory","","828","<img class='k' src=images/squares/red.png><div class=""fixation"">+</div>","k","","","test","practice","24","4","s","false","","","","","","","","",""
"html-keyboard-response","135","152684","0.0-5.0-3.1-1.1-4.24","6980d9a70a7862a47c69046d","not_provided","desktop","0","0","0","","","","","","working_memory","","null","<div class=""fixation"">Incorrect</div>","null","","","","","","","","","","","","","","","","",""
"html-keyboard-response","136","153700","0.0-5.0-3.1-1.1-0.25","6980d9a70a7862a47c69046d","not_provided","desktop","0","0","0","","","","","","working_memory","","null","<div class=""fixation"">+</div>","null","","","","","","","","","","","","","","","","",""
"html-keyboard-response","137","153909","0.0-5.0-3.1-1.1-1.25","6980d9a70a7862a47c69046d","not_provided","desktop","0","0","0","","","","","","working_memory","","null","<img class='b' src=images/squares/red.png><img class='d' src=images/squares/orange.png><img class='i' src=images/squares/blue.png><img class='j' src=images/squares/brown.png><div class=""fixation"">+</div>","null","","","memory","practice","25","4","","","","","","","","","","",""
"html-keyboard-response","138","154811","0.0-5.0-3.1-1.1-2.25","6980d9a70a7862a47c69046d","not_provided","desktop","0","0","0","","","","","","working_memory","","null","<div class=""fixation"">+</div>","null","","","","","","","","","","","","","","","","",""
"html-keyboard-response","139","155339","0.0-5.0-3.1-1.1-3.25","6980d9a70a7862a47c69046d","not_provided","desktop","0","0","0","","","","","","working_memory","","526","<img class='i' src=images/squares/blue.png><div class=""fixation"">+</div>","k","","","test","practice","25","4","k","true","","","","","","","","",""
"html-keyboard-response","140","155845","0.0-5.0-3.1-1.1-4.25","6980d9a70a7862a47c69046d","not_provided","desktop","0","0","0","","","","","","working_memory","","null","<div class=""fixation"">Correct</div>","null","","","","","","","","","","","","","","","","",""
"html-keyboard-response","141","156861","0.0-5.0-3.1-1.1-0.26","6980d9a70a7862a47c69046d","not_provided","desktop","0","0","0","","","","","","working_memory","","null","<div class=""fixation"">+</div>","null","","","","","","","","","","","","","","","","",""
"html-keyboard-response","142","157065","0.0-5.0-3.1-1.1-1.26","6980d9a70a7862a47c69046d","not_provided","desktop","0","0","0","","","","","","working_memory","","null","<img class='upper2' src=images/squares/orange.png><div class=""fixation"">+</div>","null","","","memory","practice","26","1","","","","","","","","","","",""
"html-keyboard-response","143","157973","0.0-5.0-3.1-1.1-2.26","6980d9a70a7862a47c69046d","not_provided","desktop","0","0","0","","","","","","working_memory","","null","<div class=""fixation"">+</div>","null","","","","","","","","","","","","","","","","",""
"html-keyboard-response","144","158723","0.0-5.0-3.1-1.1-3.26","6980d9a70a7862a47c69046d","not_provided","desktop","0","0","0","","","","","","working_memory","","748","<img class='upper2' src=images/squares/orange.png><div class=""fixation"">+</div>","s","","","test","practice","26","1","k","false","","","","","","","","",""
"html-keyboard-response","145","159232","0.0-5.0-3.1-1.1-4.26","6980d9a70a7862a47c69046d","not_provided","desktop","0","0","0","","","","","","working_memory","","null","<div class=""fixation"">Incorrect</div>","null","","","","","","","","","","","","","","","","",""
"html-keyboard-response","146","160235","0.0-5.0-3.1-1.1-0.27","6980d9a70a7862a47c69046d","not_provided","desktop","0","0","0","","","","","","working_memory","","null","<div class=""fixation"">+</div>","null","","","","","","","","","","","","","","","","",""
"html-keyboard-response","147","160452","0.0-5.0-3.1-1.1-1.27","6980d9a70a7862a47c69046d","not_provided","desktop","0","0","0","","","","","","working_memory","","null","<img class='upper3' src=images/squares/yellow.png><div class=""fixation"">+</div>","null","","","memory","practice","27","1","","","","","","","","","","",""
"html-keyboard-response","148","161360","0.0-5.0-3.1-1.1-2.27","6980d9a70a7862a47c69046d","not_provided","desktop","0","0","0","","","","","","working_memory","","null","<div class=""fixation"">+</div>","null","","","","","","","","","","","","","","","","",""
"html-keyboard-response","149","161859","0.0-5.0-3.1-1.1-3.27","6980d9a70a7862a47c69046d","not_provided","desktop","0","0","0","","","","","","working_memory","","497","<img class='upper3' src=images/squares/red.png><div class=""fixation"">+</div>","k","","","test","practice","27","1","s","false","","","","","","","","",""
"html-keyboard-response","150","162365","0.0-5.0-3.1-1.1-4.27","6980d9a70a7862a47c69046d","not_provided","desktop","0","0","0","","","","","","working_memory","","null","<div class=""fixation"">Incorrect</div>","null","","","","","","","","","","","","","","","","",""
"html-keyboard-response","151","163369","0.0-5.0-3.1-1.1-0.28","6980d9a70a7862a47c69046d","not_provided","desktop","0","0","0","","","","","","working_memory","","null","<div class=""fixation"">+</div>","null","","","","","","","","","","","","","","","","",""
"html-keyboard-response","152","163578","0.0-5.0-3.1-1.1-1.28","6980d9a70a7862a47c69046d","not_provided","desktop","0","0","0","","","","","","working_memory","","null","<img class='c' src=images/squares/magenta.png><img class='e' src=images/squares/black.png><img class='i' src=images/squares/yellow.png><img class='j' src=images/squares/orange.png><div class=""fixation"">+</div>","null","","","memory","practice","28","4","","","","","","","","","","",""
"html-keyboard-response","153","164487","0.0-5.0-3.1-1.1-2.28","6980d9a70a7862a47c69046d","not_provided","desktop","0","0","0","","","","","","working_memory","","null","<div class=""fixation"">+</div>","null","","","","","","","","","","","","","","","","",""
"html-keyboard-response","154","165039","0.0-5.0-3.1-1.1-3.28","6980d9a70a7862a47c69046d","not_provided","desktop","0","0","0","","","","","","working_memory","","550","<img class='c' src=images/squares/red.png><div class=""fixation"">+</div>","s","","","test","practice","28","4","s","true","","","","","","","","",""
"html-keyboard-response","155","165541","0.0-5.0-3.1-1.1-4.28","6980d9a70a7862a47c69046d","not_provided","desktop","0","0","0","","","","","","working_memory","","null","<div class=""fixation"">Correct</div>","null","","","","","","","","","","","","","","","","",""
"html-keyboard-response","156","166565","0.0-5.0-3.1-1.1-0.29","6980d9a70a7862a47c69046d","not_provided","desktop","0","0","0","","","","","","working_memory","","null","<div class=""fixation"">+</div>","null","","","","","","","","","","","","","","","","",""
"html-keyboard-response","157","166784","0.0-5.0-3.1-1.1-1.29","6980d9a70a7862a47c69046d","not_provided","desktop","0","0","0","","","","","","working_memory","","null","<img class='b' src=images/squares/cyan.png><img class='a' src=images/squares/brown.png><img class='d' src=images/squares/yellow.png><img class='e' src=images/squares/red.png><img class='g' src=images/squares/magenta.png><img class='h' src=images/squares/green.png><img class='j' src=images/squares/orange.png><img class='l' src=images/squares/black.png><div class=""fixation"">+</div>","null","","","memory","practice","29","8","","","","","","","","","","",""
"html-keyboard-response","158","167694","0.0-5.0-3.1-1.1-2.29","6980d9a70a7862a47c69046d","not_provided","desktop","0","0","0","","","","","","working_memory","","null","<div class=""fixation"">+</div>","null","","","","","","","","","","","","","","","","",""
"html-keyboard-response","159","168783","0.0-5.0-3.1-1.1-3.29","6980d9a70a7862a47c69046d","not_provided","desktop","0","0","0","","","","","","working_memory","","1088","<img class='d' src=images/squares/blue.png><div class=""fixation"">+</div>","s","","","test","practice","29","8","s","true","","","","","","","","",""
"html-keyboard-response","160","169299","0.0-5.0-3.1-1.1-4.29","6980d9a70a7862a47c69046d","not_provided","desktop","0","0","0","","","","","","working_memory","","null","<div class=""fixation"">Correct</div>","null","","","","","","","","","","","","","","","","",""
"html-keyboard-response","161","170512","0.0-5.0-3.1-2.1-0.1","6980d9a70a7862a47c69046d","not_provided","desktop","0","0","0","","","","","","working_memory","","1210","<p>Sorry. You made too many mistakes.<br>Let's do the practice session once again.<br><br><b>Press any key to continue</b></p>"," ","","","","","","","","","","","","","","","","",""
"html-keyboard-response","162","171267","0.0-5.0-3.2-0.2","6980d9a70a7862a47c69046d","not_provided","desktop","0","0","0","","","","","","working_memory","","753","<p>We will now start some practice trials.<br><b>The practice trials will also include some trials in which you will need to remember only one square to make sure you understood the instructions.</b><br>You may already want to be ready with your fingers on '<b>s</b>' and '<b>k</b>'.<br><img class=""wm-example-img"" src=""images/examples/keyboard.png""><br><b style=""font-size:1.2em;"">&lsquo;K&rsquo; = SAME &nbsp;&nbsp;&nbsp; &lsquo;S&rsquo; = DIFFERENT</b><br><br><u>Please try to be as accurate as possible.</u><br><br><b>Press any key to begin</b></p>"," ","","","","","","","","","","","","","","","","",""
"html-keyboard-response","163","173282","0.0-5.0-3.2-1.2-0.30","6980d9a70a7862a47c69046d","not_provided","desktop","0","0","0","","","","","","working_memory","","null","<div class=""fixation"">+</div>","null","","","","","","","","","","","","","","","","",""
"html-keyboard-response","164","173494","0.0-5.0-3.2-1.2-1.30","6980d9a70a7862a47c69046d","not_provided","desktop","0","0","0","","","","","","working_memory","","null","<img class='lower3' src=images/squares/magenta.png><div class=""fixation"">+</div>","null","","","memory","practice","30","1","","","","","","","","","","",""
"html-keyboard-response","165","174410","0.0-5.0-3.2-1.2-2.30","6980d9a70a7862a47c69046d","not_provided","desktop","0","0","0","","","","","","working_memory","","null","<div class=""fixation"">+</div>","null","","","","","","","","","","","","","","","","",""
"html-keyboard-response","166","175023","0.0-5.0-3.2-1.2-3.30","6980d9a70a7862a47c69046d","not_provided","desktop","0","0","0","","","","","","working_memory","","611","<img class='lower3' src=images/squares/magenta.png><div class=""fixation"">+</div>","k","","","test","practice","30","1","k","true","","","","","","","","",""
"html-keyboard-response","167","175527","0.0-5.0-3.2-1.2-4.30","6980d9a70a7862a47c69046d","not_provided","desktop","0","0","0","","","","","","working_memory","","null","<div class=""fixation"">Correct</div>","null","","","","","","","","","","","","","","","","",""
"html-keyboard-response","168","176542","0.0-5.0-3.2-1.2-0.31","6980d9a70a7862a47c69046d","not_provided","desktop","0","0","0","","","","","","working_memory","","null","<div class=""fixation"">+</div>","null","","","","","","","","","","","","","","","","",""
"html-keyboard-response","169","176752","0.0-5.0-3.2-1.2-1.31","6980d9a70a7862a47c69046d","not_provided","desktop","0","0","0","","","","","","working_memory","","null","<img class='c' src=images/squares/black.png><img class='a' src=images/squares/magenta.png><img class='f' src=images/squares/red.png><img class='d' src=images/squares/brown.png><img class='h' src=images/squares/blue.png><img class='i' src=images/squares/orange.png><img class='k' src=images/squares/green.png><img class='l' src=images/squares/cyan.png><div class=""fixation"">+</div>","null","","","memory","practice","31","8","","","","","","","","","","",""
"html-keyboard-response","170","177663","0.0-5.0-3.2-1.2-2.31","6980d9a70a7862a47c69046d","not_provided","desktop","0","0","0","","","","","","working_memory","","null","<div class=""fixation"">+</div>","null","","","","","","","","","","","","","","","","",""
"html-keyboard-response","171","179518","0.0-5.0-3.2-1.2-3.31","6980d9a70a7862a47c69046d","not_provided","desktop","0","0","0","","","","","","working_memory","","1853","<img class='a' src=images/squares/magenta.png><div class=""fixation"">+</div>","k","","","test","practice","31","8","k","true","","","","","","","","",""
"html-keyboard-response","172","180021","0.0-5.0-3.2-1.2-4.31","6980d9a70a7862a47c69046d","not_provided","desktop","0","0","0","","","","","","working_memory","","null","<div class=""fixation"">Correct</div>","null","","","","","","","","","","","","","","","","",""
"html-keyboard-response","173","181028","0.0-5.0-3.2-1.2-0.32","6980d9a70a7862a47c69046d","not_provided","desktop","0","0","0","","","","","","working_memory","","null","<div class=""fixation"">+</div>","null","","","","","","","","","","","","","","","","",""
"html-keyboard-response","174","181242","0.0-5.0-3.2-1.2-1.32","6980d9a70a7862a47c69046d","not_provided","desktop","0","0","0","","","","","","working_memory","","null","<img class='a' src=images/squares/cyan.png><img class='b' src=images/squares/brown.png><img class='e' src=images/squares/magenta.png><img class='d' src=images/squares/black.png><img class='h' src=images/squares/yellow.png><img class='g' src=images/squares/orange.png><img class='k' src=images/squares/green.png><img class='j' src=images/squares/blue.png><div class=""fixation"">+</div>","null","","","memory","practice","32","8","","","","","","","","","","",""
"html-keyboard-response","175","182156","0.0-5.0-3.2-1.2-2.32","6980d9a70a7862a47c69046d","not_provided","desktop","0","0","0","","","","","","working_memory","","null","<div class=""fixation"">+</div>","null","","","","","","","","","","","","","","","","",""
"html-keyboard-response","176","183104","0.0-5.0-3.2-1.2-3.32","6980d9a70a7862a47c69046d","not_provided","desktop","0","0","0","","","","","","working_memory","","947","<img class='a' src=images/squares/cyan.png><div class=""fixation"">+</div>","k","","","test","practice","32","8","k","true","","","","","","","","",""
"html-keyboard-response","177","183612","0.0-5.0-3.2-1.2-4.32","6980d9a70a7862a47c69046d","not_provided","desktop","0","0","0","","","","","","working_memory","","null","<div class=""fixation"">Correct</div>","null","","","","","","","","","","","","","","","","",""
"html-keyboard-response","178","184629","0.0-5.0-3.2-1.2-0.33","6980d9a70a7862a47c69046d","not_provided","desktop","0","0","0","","","","","","working_memory","","null","<div class=""fixation"">+</div>","null","","","","","","","","","","","","","","","","",""
"html-keyboard-response","179","184834","0.0-5.0-3.2-1.2-1.33","6980d9a70a7862a47c69046d","not_provided","desktop","0","0","0","","","","","","working_memory","","null","<img class='a' src=images/squares/black.png><img class='f' src=images/squares/brown.png><img class='i' src=images/squares/magenta.png><img class='j' src=images/squares/yellow.png><div class=""fixation"">+</div>","null","","","memory","practice","33","4","","","","","","","","","","",""
"html-keyboard-response","180","185740","0.0-5.0-3.2-1.2-2.33","6980d9a70a7862a47c69046d","not_provided","desktop","0","0","0","","","","","","working_memory","","null","<div class=""fixation"">+</div>","null","","","","","","","","","","","","","","","","",""
"html-keyboard-response","181","186796","0.0-5.0-3.2-1.2-3.33","6980d9a70a7862a47c69046d","not_provided","desktop","0","0","0","","","","","","working_memory","","1054","<img class='f' src=images/squares/blue.png><div class=""fixation"">+</div>","k","","","test","practice","33","4","s","false","","","","","","","","",""
"html-keyboard-response","182","187300","0.0-5.0-3.2-1.2-4.33","6980d9a70a7862a47c69046d","not_provided","desktop","0","0","0","","","","","","working_memory","","null","<div class=""fixation"">Incorrect</div>","null","","","","","","","","","","","","","","","","",""
"html-keyboard-response","183","188306","0.0-5.0-3.2-1.2-0.34","6980d9a70a7862a47c69046d","not_provided","desktop","0","0","0","","","","","","working_memory","","null","<div class=""fixation"">+</div>","null","","","","","","","","","","","","","","","","",""
"html-keyboard-response","184","188521","0.0-5.0-3.2-1.2-1.34","6980d9a70a7862a47c69046d","not_provided","desktop","0","0","0","","","","","","working_memory","","null","<img class='upper2' src=images/squares/black.png><div class=""fixation"">+</div>","null","","","memory","practice","34","1","","","","","","","","","","",""
"html-keyboard-response","185","189440","0.0-5.0-3.2-1.2-2.34","6980d9a70a7862a47c69046d","not_provided","desktop","0","0","0","","","","","","working_memory","","null","<div class=""fixation"">+</div>","null","","","","","","","","","","","","","","","","",""
"html-keyboard-response","186","191627","0.0-5.0-3.2-1.2-3.34","6980d9a70a7862a47c69046d","not_provided","desktop","0","0","0","","","","","","working_memory","","2185","<img class='upper2' src=images/squares/brown.png><div class=""fixation"">+</div>","k","","","test","practice","34","1","s","false","","","","","","","","",""
"html-keyboard-response","187","192142","0.0-5.0-3.2-1.2-4.34","6980d9a70a7862a47c69046d","not_provided","desktop","0","0","0","","","","","","working_memory","","null","<div class=""fixation"">Incorrect</div>","null","","","","","","","","","","","","","","","","",""
"html-keyboard-response","188","193158","0.0-5.0-3.2-1.2-0.35","6980d9a70a7862a47c69046d","not_provided","desktop","0","0","0","","","","","","working_memory","","null","<div class=""fixation"">+</div>","null","","","","","","","","","","","","","","","","",""
"html-keyboard-response","189","193365","0.0-5.0-3.2-1.2-1.35","6980d9a70a7862a47c69046d","not_provided","desktop","0","0","0","","","","","","working_memory","","null","<img class='a' src=images/squares/orange.png><img class='c' src=images/squares/yellow.png><img class='f' src=images/squares/green.png><img class='d' src=images/squares/black.png><img class='h' src=images/squares/brown.png><img class='g' src=images/squares/blue.png><img class='l' src=images/squares/cyan.png><img class='j' src=images/squares/magenta.png><div class=""fixation"">+</div>","null","","","memory","practice","35","8","","","","","","","","","","",""
"html-keyboard-response","190","194270","0.0-5.0-3.2-1.2-2.35","6980d9a70a7862a47c69046d","not_provided","desktop","0","0","0","","","","","","working_memory","","null","<div class=""fixation"">+</div>","null","","","","","","","","","","","","","","","","",""
"html-keyboard-response","191","194899","0.0-5.0-3.2-1.2-3.35","6980d9a70a7862a47c69046d","not_provided","desktop","0","0","0","","","","","","working_memory","","627","<img class='j' src=images/squares/magenta.png><div class=""fixation"">+</div>","s","","","test","practice","35","8","k","false","","","","","","","","",""
"html-keyboard-response","192","195411","0.0-5.0-3.2-1.2-4.35","6980d9a70a7862a47c69046d","not_provided","desktop","0","0","0","","","","","","working_memory","","null","<div class=""fixation"">Incorrect</div>","null","","","","","","","","","","","","","","","","",""
"html-keyboard-response","193","196419","0.0-5.0-3.2-1.2-0.36","6980d9a70a7862a47c69046d","not_provided","desktop","0","0","0","","","","","","working_memory","","null","<div class=""fixation"">+</div>","null","","","","","","","","","","","","","","","","",""
"html-keyboard-response","194","196622","0.0-5.0-3.2-1.2-1.36","6980d9a70a7862a47c69046d","not_provided","desktop","0","0","0","","","","","","working_memory","","null","<img class='c' src=images/squares/orange.png><img class='b' src=images/squares/brown.png><img class='d' src=images/squares/green.png><img class='f' src=images/squares/magenta.png><img class='i' src=images/squares/yellow.png><img class='h' src=images/squares/blue.png><img class='l' src=images/squares/cyan.png><img class='k' src=images/squares/red.png><div class=""fixation"">+</div>","null","","","memory","practice","36","8","","","","","","","","","","",""
"html-keyboard-response","195","197529","0.0-5.0-3.2-1.2-2.36","6980d9a70a7862a47c69046d","not_provided","desktop","0","0","0","","","","","","working_memory","","null","<div class=""fixation"">+</div>","null","","","","","","","","","","","","","","","","",""
"html-keyboard-response","196","198560","0.0-5.0-3.2-1.2-3.36","6980d9a70a7862a47c69046d","not_provided","desktop","0","0","0","","","","","","working_memory","","1029","<img class='c' src=images/squares/orange.png><div class=""fixation"">+</div>","k","","","test","practice","36","8","k","true","","","","","","","","",""
"html-keyboard-response","197","199071","0.0-5.0-3.2-1.2-4.36","6980d9a70a7862a47c69046d","not_provided","desktop","0","0","0","","","","","","working_memory","","null","<div class=""fixation"">Correct</div>","null","","","","","","","","","","","","","","","","",""
"html-keyboard-response","198","200077","0.0-5.0-3.2-1.2-0.37","6980d9a70a7862a47c69046d","not_provided","desktop","0","0","0","","","","","","working_memory","","null","<div class=""fixation"">+</div>","null","","","","","","","","","","","","","","","","",""
"html-keyboard-response","199","200295","0.0-5.0-3.2-1.2-1.37","6980d9a70a7862a47c69046d","not_provided","desktop","0","0","0","","","","","","working_memory","","null","<img class='a' src=images/squares/brown.png><img class='e' src=images/squares/blue.png><img class='h' src=images/squares/cyan.png><img class='j' src=images/squares/orange.png><div class=""fixation"">+</div>","null","","","memory","practice","37","4","","","","","","","","","","",""
"html-keyboard-response","200","201204","0.0-5.0-3.2-1.2-2.37","6980d9a70a7862a47c69046d","not_provided","desktop","0","0","0","","","","","","working_memory","","null","<div class=""fixation"">+</div>","null","","","","","","","","","","","","","","","","",""
"html-keyboard-response","201","202992","0.0-5.0-3.2-1.2-3.37","6980d9a70a7862a47c69046d","not_provided","desktop","0","0","0","","","","","","working_memory","","1787","<img class='a' src=images/squares/brown.png><div class=""fixation"">+</div>","k","","","test","practice","37","4","k","true","","","","","","","","",""
"html-keyboard-response","202","203496","0.0-5.0-3.2-1.2-4.37","6980d9a70a7862a47c69046d","not_provided","desktop","0","0","0","","","","","","working_memory","","null","<div class=""fixation"">Correct</div>","null","","","","","","","","","","","","","","","","",""
"html-keyboard-response","203","204513","0.0-5.0-3.2-1.2-0.38","6980d9a70a7862a47c69046d","not_provided","desktop","0","0","0","","","","","","working_memory","","null","<div class=""fixation"">+</div>","null","","","","","","","","","","","","","","","","",""
"html-keyboard-response","204","204720","0.0-5.0-3.2-1.2-1.38","6980d9a70a7862a47c69046d","not_provided","desktop","0","0","0","","","","","","working_memory","","null","<img class='lower3' src=images/squares/red.png><div class=""fixation"">+</div>","null","","","memory","practice","38","1","","","","","","","","","","",""
"html-keyboard-response","205","205633","0.0-5.0-3.2-1.2-2.38","6980d9a70a7862a47c69046d","not_provided","desktop","0","0","0","","","","","","working_memory","","null","<div class=""fixation"">+</div>","null","","","","","","","","","","","","","","","","",""
"html-keyboard-response","206","206870","0.0-5.0-3.2-1.2-3.38","6980d9a70a7862a47c69046d","not_provided","desktop","0","0","0","","","","","","working_memory","","1236","<img class='lower3' src=images/squares/red.png><div class=""fixation"">+</div>","k","","","test","practice","38","1","k","true","","","","","","","","",""
"html-keyboard-response","207","207371","0.0-5.0-3.2-1.2-4.38","6980d9a70a7862a47c69046d","not_provided","desktop","0","0","0","","","","","","working_memory","","null","<div class=""fixation"">Correct</div>","null","","","","","","","","","","","","","","","","",""
"html-keyboard-response","208","208377","0.0-5.0-3.2-1.2-0.39","6980d9a70a7862a47c69046d","not_provided","desktop","0","0","0","","","","","","working_memory","","null","<div class=""fixation"">+</div>","null","","","","","","","","","","","","","","","","",""
"html-keyboard-response","209","208593","0.0-5.0-3.2-1.2-1.39","6980d9a70a7862a47c69046d","not_provided","desktop","0","0","0","","","","","","working_memory","","null","<img class='b' src=images/squares/black.png><img class='d' src=images/squares/magenta.png><img class='h' src=images/squares/blue.png><img class='j' src=images/squares/brown.png><div class=""fixation"">+</div>","null","","","memory","practice","39","4","","","","","","","","","","",""
"html-keyboard-response","210","209506","0.0-5.0-3.2-1.2-2.39","6980d9a70a7862a47c69046d","not_provided","desktop","0","0","0","","","","","","working_memory","","null","<div class=""fixation"">+</div>","null","","","","","","","","","","","","","","","","",""
"html-keyboard-response","211","210456","0.0-5.0-3.2-1.2-3.39","6980d9a70a7862a47c69046d","not_provided","desktop","0","0","0","","","","","","working_memory","","948","<img class='j' src=images/squares/brown.png><div class=""fixation"">+</div>","k","","","test","practice","39","4","k","true","","","","","","","","",""
"html-keyboard-response","212","210961","0.0-5.0-3.2-1.2-4.39","6980d9a70a7862a47c69046d","not_provided","desktop","0","0","0","","","","","","working_memory","","null","<div class=""fixation"">Correct</div>","null","","","","","","","","","","","","","","","","",""
"html-keyboard-response","213","211973","0.0-5.0-3.2-1.2-0.40","6980d9a70a7862a47c69046d","not_provided","desktop","0","0","0","","","","","","working_memory","","null","<div class=""fixation"">+</div>","null","","","","","","","","","","","","","","","","",""
"html-keyboard-response","214","212183","0.0-5.0-3.2-1.2-1.40","6980d9a70a7862a47c69046d","not_provided","desktop","0","0","0","","","","","","working_memory","","null","<img class='c' src=images/squares/green.png><img class='b' src=images/squares/orange.png><img class='d' src=images/squares/cyan.png><img class='f' src=images/squares/blue.png><img class='h' src=images/squares/brown.png><img class='g' src=images/squares/yellow.png><img class='l' src=images/squares/magenta.png><img class='k' src=images/squares/red.png><div class=""fixation"">+</div>","null","","","memory","practice","40","8","","","","","","","","","","",""
"html-keyboard-response","215","213099","0.0-5.0-3.2-1.2-2.40","6980d9a70a7862a47c69046d","not_provided","desktop","0","0","0","","","","","","working_memory","","null","<div class=""fixation"">+</div>","null","","","","","","","","","","","","","","","","",""
"html-keyboard-response","216","214443","0.0-5.0-3.2-1.2-3.40","6980d9a70a7862a47c69046d","not_provided","desktop","0","0","0","","","","","","working_memory","","1342","<img class='f' src=images/squares/blue.png><div class=""fixation"">+</div>","s","","","test","practice","40","8","k","false","","","","","","","","",""
"html-keyboard-response","217","214951","0.0-5.0-3.2-1.2-4.40","6980d9a70a7862a47c69046d","not_provided","desktop","0","0","0","","","","","","working_memory","","null","<div class=""fixation"">Incorrect</div>","null","","","","","","","","","","","","","","","","",""
"html-keyboard-response","218","215964","0.0-5.0-3.2-1.2-0.41","6980d9a70a7862a47c69046d","not_provided","desktop","0","0","0","","","","","","working_memory","","null","<div class=""fixation"">+</div>","null","","","","","","","","","","","","","","","","",""
"html-keyboard-response","219","216173","0.0-5.0-3.2-1.2-1.41","6980d9a70a7862a47c69046d","not_provided","desktop","0","0","0","","","","","","working_memory","","null","<img class='a' src=images/squares/cyan.png><img class='d' src=images/squares/magenta.png><img class='h' src=images/squares/red.png><img class='j' src=images/squares/black.png><div class=""fixation"">+</div>","null","","","memory","practice","41","4","","","","","","","","","","",""
"html-keyboard-response","220","217075","0.0-5.0-3.2-1.2-2.41","6980d9a70a7862a47c69046d","not_provided","desktop","0","0","0","","","","","","working_memory","","null","<div class=""fixation"">+</div>","null","","","","","","","","","","","","","","","","",""
"html-keyboard-response","221","218836","0.0-5.0-3.2-1.2-3.41","6980d9a70a7862a47c69046d","not_provided","desktop","0","0","0","","","","","","working_memory","","1759","<img class='a' src=images/squares/orange.png><div class=""fixation"">+</div>","k","","","test","practice","41","4","s","false","","","","","","","","",""
"html-keyboard-response","222","219342","0.0-5.0-3.2-1.2-4.41","6980d9a70a7862a47c69046d","not_provided","desktop","0","0","0","","","","","","working_memory","","null","<div class=""fixation"">Incorrect</div>","null","","","","","","","","","","","","","","","","",""
"html-keyboard-response","223","220353","0.0-5.0-3.2-1.2-0.42","6980d9a70a7862a47c69046d","not_provided","desktop","0","0","0","","","","","","working_memory","","null","<div class=""fixation"">+</div>","null","","","","","","","","","","","","","","","","",""
"html-keyboard-response","224","220564","0.0-5.0-3.2-1.2-1.42","6980d9a70a7862a47c69046d","not_provided","desktop","0","0","0","","","","","","working_memory","","null","<img class='a' src=images/squares/magenta.png><img class='c' src=images/squares/blue.png><img class='f' src=images/squares/cyan.png><img class='e' src=images/squares/green.png><img class='h' src=images/squares/black.png><img class='g' src=images/squares/brown.png><img class='k' src=images/squares/yellow.png><img class='j' src=images/squares/red.png><div class=""fixation"">+</div>","null","","","memory","practice","42","8","","","","","","","","","","",""
"html-keyboard-response","225","221480","0.0-5.0-3.2-1.2-2.42","6980d9a70a7862a47c69046d","not_provided","desktop","0","0","0","","","","","","working_memory","","null","<div class=""fixation"">+</div>","null","","","","","","","","","","","","","","","","",""
"html-keyboard-response","226","221892","0.0-5.0-3.2-1.2-3.42","6980d9a70a7862a47c69046d","not_provided","desktop","0","0","0","","","","","","working_memory","","411","<img class='a' src=images/squares/orange.png><div class=""fixation"">+</div>","s","","","test","practice","42","8","s","true","","","","","","","","",""
"html-keyboard-response","227","222408","0.0-5.0-3.2-1.2-4.42","6980d9a70a7862a47c69046d","not_provided","desktop","0","0","0","","","","","","working_memory","","null","<div class=""fixation"">Correct</div>","null","","","","","","","","","","","","","","","","",""
"html-keyboard-response","228","223413","0.0-5.0-3.2-1.2-0.43","6980d9a70a7862a47c69046d","not_provided","desktop","0","0","0","","","","","","working_memory","","null","<div class=""fixation"">+</div>","null","","","","","","","","","","","","","","","","",""
"html-keyboard-response","229","223622","0.0-5.0-3.2-1.2-1.43","6980d9a70a7862a47c69046d","not_provided","desktop","0","0","0","","","","","","working_memory","","null","<img class='c' src=images/squares/magenta.png><img class='d' src=images/squares/cyan.png><img class='g' src=images/squares/green.png><img class='j' src=images/squares/black.png><div class=""fixation"">+</div>","null","","","memory","practice","43","4","","","","","","","","","","",""
"html-keyboard-response","230","224530","0.0-5.0-3.2-1.2-2.43","6980d9a70a7862a47c69046d","not_provided","desktop","0","0","0","","","","","","working_memory","","null","<div class=""fixation"">+</div>","null","","","","","","","","","","","","","","","","",""
"html-keyboard-response","231","225796","0.0-5.0-3.2-1.2-3.43","6980d9a70a7862a47c69046d","not_provided","desktop","0","0","0","","","","","","working_memory","","1265","<img class='c' src=images/squares/brown.png><div class=""fixation"">+</div>","s","","","test","practice","43","4","s","true","","","","","","","","",""
"html-keyboard-response","232","226306","0.0-5.0-3.2-1.2-4.43","6980d9a70a7862a47c69046d","not_provided","desktop","0","0","0","","","","","","working_memory","","null","<div class=""fixation"">Correct</div>","null","","","","","","","","","","","","","","","","",""
"html-keyboard-response","233","227310","0.0-5.0-3.2-1.2-0.44","6980d9a70a7862a47c69046d","not_provided","desktop","0","0","0","","","","","","working_memory","","null","<div class=""fixation"">+</div>","null","","","","","","","","","","","","","","","","",""
"html-keyboard-response","234","227512","0.0-5.0-3.2-1.2-1.44","6980d9a70a7862a47c69046d","not_provided","desktop","0","0","0","","","","","","working_memory","","null","<img class='a' src=images/squares/black.png><img class='c' src=images/squares/orange.png><img class='e' src=images/squares/red.png><img class='f' src=images/squares/blue.png><img class='i' src=images/squares/brown.png><img class='h' src=images/squares/cyan.png><img class='l' src=images/squares/magenta.png><img class='k' src=images/squares/yellow.png><div class=""fixation"">+</div>","null","","","memory","practice","44","8","","","","","","","","","","",""
"html-keyboard-response","235","228416","0.0-5.0-3.2-1.2-2.44","6980d9a70a7862a47c69046d","not_provided","desktop","0","0","0","","","","","","working_memory","","null","<div class=""fixation"">+</div>","null","","","","","","","","","","","","","","","","",""
"html-keyboard-response","236","231368","0.0-5.0-3.2-1.2-3.44","6980d9a70a7862a47c69046d","not_provided","desktop","0","0","0","","","","","","working_memory","","2951","<img class='h' src=images/squares/green.png><div class=""fixation"">+</div>","k","","","test","practice","44","8","s","false","","","","","","","","",""
"html-keyboard-response","237","231880","0.0-5.0-3.2-1.2-4.44","6980d9a70a7862a47c69046d","not_provided","desktop","0","0","0","","","","","","working_memory","","null","<div class=""fixation"">Incorrect</div>","null","","","","","","","","","","","","","","","","",""
"html-keyboard-response","238","233206","0.0-5.0-3.2-2.2-0.2","6980d9a70a7862a47c69046d","not_provided","desktop","0","0","0","","","","","","working_memory","","1323","<p>Sorry. You made too many mistakes.<br>Let's do the practice session once again.<br><br><b>Press any key to continue</b></p>"," ","","","","","","","","","","","","","","","","",""
"html-keyboard-response","239","233771","0.0-5.0-3.3-0.3","6980d9a70a7862a47c69046d","not_provided","desktop","0","0","0","","","","","","working_memory","","562","<p>We will now start some practice trials.<br><b>The practice trials will also include some trials in which you will need to remember only one square to make sure you understood the instructions.</b><br>You may already want to be ready with your fingers on '<b>s</b>' and '<b>k</b>'.<br><img class=""wm-example-img"" src=""images/examples/keyboard.png""><br><b style=""font-size:1.2em;"">&lsquo;K&rsquo; = SAME &nbsp;&nbsp;&nbsp; &lsquo;S&rsquo; = DIFFERENT</b><br><br><u>Please try to be as accurate as possible.</u><br><br><b>Press any key to begin</b></p>"," ","","","","","","","","","","","","","","","","",""
"html-keyboard-response","240","235779","0.0-5.0-3.3-1.3-0.45","6980d9a70a7862a47c69046d","not_provided","desktop","0","0","0","","","","","","working_memory","","null","<div class=""fixation"">+</div>","null","","","","","","","","","","","","","","","","",""
"html-keyboard-response","241","235994","0.0-5.0-3.3-1.3-1.45","6980d9a70a7862a47c69046d","not_provided","desktop","0","0","0","","","","","","working_memory","","null","<img class='b' src=images/squares/orange.png><img class='a' src=images/squares/brown.png><img class='d' src=images/squares/blue.png><img class='f' src=images/squares/yellow.png><img class='h' src=images/squares/red.png><img class='g' src=images/squares/black.png><img class='l' src=images/squares/cyan.png><img class='k' src=images/squares/magenta.png><div class=""fixation"">+</div>","null","","","memory","practice","45","8","","","","","","","","","","",""
"html-keyboard-response","242","236906","0.0-5.0-3.3-1.3-2.45","6980d9a70a7862a47c69046d","not_provided","desktop","0","0","0","","","","","","working_memory","","null","<div class=""fixation"">+</div>","null","","","","","","","","","","","","","","","","",""
"html-keyboard-response","243","237363","0.0-5.0-3.3-1.3-3.45","6980d9a70a7862a47c69046d","not_provided","desktop","0","0","0","","","","","","working_memory","","454","<img class='h' src=images/squares/red.png><div class=""fixation"">+</div>","s","","","test","practice","45","8","k","false","","","","","","","","",""
"html-keyboard-response","244","237878","0.0-5.0-3.3-1.3-4.45","6980d9a70a7862a47c69046d","not_provided","desktop","0","0","0","","","","","","working_memory","","null","<div class=""fixation"">Incorrect</div>","null","","","","","","","","","","","","","","","","",""
"html-keyboard-response","245","238894","0.0-5.0-3.3-1.3-0.46","6980d9a70a7862a47c69046d","not_provided","desktop","0","0","0","","","","","","working_memory","","null","<div class=""fixation"">+</div>","null","","","","","","","","","","","","","","","","",""
"html-keyboard-response","246","239099","0.0-5.0-3.3-1.3-1.46","6980d9a70a7862a47c69046d","not_provided","desktop","0","0","0","","","","","","working_memory","","null","<img class='lower2' src=images/squares/cyan.png><div class=""fixation"">+</div>","null","","","memory","practice","46","1","","","","","","","","","","",""
"html-keyboard-response","247","240006","0.0-5.0-3.3-1.3-2.46","6980d9a70a7862a47c69046d","not_provided","desktop","0","0","0","","","","","","working_memory","","null","<div class=""fixation"">+</div>","null","","","","","","","","","","","","","","","","",""
"html-keyboard-response","248","242138","0.0-5.0-3.3-1.3-3.46","6980d9a70a7862a47c69046d","not_provided","desktop","0","0","0","","","","","","working_memory","","2130","<img class='lower2' src=images/squares/blue.png><div class=""fixation"">+</div>","s","","","test","practice","46","1","s","true","","","","","","","","",""
"html-keyboard-response","249","242652","0.0-5.0-3.3-1.3-4.46","6980d9a70a7862a47c69046d","not_provided","desktop","0","0","0","","","","","","working_memory","","null","<div class=""fixation"">Correct</div>","null","","","","","","","","","","","","","","","","",""
"html-keyboard-response","250","243667","0.0-5.0-3.3-1.3-0.47","6980d9a70a7862a47c69046d","not_provided","desktop","0","0","0","","","","","","working_memory","","null","<div class=""fixation"">+</div>","null","","","","","","","","","","","","","","","","",""
"html-keyboard-response","251","243875","0.0-5.0-3.3-1.3-1.47","6980d9a70a7862a47c69046d","not_provided","desktop","0","0","0","","","","","","working_memory","","null","<img class='c' src=images/squares/brown.png><img class='e' src=images/squares/black.png><img class='h' src=images/squares/magenta.png><img class='l' src=images/squares/green.png><div class=""fixation"">+</div>","null","","","memory","practice","47","4","","","","","","","","","","",""
"html-keyboard-response","252","244779","0.0-5.0-3.3-1.3-2.47","6980d9a70a7862a47c69046d","not_provided","desktop","0","0","0","","","","","","working_memory","","null","<div class=""fixation"">+</div>","null","","","","","","","","","","","","","","","","",""
"html-keyboard-response","253","246364","0.0-5.0-3.3-1.3-3.47","6980d9a70a7862a47c69046d","not_provided","desktop","0","0","0","","","","","","working_memory","","1584","<img class='h' src=images/squares/yellow.png><div class=""fixation"">+</div>","s","","","test","practice","47","4","s","true","","","","","","","","",""
"html-keyboard-response","254","246878","0.0-5.0-3.3-1.3-4.47","6980d9a70a7862a47c69046d","not_provided","desktop","0","0","0","","","","","","working_memory","","null","<div class=""fixation"">Correct</div>","null","","","","","","","","","","","","","","","","",""
"html-keyboard-response","255","247894","0.0-5.0-3.3-1.3-0.48","6980d9a70a7862a47c69046d","not_provided","desktop","0","0","0","","","","","","working_memory","","null","<div class=""fixation"">+</div>","null","","","","","","","","","","","","","","","","",""
"html-keyboard-response","256","248099","0.0-5.0-3.3-1.3-1.48","6980d9a70a7862a47c69046d","not_provided","desktop","0","0","0","","","","","","working_memory","","null","<img class='c' src=images/squares/brown.png><img class='a' src=images/squares/magenta.png><img class='f' src=images/squares/green.png><img class='d' src=images/squares/yellow.png><img class='h' src=images/squares/black.png><img class='i' src=images/squares/red.png><img class='l' src=images/squares/cyan.png><img class='k' src=images/squares/orange.png><div class=""fixation"">+</div>","null","","","memory","practice","48","8","","","","","","","","","","",""
"html-keyboard-response","257","249005","0.0-5.0-3.3-1.3-2.48","6980d9a70a7862a47c69046d","not_provided","desktop","0","0","0","","","","","","working_memory","","null","<div class=""fixation"">+</div>","null","","","","","","","","","","","","","","","","",""
"html-keyboard-response","258","249866","0.0-5.0-3.3-1.3-3.48","6980d9a70a7862a47c69046d","not_provided","desktop","0","0","0","","","","","","working_memory","","859","<img class='h' src=images/squares/black.png><div class=""fixation"">+</div>","s","","","test","practice","48","8","k","false","","","","","","","","",""
"html-keyboard-response","259","250368","0.0-5.0-3.3-1.3-4.48","6980d9a70a7862a47c69046d","not_provided","desktop","0","0","0","","","","","","working_memory","","null","<div class=""fixation"">Incorrect</div>","null","","","","","","","","","","","","","","","","",""
"html-keyboard-response","260","251382","0.0-5.0-3.3-1.3-0.49","6980d9a70a7862a47c69046d","not_provided","desktop","0","0","0","","","","","","working_memory","","null","<div class=""fixation"">+</div>","null","","","","","","","","","","","","","","","","",""
"html-keyboard-response","261","251587","0.0-5.0-3.3-1.3-1.49","6980d9a70a7862a47c69046d","not_provided","desktop","0","0","0","","","","","","working_memory","","null","<img class='a' src=images/squares/blue.png><img class='e' src=images/squares/yellow.png><img class='g' src=images/squares/cyan.png><img class='l' src=images/squares/magenta.png><div class=""fixation"">+</div>","null","","","memory","practice","49","4","","","","","","","","","","",""
"html-keyboard-response","262","252503","0.0-5.0-3.3-1.3-2.49","6980d9a70a7862a47c69046d","not_provided","desktop","0","0","0","","","","","","working_memory","","null","<div class=""fixation"">+</div>","null","","","","","","","","","","","","","","","","",""
"html-keyboard-response","263","253174","0.0-5.0-3.3-1.3-3.49","6980d9a70a7862a47c69046d","not_provided","desktop","0","0","0","","","","","","working_memory","","669","<img class='l' src=images/squares/magenta.png><div class=""fixation"">+</div>","s","","","test","practice","49","4","k","false","","","","","","","","",""
"html-keyboard-response","264","253687","0.0-5.0-3.3-1.3-4.49","6980d9a70a7862a47c69046d","not_provided","desktop","0","0","0","","","","","","working_memory","","null","<div class=""fixation"">Incorrect</div>","null","","","","","","","","","","","","","","","","",""
"html-keyboard-response","265","254702","0.0-5.0-3.3-1.3-0.50","6980d9a70a7862a47c69046d","not_provided","desktop","0","0","0","","","","","","working_memory","","null","<div class=""fixation"">+</div>","null","","","","","","","","","","","","","","","","",""
"html-keyboard-response","266","254912","0.0-5.0-3.3-1.3-1.50","6980d9a70a7862a47c69046d","not_provided","desktop","0","0","0","","","","","","working_memory","","null","<img class='b' src=images/squares/red.png><img class='c' src=images/squares/orange.png><img class='f' src=images/squares/yellow.png><img class='d' src=images/squares/blue.png><img class='i' src=images/squares/brown.png><img class='g' src=images/squares/cyan.png><img class='j' src=images/squares/green.png><img class='l' src=images/squares/black.png><div class=""fixation"">+</div>","null","","","memory","practice","50","8","","","","","","","","","","",""
"html-keyboard-response","267","255814","0.0-5.0-3.3-1.3-2.50","6980d9a70a7862a47c69046d","not_provided","desktop","0","0","0","","","","","","working_memory","","null","<div class=""fixation"">+</div>","null","","","","","","","","","","","","","","","","",""
"html-keyboard-response","268","256551","0.0-5.0-3.3-1.3-3.50","6980d9a70a7862a47c69046d","not_provided","desktop","0","0","0","","","","","","working_memory","","735","<img class='l' src=images/squares/black.png><div class=""fixation"">+</div>","s","","","test","practice","50","8","k","false","","","","","","","","",""
"html-keyboard-response","269","257062","0.0-5.0-3.3-1.3-4.50","6980d9a70a7862a47c69046d","not_provided","desktop","0","0","0","","","","","","working_memory","","null","<div class=""fixation"">Incorrect</div>","null","","","","","","","","","","","","","","","","",""
"html-keyboard-response","270","258066","0.0-5.0-3.3-1.3-0.51","6980d9a70a7862a47c69046d","not_provided","desktop","0","0","0","","","","","","working_memory","","null","<div class=""fixation"">+</div>","null","","","","","","","","","","","","","","","","",""
"html-keyboard-response","271","258282","0.0-5.0-3.3-1.3-1.51","6980d9a70a7862a47c69046d","not_provided","desktop","0","0","0","","","","","","working_memory","","null","<img class='upper3' src=images/squares/black.png><div class=""fixation"">+</div>","null","","","memory","practice","51","1","","","","","","","","","","",""
"html-keyboard-response","272","259195","0.0-5.0-3.3-1.3-2.51","6980d9a70a7862a47c69046d","not_provided","desktop","0","0","0","","","","","","working_memory","","null","<div class=""fixation"">+</div>","null","","","","","","","","","","","","","","","","",""
"html-keyboard-response","273","260099","0.0-5.0-3.3-1.3-3.51","6980d9a70a7862a47c69046d","not_provided","desktop","0","0","0","","","","","","working_memory","","903","<img class='upper3' src=images/squares/black.png><div class=""fixation"">+</div>","k","","","test","practice","51","1","k","true","","","","","","","","",""
"html-keyboard-response","274","260605","0.0-5.0-3.3-1.3-4.51","6980d9a70a7862a47c69046d","not_provided","desktop","0","0","0","","","","","","working_memory","","null","<div class=""fixation"">Correct</div>","null","","","","","","","","","","","","","","","","",""
"html-keyboard-response","275","261620","0.0-5.0-3.3-1.3-0.52","6980d9a70a7862a47c69046d","not_provided","desktop","0","0","0","","","","","","working_memory","","null","<div class=""fixation"">+</div>","null","","","","","","","","","","","","","","","","",""
"html-keyboard-response","276","261824","0.0-5.0-3.3-1.3-1.52","6980d9a70a7862a47c69046d","not_provided","desktop","0","0","0","","","","","","working_memory","","null","<img class='c' src=images/squares/magenta.png><img class='b' src=images/squares/blue.png><img class='f' src=images/squares/yellow.png><img class='d' src=images/squares/orange.png><img class='g' src=images/squares/green.png><img class='h' src=images/squares/brown.png><img class='k' src=images/squares/red.png><img class='j' src=images/squares/cyan.png><div class=""fixation"">+</div>","null","","","memory","practice","52","8","","","","","","","","","","",""
"html-keyboard-response","277","262732","0.0-5.0-3.3-1.3-2.52","6980d9a70a7862a47c69046d","not_provided","desktop","0","0","0","","","","","","working_memory","","null","<div class=""fixation"">+</div>","null","","","","","","","","","","","","","","","","",""
"html-keyboard-response","278","263347","0.0-5.0-3.3-1.3-3.52","6980d9a70a7862a47c69046d","not_provided","desktop","0","0","0","","","","","","working_memory","","614","<img class='j' src=images/squares/cyan.png><div class=""fixation"">+</div>","k","","","test","practice","52","8","k","true","","","","","","","","",""
"html-keyboard-response","279","263860","0.0-5.0-3.3-1.3-4.52","6980d9a70a7862a47c69046d","not_provided","desktop","0","0","0","","","","","","working_memory","","null","<div class=""fixation"">Correct</div>","null","","","","","","","","","","","","","","","","",""
"html-keyboard-response","280","264875","0.0-5.0-3.3-1.3-0.53","6980d9a70a7862a47c69046d","not_provided","desktop","0","0","0","","","","","","working_memory","","null","<div class=""fixation"">+</div>","null","","","","","","","","","","","","","","","","",""
"html-keyboard-response","281","265081","0.0-5.0-3.3-1.3-1.53","6980d9a70a7862a47c69046d","not_provided","desktop","0","0","0","","","","","","working_memory","","null","<img class='a' src=images/squares/cyan.png><img class='f' src=images/squares/orange.png><img class='i' src=images/squares/blue.png><img class='k' src=images/squares/magenta.png><div class=""fixation"">+</div>","null","","","memory","practice","53","4","","","","","","","","","","",""
"html-keyboard-response","282","265988","0.0-5.0-3.3-1.3-2.53","6980d9a70a7862a47c69046d","not_provided","desktop","0","0","0","","","","","","working_memory","","null","<div class=""fixation"">+</div>","null","","","","","","","","","","","","","","","","",""
"html-keyboard-response","283","266765","0.0-5.0-3.3-1.3-3.53","6980d9a70a7862a47c69046d","not_provided","desktop","0","0","0","","","","","","working_memory","","776","<img class='k' src=images/squares/magenta.png><div class=""fixation"">+</div>","k","","","test","practice","53","4","k","true","","","","","","","","",""
"html-keyboard-response","284","267280","0.0-5.0-3.3-1.3-4.53","6980d9a70a7862a47c69046d","not_provided","desktop","0","0","0","","","","","","working_memory","","null","<div class=""fixation"">Correct</div>","null","","","","","","","","","","","","","","","","",""
"html-keyboard-response","285","268301","0.0-5.0-3.3-1.3-0.54","6980d9a70a7862a47c69046d","not_provided","desktop","0","0","0","","","","","","working_memory","","null","<div class=""fixation"">+</div>","null","","","","","","","","","","","","","","","","",""
"html-keyboard-response","286","268518","0.0-5.0-3.3-1.3-1.54","6980d9a70a7862a47c69046d","not_provided","desktop","0","0","0","","","","","","working_memory","","null","<img class='b' src=images/squares/cyan.png><img class='c' src=images/squares/orange.png><img class='d' src=images/squares/black.png><img class='e' src=images/squares/blue.png><img class='h' src=images/squares/magenta.png><img class='g' src=images/squares/green.png><img class='j' src=images/squares/red.png><img class='k' src=images/squares/yellow.png><div class=""fixation"">+</div>","null","","","memory","practice","54","8","","","","","","","","","","",""
"html-keyboard-response","287","269435","0.0-5.0-3.3-1.3-2.54","6980d9a70a7862a47c69046d","not_provided","desktop","0","0","0","","","","","","working_memory","","null","<div class=""fixation"">+</div>","null","","","","","","","","","","","","","","","","",""
"html-keyboard-response","288","272316","0.0-5.0-3.3-1.3-3.54","6980d9a70a7862a47c69046d","not_provided","desktop","0","0","0","","","","","","working_memory","","2880","<img class='h' src=images/squares/brown.png><div class=""fixation"">+</div>","k","","","test","practice","54","8","s","false","","","","","","","","",""
"html-keyboard-response","289","272829","0.0-5.0-3.3-1.3-4.54","6980d9a70a7862a47c69046d","not_provided","desktop","0","0","0","","","","","","working_memory","","null","<div class=""fixation"">Incorrect</div>","null","","","","","","","","","","","","","","","","",""
"html-keyboard-response","290","273845","0.0-5.0-3.3-1.3-0.55","6980d9a70a7862a47c69046d","not_provided","desktop","0","0","0","","","","","","working_memory","","null","<div class=""fixation"">+</div>","null","","","","","","","","","","","","","","","","",""
"html-keyboard-response","291","274048","0.0-5.0-3.3-1.3-1.55","6980d9a70a7862a47c69046d","not_provided","desktop","0","0","0","","","","","","working_memory","","null","<img class='a' src=images/squares/red.png><img class='b' src=images/squares/magenta.png><img class='f' src=images/squares/orange.png><img class='d' src=images/squares/yellow.png><img class='i' src=images/squares/brown.png><img class='g' src=images/squares/green.png><img class='l' src=images/squares/cyan.png><img class='j' src=images/squares/black.png><div class=""fixation"">+</div>","null","","","memory","practice","55","8","","","","","","","","","","",""
"html-keyboard-response","292","274957","0.0-5.0-3.3-1.3-2.55","6980d9a70a7862a47c69046d","not_provided","desktop","0","0","0","","","","","","working_memory","","null","<div class=""fixation"">+</div>","null","","","","","","","","","","","","","","","","",""
"html-keyboard-response","293","276453","0.0-5.0-3.3-1.3-3.55","6980d9a70a7862a47c69046d","not_provided","desktop","0","0","0","","","","","","working_memory","","1494","<img class='f' src=images/squares/blue.png><div class=""fixation"">+</div>","s","","","test","practice","55","8","s","true","","","","","","","","",""
"html-keyboard-response","294","276965","0.0-5.0-3.3-1.3-4.55","6980d9a70a7862a47c69046d","not_provided","desktop","0","0","0","","","","","","working_memory","","null","<div class=""fixation"">Correct</div>","null","","","","","","","","","","","","","","","","",""
"html-keyboard-response","295","277977","0.0-5.0-3.3-1.3-0.56","6980d9a70a7862a47c69046d","not_provided","desktop","0","0","0","","","","","","working_memory","","null","<div class=""fixation"">+</div>","null","","","","","","","","","","","","","","","","",""
"html-keyboard-response","296","278188","0.0-5.0-3.3-1.3-1.56","6980d9a70a7862a47c69046d","not_provided","desktop","0","0","0","","","","","","working_memory","","null","<img class='upper3' src=images/squares/cyan.png><div class=""fixation"">+</div>","null","","","memory","practice","56","1","","","","","","","","","","",""
"html-keyboard-response","297","279104","0.0-5.0-3.3-1.3-2.56","6980d9a70a7862a47c69046d","not_provided","desktop","0","0","0","","","","","","working_memory","","null","<div class=""fixation"">+</div>","null","","","","","","","","","","","","","","","","",""
"html-keyboard-response","298","280640","0.0-5.0-3.3-1.3-3.56","6980d9a70a7862a47c69046d","not_provided","desktop","0","0","0","","","","","","working_memory","","1534","<img class='upper3' src=images/squares/cyan.png><div class=""fixation"">+</div>","k","","","test","practice","56","1","k","true","","","","","","","","",""
"html-keyboard-response","299","281156","0.0-5.0-3.3-1.3-4.56","6980d9a70a7862a47c69046d","not_provided","desktop","0","0","0","","","","","","working_memory","","null","<div class=""fixation"">Correct</div>","null","","","","","","","","","","","","","","","","",""
"html-keyboard-response","300","282172","0.0-5.0-3.3-1.3-0.57","6980d9a70a7862a47c69046d","not_provided","desktop","0","0","0","","","","","","working_memory","","null","<div class=""fixation"">+</div>","null","","","","","","","","","","","","","","","","",""
"html-keyboard-response","301","282378","0.0-5.0-3.3-1.3-1.57","6980d9a70a7862a47c69046d","not_provided","desktop","0","0","0","","","","","","working_memory","","null","<img class='a' src=images/squares/black.png><img class='b' src=images/squares/green.png><img class='f' src=images/squares/magenta.png><img class='e' src=images/squares/orange.png><img class='h' src=images/squares/yellow.png><img class='i' src=images/squares/red.png><img class='l' src=images/squares/blue.png><img class='j' src=images/squares/cyan.png><div class=""fixation"">+</div>","null","","","memory","practice","57","8","","","","","","","","","","",""
"html-keyboard-response","302","283283","0.0-5.0-3.3-1.3-2.57","6980d9a70a7862a47c69046d","not_provided","desktop","0","0","0","","","","","","working_memory","","null","<div class=""fixation"">+</div>","null","","","","","","","","","","","","","","","","",""
"html-keyboard-response","303","284144","0.0-5.0-3.3-1.3-3.57","6980d9a70a7862a47c69046d","not_provided","desktop","0","0","0","","","","","","working_memory","","859","<img class='h' src=images/squares/yellow.png><div class=""fixation"">+</div>","k","","","test","practice","57","8","k","true","","","","","","","","",""
"html-keyboard-response","304","284647","0.0-5.0-3.3-1.3-4.57","6980d9a70a7862a47c69046d","not_provided","desktop","0","0","0","","","","","","working_memory","","null","<div class=""fixation"">Correct</div>","null","","","","","","","","","","","","","","","","",""
"html-keyboard-response","305","285663","0.0-5.0-3.3-1.3-0.58","6980d9a70a7862a47c69046d","not_provided","desktop","0","0","0","","","","","","working_memory","","null","<div class=""fixation"">+</div>","null","","","","","","","","","","","","","","","","",""
