"trial_type","trial_index","time_elapsed","internal_node_id","subject_id","study_id","device_type","blur_count","fullscreen_exit_count","failed_attention_checks","success","timeout","failed_images","failed_audio","failed_video","phase","value","rt","stimulus","response","view_history","question_order","trial_name","block_type","trial_num","set_size","correct_response","accuracy","mapping","condition","prompt","flipped","attention","expected_answer","category","question_index","task"
"pavlovia","0","1295","0.0-0.0","69e913482ae5864d44e6387c","not_provided","desktop","0","0","0","","","","","","","","","","","","","","","","","","","","","","","","","","",""
"preload","1","1623","0.0-2.0","69e913482ae5864d44e6387c","not_provided","desktop","0","0","0","true","false","[]","[]","[]","","","","","","","","","","","","","","","","","","","","","",""
"html-keyboard-response","2","8936","0.0-3.0-0.0","69e913482ae5864d44e6387c","not_provided","desktop","0","0","0","","","","","","captcha","","","","","","","","","","","","","","","","","","","","",""
"fullscreen","3","13835","0.0-4.0","69e913482ae5864d44e6387c","not_provided","desktop","0","0","0","true","","","","","setup","","","","","","","","","","","","","","","","","","","","",""
"call-function","4","13836","0.0-5.0-0.0","69e913482ae5864d44e6387c","not_provided","desktop","0","0","0","","","","","","working_memory","","","","","","","","","","","","","","","","","","","","",""
"html-keyboard-response","5","33179","0.0-5.0-1.0","69e913482ae5864d44e6387c","not_provided","desktop","0","0","0","","","","","","working_memory","","19342","<div style=""text-align:center;font-family:sans-serif;""><p>Welcome to the luck game experiment!</p><p>This two-day experiment takes part in a study aimed at developing better clinical treatments.</p><p>We appreciate your participation and require your full concentration.</p><br><p>This is a two-day study. Payment (£6/hour) is only given upon completing both parts today and tomorrow.</p><p>You must finish the second part for compensation. After today, you'll receive an invitation for tomorrow's session.</p><p>Please ensure you can attend both sessions before proceeding. Otherwise, you may exit now.</p><p>If you have any questions, please contact us via prolific.</p><br><p>Please stay attentive and in fullscreen mode to ensure payment.</p><p>Thank you for participating!</p><br><p id=""continue-prompt"" style=""visibility:hidden;""><b>Press any key to continue.</b></p></div>"," ","","","","","","","","","","","","","","","","",""
"instructions","6","72364","0.0-5.0-2.0-0.0","69e913482ae5864d44e6387c","not_provided","desktop","0","0","0","","","","","","working_memory","","39185","","","[{""page_index"":0,""viewing_time"":1499},{""page_index"":1,""viewing_time"":1218},{""page_index"":2,""viewing_time"":5690},{""page_index"":3,""viewing_time"":2230},{""page_index"":4,""viewing_time"":5110},{""page_index"":5,""viewing_time"":6041},{""page_index"":6,""viewing_time"":7329},{""page_index"":7,""viewing_time"":4705},{""page_index"":8,""viewing_time"":5364}]","","","","","","","","","","","","","","","",""
"survey-multi-choice","7","133105","0.0-5.0-2.0-1.0","69e913482ae5864d44e6387c","not_provided","desktop","0","0","0","","","","","","working_memory","","60739","","{""set_size"":""2 or 4"",""steps"":""True"",""choose_square"":""Press the 's' or 'k' key."",""remember"":""The colors and locations of the 'memory' squares"",""task"":""To tell if the 'test' square is in the same color as the square previously appearing in this location""}","","[0,1,2,3,4]","test_squares_quiz","","","","","","","","","","","","","",""
"html-button-response","8","136119","0.0-5.0-2.0-2.0-0.0","69e913482ae5864d44e6387c","not_provided","desktop","0","0","0","","","","","","working_memory","","3013","<p>Sorry, you made a mistake on the quiz.<br>Let's go back to the instructions &mdash; please read carefully before submitting again.<br>Thank you!</p>","0","","","","","","","","","","","","","","","","",""
"instructions","9","159886","0.0-5.0-2.1-0.1","69e913482ae5864d44e6387c","not_provided","desktop","0","0","0","","","","","","working_memory","","23767","","","[{""page_index"":0,""viewing_time"":1113},{""page_index"":1,""viewing_time"":1384},{""page_index"":2,""viewing_time"":2196},{""page_index"":3,""viewing_time"":1322},{""page_index"":4,""viewing_time"":2878},{""page_index"":5,""viewing_time"":5755},{""page_index"":6,""viewing_time"":6813},{""page_index"":7,""viewing_time"":1039},{""page_index"":8,""viewing_time"":1268}]","","","","","","","","","","","","","","","",""
"survey-multi-choice","10","202864","0.0-5.0-2.1-1.1","69e913482ae5864d44e6387c","not_provided","desktop","0","0","0","","","","","","working_memory","","42977","","{""set_size"":""4 or 8"",""steps"":""True"",""choose_square"":""Press the 's' or 'k' key."",""remember"":""The colors and locations of the 'memory' squares"",""task"":""To tell if the 'test' square is in the same color as the square previously appearing in this location""}","","[0,1,2,3,4]","test_squares_quiz","","","","","","","","","","","","","",""
"html-keyboard-response","11","211544","0.0-5.0-3.0-0.0","69e913482ae5864d44e6387c","not_provided","desktop","0","0","0","","","","","","working_memory","","8678","<p>We will now start some practice trials.<br><b>The practice trials will also include some trials in which you will need to remember only one square to make sure you understood the instructions.</b><br>You may already want to be ready with your fingers on '<b>s</b>' and '<b>k</b>'.<br><img class=""wm-example-img"" src=""images/examples/keyboard.png""><br><b style=""font-size:1.2em;"">&lsquo;S&rsquo; = SAME &nbsp;&nbsp;&nbsp; &lsquo;K&rsquo; = DIFFERENT</b><br><br><u>Please try to be as accurate as possible.</u><br><br><b>Press any key to begin</b></p>"," ","","","","","","","","","","","","","","","","",""
"html-keyboard-response","12","213547","0.0-5.0-3.0-1.0-0.0","69e913482ae5864d44e6387c","not_provided","desktop","0","0","0","","","","","","working_memory","","null","<div class=""fixation"">+</div>","null","","","","","","","","","","","","","","","","",""
"html-keyboard-response","13","213750","0.0-5.0-3.0-1.0-1.0","69e913482ae5864d44e6387c","not_provided","desktop","0","0","0","","","","","","working_memory","","null","<img class='upper2' src=images/squares/brown.png><div class=""fixation"">+</div>","null","","","memory","practice","0","1","","","","","","","","","","",""
"html-keyboard-response","14","214652","0.0-5.0-3.0-1.0-2.0","69e913482ae5864d44e6387c","not_provided","desktop","0","0","0","","","","","","working_memory","","null","<div class=""fixation"">+</div>","null","","","","","","","","","","","","","","","","",""
"html-keyboard-response","15","216451","0.0-5.0-3.0-1.0-3.0","69e913482ae5864d44e6387c","not_provided","desktop","0","0","0","","","","","","working_memory","","1797","<img class='upper2' src=images/squares/brown.png><div class=""fixation"">+</div>","s","","","test","practice","0","1","s","true","","","","","","","","",""
"html-keyboard-response","16","216953","0.0-5.0-3.0-1.0-4.0","69e913482ae5864d44e6387c","not_provided","desktop","0","0","0","","","","","","working_memory","","null","<div class=""fixation"">Correct</div>","null","","","","","","","","","","","","","","","","",""
"html-keyboard-response","17","217956","0.0-5.0-3.0-1.0-0.1","69e913482ae5864d44e6387c","not_provided","desktop","0","0","0","","","","","","working_memory","","null","<div class=""fixation"">+</div>","null","","","","","","","","","","","","","","","","",""
"html-keyboard-response","18","218159","0.0-5.0-3.0-1.0-1.1","69e913482ae5864d44e6387c","not_provided","desktop","0","0","0","","","","","","working_memory","","null","<img class='b' src=images/squares/magenta.png><img class='c' src=images/squares/green.png><img class='e' src=images/squares/brown.png><img class='d' src=images/squares/blue.png><img class='g' src=images/squares/cyan.png><img class='h' src=images/squares/red.png><img class='l' src=images/squares/yellow.png><img class='k' src=images/squares/orange.png><div class=""fixation"">+</div>","null","","","memory","practice","1","8","","","","","","","","","","",""
"html-keyboard-response","19","219061","0.0-5.0-3.0-1.0-2.1","69e913482ae5864d44e6387c","not_provided","desktop","0","0","0","","","","","","working_memory","","null","<div class=""fixation"">+</div>","null","","","","","","","","","","","","","","","","",""
"html-keyboard-response","20","220654","0.0-5.0-3.0-1.0-3.1","69e913482ae5864d44e6387c","not_provided","desktop","0","0","0","","","","","","working_memory","","1592","<img class='h' src=images/squares/red.png><div class=""fixation"">+</div>","s","","","test","practice","1","8","s","true","","","","","","","","",""
"html-keyboard-response","21","221156","0.0-5.0-3.0-1.0-4.1","69e913482ae5864d44e6387c","not_provided","desktop","0","0","0","","","","","","working_memory","","null","<div class=""fixation"">Correct</div>","null","","","","","","","","","","","","","","","","",""
"html-keyboard-response","22","222158","0.0-5.0-3.0-1.0-0.2","69e913482ae5864d44e6387c","not_provided","desktop","0","0","0","","","","","","working_memory","","null","<div class=""fixation"">+</div>","null","","","","","","","","","","","","","","","","",""
"html-keyboard-response","23","222362","0.0-5.0-3.0-1.0-1.2","69e913482ae5864d44e6387c","not_provided","desktop","0","0","0","","","","","","working_memory","","null","<img class='lower1' src=images/squares/orange.png><div class=""fixation"">+</div>","null","","","memory","practice","2","1","","","","","","","","","","",""
"html-keyboard-response","24","223264","0.0-5.0-3.0-1.0-2.2","69e913482ae5864d44e6387c","not_provided","desktop","0","0","0","","","","","","working_memory","","null","<div class=""fixation"">+</div>","null","","","","","","","","","","","","","","","","",""
"html-keyboard-response","25","224170","0.0-5.0-3.0-1.0-3.2","69e913482ae5864d44e6387c","not_provided","desktop","0","0","0","","","","","","working_memory","","905","<img class='lower1' src=images/squares/orange.png><div class=""fixation"">+</div>","s","","","test","practice","2","1","s","true","","","","","","","","",""
"html-keyboard-response","26","224671","0.0-5.0-3.0-1.0-4.2","69e913482ae5864d44e6387c","not_provided","desktop","0","0","0","","","","","","working_memory","","null","<div class=""fixation"">Correct</div>","null","","","","","","","","","","","","","","","","",""
"html-keyboard-response","27","225674","0.0-5.0-3.0-1.0-0.3","69e913482ae5864d44e6387c","not_provided","desktop","0","0","0","","","","","","working_memory","","null","<div class=""fixation"">+</div>","null","","","","","","","","","","","","","","","","",""
"html-keyboard-response","28","225877","0.0-5.0-3.0-1.0-1.3","69e913482ae5864d44e6387c","not_provided","desktop","0","0","0","","","","","","working_memory","","null","<img class='a' src=images/squares/cyan.png><img class='b' src=images/squares/brown.png><img class='e' src=images/squares/green.png><img class='d' src=images/squares/black.png><img class='i' src=images/squares/blue.png><img class='h' src=images/squares/red.png><img class='j' src=images/squares/yellow.png><img class='k' src=images/squares/orange.png><div class=""fixation"">+</div>","null","","","memory","practice","3","8","","","","","","","","","","",""
"html-keyboard-response","29","226779","0.0-5.0-3.0-1.0-2.3","69e913482ae5864d44e6387c","not_provided","desktop","0","0","0","","","","","","working_memory","","null","<div class=""fixation"">+</div>","null","","","","","","","","","","","","","","","","",""
"html-keyboard-response","30","227763","0.0-5.0-3.0-1.0-3.3","69e913482ae5864d44e6387c","not_provided","desktop","0","0","0","","","","","","working_memory","","983","<img class='i' src=images/squares/magenta.png><div class=""fixation"">+</div>","k","","","test","practice","3","8","k","true","","","","","","","","",""
"html-keyboard-response","31","228265","0.0-5.0-3.0-1.0-4.3","69e913482ae5864d44e6387c","not_provided","desktop","0","0","0","","","","","","working_memory","","null","<div class=""fixation"">Correct</div>","null","","","","","","","","","","","","","","","","",""
"html-keyboard-response","32","229267","0.0-5.0-3.0-1.0-0.4","69e913482ae5864d44e6387c","not_provided","desktop","0","0","0","","","","","","working_memory","","null","<div class=""fixation"">+</div>","null","","","","","","","","","","","","","","","","",""
"html-keyboard-response","33","229470","0.0-5.0-3.0-1.0-1.4","69e913482ae5864d44e6387c","not_provided","desktop","0","0","0","","","","","","working_memory","","null","<img class='a' src=images/squares/black.png><img class='c' src=images/squares/cyan.png><img class='f' src=images/squares/blue.png><img class='d' src=images/squares/brown.png><img class='h' src=images/squares/yellow.png><img class='i' src=images/squares/green.png><img class='k' src=images/squares/red.png><img class='j' src=images/squares/orange.png><div class=""fixation"">+</div>","null","","","memory","practice","4","8","","","","","","","","","","",""
"html-keyboard-response","34","230372","0.0-5.0-3.0-1.0-2.4","69e913482ae5864d44e6387c","not_provided","desktop","0","0","0","","","","","","working_memory","","null","<div class=""fixation"">+</div>","null","","","","","","","","","","","","","","","","",""
"html-keyboard-response","35","231372","0.0-5.0-3.0-1.0-3.4","69e913482ae5864d44e6387c","not_provided","desktop","0","0","0","","","","","","working_memory","","999","<img class='h' src=images/squares/magenta.png><div class=""fixation"">+</div>","s","","","test","practice","4","8","k","false","","","","","","","","",""
"html-keyboard-response","36","231874","0.0-5.0-3.0-1.0-4.4","69e913482ae5864d44e6387c","not_provided","desktop","0","0","0","","","","","","working_memory","","null","<div class=""fixation"">Incorrect</div>","null","","","","","","","","","","","","","","","","",""
"html-keyboard-response","37","232876","0.0-5.0-3.0-1.0-0.5","69e913482ae5864d44e6387c","not_provided","desktop","0","0","0","","","","","","working_memory","","null","<div class=""fixation"">+</div>","null","","","","","","","","","","","","","","","","",""
"html-keyboard-response","38","233079","0.0-5.0-3.0-1.0-1.5","69e913482ae5864d44e6387c","not_provided","desktop","0","0","0","","","","","","working_memory","","null","<img class='c' src=images/squares/yellow.png><img class='a' src=images/squares/blue.png><img class='d' src=images/squares/brown.png><img class='f' src=images/squares/red.png><img class='i' src=images/squares/green.png><img class='g' src=images/squares/cyan.png><img class='l' src=images/squares/black.png><img class='j' src=images/squares/magenta.png><div class=""fixation"">+</div>","null","","","memory","practice","5","8","","","","","","","","","","",""
"html-keyboard-response","39","233981","0.0-5.0-3.0-1.0-2.5","69e913482ae5864d44e6387c","not_provided","desktop","0","0","0","","","","","","working_memory","","null","<div class=""fixation"">+</div>","null","","","","","","","","","","","","","","","","",""
"html-keyboard-response","40","234938","0.0-5.0-3.0-1.0-3.5","69e913482ae5864d44e6387c","not_provided","desktop","0","0","0","","","","","","working_memory","","956","<img class='l' src=images/squares/black.png><div class=""fixation"">+</div>","s","","","test","practice","5","8","s","true","","","","","","","","",""
"html-keyboard-response","41","235440","0.0-5.0-3.0-1.0-4.5","69e913482ae5864d44e6387c","not_provided","desktop","0","0","0","","","","","","working_memory","","null","<div class=""fixation"">Correct</div>","null","","","","","","","","","","","","","","","","",""
"html-keyboard-response","42","236442","0.0-5.0-3.0-1.0-0.6","69e913482ae5864d44e6387c","not_provided","desktop","0","0","0","","","","","","working_memory","","null","<div class=""fixation"">+</div>","null","","","","","","","","","","","","","","","","",""
"html-keyboard-response","43","236645","0.0-5.0-3.0-1.0-1.6","69e913482ae5864d44e6387c","not_provided","desktop","0","0","0","","","","","","working_memory","","null","<img class='c' src=images/squares/cyan.png><img class='d' src=images/squares/orange.png><img class='g' src=images/squares/magenta.png><img class='l' src=images/squares/black.png><div class=""fixation"">+</div>","null","","","memory","practice","6","4","","","","","","","","","","",""
"html-keyboard-response","44","237548","0.0-5.0-3.0-1.0-2.6","69e913482ae5864d44e6387c","not_provided","desktop","0","0","0","","","","","","working_memory","","null","<div class=""fixation"">+</div>","null","","","","","","","","","","","","","","","","",""
"html-keyboard-response","45","238251","0.0-5.0-3.0-1.0-3.6","69e913482ae5864d44e6387c","not_provided","desktop","0","0","0","","","","","","working_memory","","702","<img class='c' src=images/squares/cyan.png><div class=""fixation"">+</div>","s","","","test","practice","6","4","s","true","","","","","","","","",""
"html-keyboard-response","46","238753","0.0-5.0-3.0-1.0-4.6","69e913482ae5864d44e6387c","not_provided","desktop","0","0","0","","","","","","working_memory","","null","<div class=""fixation"">Correct</div>","null","","","","","","","","","","","","","","","","",""
"html-keyboard-response","47","239755","0.0-5.0-3.0-1.0-0.7","69e913482ae5864d44e6387c","not_provided","desktop","0","0","0","","","","","","working_memory","","null","<div class=""fixation"">+</div>","null","","","","","","","","","","","","","","","","",""
"html-keyboard-response","48","239958","0.0-5.0-3.0-1.0-1.7","69e913482ae5864d44e6387c","not_provided","desktop","0","0","0","","","","","","working_memory","","null","<img class='b' src=images/squares/cyan.png><img class='e' src=images/squares/red.png><img class='i' src=images/squares/brown.png><img class='j' src=images/squares/black.png><div class=""fixation"">+</div>","null","","","memory","practice","7","4","","","","","","","","","","",""
"html-keyboard-response","49","240860","0.0-5.0-3.0-1.0-2.7","69e913482ae5864d44e6387c","not_provided","desktop","0","0","0","","","","","","working_memory","","null","<div class=""fixation"">+</div>","null","","","","","","","","","","","","","","","","",""
"html-keyboard-response","50","241406","0.0-5.0-3.0-1.0-3.7","69e913482ae5864d44e6387c","not_provided","desktop","0","0","0","","","","","","working_memory","","545","<img class='b' src=images/squares/cyan.png><div class=""fixation"">+</div>","s","","","test","practice","7","4","s","true","","","","","","","","",""
"html-keyboard-response","51","241907","0.0-5.0-3.0-1.0-4.7","69e913482ae5864d44e6387c","not_provided","desktop","0","0","0","","","","","","working_memory","","null","<div class=""fixation"">Correct</div>","null","","","","","","","","","","","","","","","","",""
"html-keyboard-response","52","242909","0.0-5.0-3.0-1.0-0.8","69e913482ae5864d44e6387c","not_provided","desktop","0","0","0","","","","","","working_memory","","null","<div class=""fixation"">+</div>","null","","","","","","","","","","","","","","","","",""
"html-keyboard-response","53","243111","0.0-5.0-3.0-1.0-1.8","69e913482ae5864d44e6387c","not_provided","desktop","0","0","0","","","","","","working_memory","","null","<img class='c' src=images/squares/brown.png><img class='d' src=images/squares/green.png><img class='h' src=images/squares/magenta.png><img class='k' src=images/squares/orange.png><div class=""fixation"">+</div>","null","","","memory","practice","8","4","","","","","","","","","","",""
"html-keyboard-response","54","244014","0.0-5.0-3.0-1.0-2.8","69e913482ae5864d44e6387c","not_provided","desktop","0","0","0","","","","","","working_memory","","null","<div class=""fixation"">+</div>","null","","","","","","","","","","","","","","","","",""
"html-keyboard-response","55","244669","0.0-5.0-3.0-1.0-3.8","69e913482ae5864d44e6387c","not_provided","desktop","0","0","0","","","","","","working_memory","","653","<img class='h' src=images/squares/magenta.png><div class=""fixation"">+</div>","k","","","test","practice","8","4","s","false","","","","","","","","",""
"html-keyboard-response","56","245170","0.0-5.0-3.0-1.0-4.8","69e913482ae5864d44e6387c","not_provided","desktop","0","0","0","","","","","","working_memory","","null","<div class=""fixation"">Incorrect</div>","null","","","","","","","","","","","","","","","","",""
"html-keyboard-response","57","246173","0.0-5.0-3.0-1.0-0.9","69e913482ae5864d44e6387c","not_provided","desktop","0","0","0","","","","","","working_memory","","null","<div class=""fixation"">+</div>","null","","","","","","","","","","","","","","","","",""
"html-keyboard-response","58","246375","0.0-5.0-3.0-1.0-1.9","69e913482ae5864d44e6387c","not_provided","desktop","0","0","0","","","","","","working_memory","","null","<img class='upper2' src=images/squares/blue.png><div class=""fixation"">+</div>","null","","","memory","practice","9","1","","","","","","","","","","",""
"html-keyboard-response","59","247278","0.0-5.0-3.0-1.0-2.9","69e913482ae5864d44e6387c","not_provided","desktop","0","0","0","","","","","","working_memory","","null","<div class=""fixation"">+</div>","null","","","","","","","","","","","","","","","","",""
"html-keyboard-response","60","247912","0.0-5.0-3.0-1.0-3.9","69e913482ae5864d44e6387c","not_provided","desktop","0","0","0","","","","","","working_memory","","632","<img class='upper2' src=images/squares/blue.png><div class=""fixation"">+</div>","s","","","test","practice","9","1","s","true","","","","","","","","",""
"html-keyboard-response","61","248413","0.0-5.0-3.0-1.0-4.9","69e913482ae5864d44e6387c","not_provided","desktop","0","0","0","","","","","","working_memory","","null","<div class=""fixation"">Correct</div>","null","","","","","","","","","","","","","","","","",""
"html-keyboard-response","62","249415","0.0-5.0-3.0-1.0-0.10","69e913482ae5864d44e6387c","not_provided","desktop","0","0","0","","","","","","working_memory","","null","<div class=""fixation"">+</div>","null","","","","","","","","","","","","","","","","",""
"html-keyboard-response","63","249619","0.0-5.0-3.0-1.0-1.10","69e913482ae5864d44e6387c","not_provided","desktop","0","0","0","","","","","","working_memory","","null","<img class='lower3' src=images/squares/brown.png><div class=""fixation"">+</div>","null","","","memory","practice","10","1","","","","","","","","","","",""
"html-keyboard-response","64","250521","0.0-5.0-3.0-1.0-2.10","69e913482ae5864d44e6387c","not_provided","desktop","0","0","0","","","","","","working_memory","","null","<div class=""fixation"">+</div>","null","","","","","","","","","","","","","","","","",""
"html-keyboard-response","65","251146","0.0-5.0-3.0-1.0-3.10","69e913482ae5864d44e6387c","not_provided","desktop","0","0","0","","","","","","working_memory","","624","<img class='lower3' src=images/squares/brown.png><div class=""fixation"">+</div>","s","","","test","practice","10","1","s","true","","","","","","","","",""
"html-keyboard-response","66","251648","0.0-5.0-3.0-1.0-4.10","69e913482ae5864d44e6387c","not_provided","desktop","0","0","0","","","","","","working_memory","","null","<div class=""fixation"">Correct</div>","null","","","","","","","","","","","","","","","","",""
"html-keyboard-response","67","252651","0.0-5.0-3.0-1.0-0.11","69e913482ae5864d44e6387c","not_provided","desktop","0","0","0","","","","","","working_memory","","null","<div class=""fixation"">+</div>","null","","","","","","","","","","","","","","","","",""
"html-keyboard-response","68","252853","0.0-5.0-3.0-1.0-1.11","69e913482ae5864d44e6387c","not_provided","desktop","0","0","0","","","","","","working_memory","","null","<img class='lower3' src=images/squares/blue.png><div class=""fixation"">+</div>","null","","","memory","practice","11","1","","","","","","","","","","",""
"html-keyboard-response","69","253756","0.0-5.0-3.0-1.0-2.11","69e913482ae5864d44e6387c","not_provided","desktop","0","0","0","","","","","","working_memory","","null","<div class=""fixation"">+</div>","null","","","","","","","","","","","","","","","","",""
"html-keyboard-response","70","254496","0.0-5.0-3.0-1.0-3.11","69e913482ae5864d44e6387c","not_provided","desktop","0","0","0","","","","","","working_memory","","739","<img class='lower3' src=images/squares/brown.png><div class=""fixation"">+</div>","k","","","test","practice","11","1","k","true","","","","","","","","",""
"html-keyboard-response","71","254997","0.0-5.0-3.0-1.0-4.11","69e913482ae5864d44e6387c","not_provided","desktop","0","0","0","","","","","","working_memory","","null","<div class=""fixation"">Correct</div>","null","","","","","","","","","","","","","","","","",""
"html-keyboard-response","72","256000","0.0-5.0-3.0-1.0-0.12","69e913482ae5864d44e6387c","not_provided","desktop","0","0","0","","","","","","working_memory","","null","<div class=""fixation"">+</div>","null","","","","","","","","","","","","","","","","",""
"html-keyboard-response","73","256202","0.0-5.0-3.0-1.0-1.12","69e913482ae5864d44e6387c","not_provided","desktop","0","0","0","","","","","","working_memory","","null","<img class='lower1' src=images/squares/cyan.png><div class=""fixation"">+</div>","null","","","memory","practice","12","1","","","","","","","","","","",""
"html-keyboard-response","74","257105","0.0-5.0-3.0-1.0-2.12","69e913482ae5864d44e6387c","not_provided","desktop","0","0","0","","","","","","working_memory","","null","<div class=""fixation"">+</div>","null","","","","","","","","","","","","","","","","",""
"html-keyboard-response","75","257896","0.0-5.0-3.0-1.0-3.12","69e913482ae5864d44e6387c","not_provided","desktop","0","0","0","","","","","","working_memory","","791","<img class='lower1' src=images/squares/cyan.png><div class=""fixation"">+</div>","s","","","test","practice","12","1","s","true","","","","","","","","",""
"html-keyboard-response","76","258398","0.0-5.0-3.0-1.0-4.12","69e913482ae5864d44e6387c","not_provided","desktop","0","0","0","","","","","","working_memory","","null","<div class=""fixation"">Correct</div>","null","","","","","","","","","","","","","","","","",""
"html-keyboard-response","77","259401","0.0-5.0-3.0-1.0-0.13","69e913482ae5864d44e6387c","not_provided","desktop","0","0","0","","","","","","working_memory","","null","<div class=""fixation"">+</div>","null","","","","","","","","","","","","","","","","",""
"html-keyboard-response","78","259604","0.0-5.0-3.0-1.0-1.13","69e913482ae5864d44e6387c","not_provided","desktop","0","0","0","","","","","","working_memory","","null","<img class='c' src=images/squares/red.png><img class='d' src=images/squares/orange.png><img class='i' src=images/squares/magenta.png><img class='k' src=images/squares/cyan.png><div class=""fixation"">+</div>","null","","","memory","practice","13","4","","","","","","","","","","",""
"html-keyboard-response","79","260506","0.0-5.0-3.0-1.0-2.13","69e913482ae5864d44e6387c","not_provided","desktop","0","0","0","","","","","","working_memory","","null","<div class=""fixation"">+</div>","null","","","","","","","","","","","","","","","","",""
"html-keyboard-response","80","261139","0.0-5.0-3.0-1.0-3.13","69e913482ae5864d44e6387c","not_provided","desktop","0","0","0","","","","","","working_memory","","631","<img class='i' src=images/squares/magenta.png><div class=""fixation"">+</div>","k","","","test","practice","13","4","s","false","","","","","","","","",""
"html-keyboard-response","81","261640","0.0-5.0-3.0-1.0-4.13","69e913482ae5864d44e6387c","not_provided","desktop","0","0","0","","","","","","working_memory","","null","<div class=""fixation"">Incorrect</div>","null","","","","","","","","","","","","","","","","",""
"html-keyboard-response","82","262643","0.0-5.0-3.0-1.0-0.14","69e913482ae5864d44e6387c","not_provided","desktop","0","0","0","","","","","","working_memory","","null","<div class=""fixation"">+</div>","null","","","","","","","","","","","","","","","","",""
"html-keyboard-response","83","262846","0.0-5.0-3.0-1.0-1.14","69e913482ae5864d44e6387c","not_provided","desktop","0","0","0","","","","","","working_memory","","null","<img class='c' src=images/squares/brown.png><img class='f' src=images/squares/red.png><img class='h' src=images/squares/yellow.png><img class='l' src=images/squares/blue.png><div class=""fixation"">+</div>","null","","","memory","practice","14","4","","","","","","","","","","",""
"html-keyboard-response","84","263748","0.0-5.0-3.0-1.0-2.14","69e913482ae5864d44e6387c","not_provided","desktop","0","0","0","","","","","","working_memory","","null","<div class=""fixation"">+</div>","null","","","","","","","","","","","","","","","","",""
"html-keyboard-response","85","264627","0.0-5.0-3.0-1.0-3.14","69e913482ae5864d44e6387c","not_provided","desktop","0","0","0","","","","","","working_memory","","877","<img class='f' src=images/squares/red.png><div class=""fixation"">+</div>","s","","","test","practice","14","4","s","true","","","","","","","","",""
"html-keyboard-response","86","265128","0.0-5.0-3.0-1.0-4.14","69e913482ae5864d44e6387c","not_provided","desktop","0","0","0","","","","","","working_memory","","null","<div class=""fixation"">Correct</div>","null","","","","","","","","","","","","","","","","",""
"html-keyboard-response","87","270012","0.0-5.0-4.0","69e913482ae5864d44e6387c","not_provided","desktop","0","0","0","","","","","","working_memory","","4882","<div style=""text-align:center;font-family:sans-serif;""><p>Good job! You have finished the practice.</p><p>We will now start the real experiment.</p><p>Please try to be as accurate as possible.</p><p><b><u>Note: random guessing may risk your payment.</u></b></p><br><p><b>Press any key to begin.</b></p></div>"," ","","","","","","","","","","","","","","","","",""
"html-keyboard-response","88","271014","0.0-5.0-5.0-0.0","69e913482ae5864d44e6387c","not_provided","desktop","0","0","0","","","","","","working_memory","","null","<div class=""fixation"">+</div>","null","","","","","","","","","","","","","","","","",""
"html-keyboard-response","89","271218","0.0-5.0-5.0-1.0","69e913482ae5864d44e6387c","not_provided","desktop","0","0","0","","","","","","working_memory","","null","<img class='a' src=images/squares/magenta.png><img class='b' src=images/squares/red.png><img class='f' src=images/squares/yellow.png><img class='d' src=images/squares/orange.png><img class='h' src=images/squares/green.png><img class='i' src=images/squares/black.png><img class='l' src=images/squares/blue.png><img class='k' src=images/squares/cyan.png><div class=""fixation"">+</div>","null","","","memory","exp","0","","","","","","","","","","","",""
"html-keyboard-response","90","272120","0.0-5.0-5.0-2.0","69e913482ae5864d44e6387c","not_provided","desktop","0","0","0","","","","","","working_memory","","null","<div class=""fixation"">+</div>","null","","","","","","","","","","","","","","","","",""
"html-keyboard-response","91","273381","0.0-5.0-5.0-3.0","69e913482ae5864d44e6387c","not_provided","desktop","0","0","0","","","","","","working_memory","","1260","<img class='h' src=images/squares/green.png><div class=""fixation"">+</div>","k","","","test_squares","exp","0","8","s","false","sk","s","","","","","","",""
"html-keyboard-response","92","273883","0.0-5.0-5.0-4.0","69e913482ae5864d44e6387c","not_provided","desktop","0","0","0","","","","","","working_memory","","null","<div class=""fixation"">Incorrect</div>","null","","","","","","","","","","","","","","","","",""
"html-keyboard-response","93","274886","0.0-5.0-5.0-0.1","69e913482ae5864d44e6387c","not_provided","desktop","0","0","0","","","","","","working_memory","","null","<div class=""fixation"">+</div>","null","","","","","","","","","","","","","","","","",""
"html-keyboard-response","94","275089","0.0-5.0-5.0-1.1","69e913482ae5864d44e6387c","not_provided","desktop","0","0","0","","","","","","working_memory","","null","<img class='b' src=images/squares/brown.png><img class='e' src=images/squares/orange.png><img class='i' src=images/squares/blue.png><img class='j' src=images/squares/magenta.png><div class=""fixation"">+</div>","null","","","memory","exp","1","","","","","","","","","","","",""
"html-keyboard-response","95","275991","0.0-5.0-5.0-2.1","69e913482ae5864d44e6387c","not_provided","desktop","0","0","0","","","","","","working_memory","","null","<div class=""fixation"">+</div>","null","","","","","","","","","","","","","","","","",""
"html-keyboard-response","96","276944","0.0-5.0-5.0-3.1","69e913482ae5864d44e6387c","not_provided","desktop","0","0","0","","","","","","working_memory","","951","<img class='i' src=images/squares/yellow.png><div class=""fixation"">+</div>","k","","","test_squares","exp","1","4","k","true","sk","d","","","","","","",""
"html-keyboard-response","97","277445","0.0-5.0-5.0-4.1","69e913482ae5864d44e6387c","not_provided","desktop","0","0","0","","","","","","working_memory","","null","<div class=""fixation"">Correct</div>","null","","","","","","","","","","","","","","","","",""
"html-keyboard-response","98","278447","0.0-5.0-5.0-0.2","69e913482ae5864d44e6387c","not_provided","desktop","0","0","0","","","","","","working_memory","","null","<div class=""fixation"">+</div>","null","","","","","","","","","","","","","","","","",""
"html-keyboard-response","99","278651","0.0-5.0-5.0-1.2","69e913482ae5864d44e6387c","not_provided","desktop","0","0","0","","","","","","working_memory","","null","<img class='c' src=images/squares/yellow.png><img class='f' src=images/squares/red.png><img class='h' src=images/squares/orange.png><img class='k' src=images/squares/black.png><div class=""fixation"">+</div>","null","","","memory","exp","2","","","","","","","","","","","",""
"html-keyboard-response","100","279553","0.0-5.0-5.0-2.2","69e913482ae5864d44e6387c","not_provided","desktop","0","0","0","","","","","","working_memory","","null","<div class=""fixation"">+</div>","null","","","","","","","","","","","","","","","","",""
"html-keyboard-response","101","280377","0.0-5.0-5.0-3.2","69e913482ae5864d44e6387c","not_provided","desktop","0","0","0","","","","","","working_memory","","822","<img class='h' src=images/squares/brown.png><div class=""fixation"">+</div>","s","","","test_squares","exp","2","4","k","false","sk","d","","","","","","",""
"html-keyboard-response","102","280878","0.0-5.0-5.0-4.2","69e913482ae5864d44e6387c","not_provided","desktop","0","0","0","","","","","","working_memory","","null","<div class=""fixation"">Incorrect</div>","null","","","","","","","","","","","","","","","","",""
"html-keyboard-response","103","281880","0.0-5.0-5.0-0.3","69e913482ae5864d44e6387c","not_provided","desktop","0","0","0","","","","","","working_memory","","null","<div class=""fixation"">+</div>","null","","","","","","","","","","","","","","","","",""
"html-keyboard-response","104","282084","0.0-5.0-5.0-1.3","69e913482ae5864d44e6387c","not_provided","desktop","0","0","0","","","","","","working_memory","","null","<img class='b' src=images/squares/magenta.png><img class='f' src=images/squares/black.png><img class='h' src=images/squares/orange.png><img class='k' src=images/squares/blue.png><div class=""fixation"">+</div>","null","","","memory","exp","3","","","","","","","","","","","",""
"html-keyboard-response","105","282986","0.0-5.0-5.0-2.3","69e913482ae5864d44e6387c","not_provided","desktop","0","0","0","","","","","","working_memory","","null","<div class=""fixation"">+</div>","null","","","","","","","","","","","","","","","","",""
"html-keyboard-response","106","283886","0.0-5.0-5.0-3.3","69e913482ae5864d44e6387c","not_provided","desktop","0","0","0","","","","","","working_memory","","899","<img class='f' src=images/squares/black.png><div class=""fixation"">+</div>","s","","","test_squares","exp","3","4","s","true","sk","s","","","","","","",""
"html-keyboard-response","107","284387","0.0-5.0-5.0-4.3","69e913482ae5864d44e6387c","not_provided","desktop","0","0","0","","","","","","working_memory","","null","<div class=""fixation"">Correct</div>","null","","","","","","","","","","","","","","","","",""
"html-keyboard-response","108","285389","0.0-5.0-5.0-0.4","69e913482ae5864d44e6387c","not_provided","desktop","0","0","0","","","","","","working_memory","","null","<div class=""fixation"">+</div>","null","","","","","","","","","","","","","","","","",""
"html-keyboard-response","109","285591","0.0-5.0-5.0-1.4","69e913482ae5864d44e6387c","not_provided","desktop","0","0","0","","","","","","working_memory","","null","<img class='a' src=images/squares/red.png><img class='e' src=images/squares/blue.png><img class='h' src=images/squares/black.png><img class='j' src=images/squares/yellow.png><div class=""fixation"">+</div>","null","","","memory","exp","4","","","","","","","","","","","",""
"html-keyboard-response","110","286492","0.0-5.0-5.0-2.4","69e913482ae5864d44e6387c","not_provided","desktop","0","0","0","","","","","","working_memory","","null","<div class=""fixation"">+</div>","null","","","","","","","","","","","","","","","","",""
"html-keyboard-response","111","287103","0.0-5.0-5.0-3.4","69e913482ae5864d44e6387c","not_provided","desktop","0","0","0","","","","","","working_memory","","610","<img class='a' src=images/squares/red.png><div class=""fixation"">+</div>","s","","","test_squares","exp","4","4","s","true","sk","s","","","","","","",""
"html-keyboard-response","112","287604","0.0-5.0-5.0-4.4","69e913482ae5864d44e6387c","not_provided","desktop","0","0","0","","","","","","working_memory","","null","<div class=""fixation"">Correct</div>","null","","","","","","","","","","","","","","","","",""
"html-keyboard-response","113","288607","0.0-5.0-5.0-0.5","69e913482ae5864d44e6387c","not_provided","desktop","0","0","0","","","","","","working_memory","","null","<div class=""fixation"">+</div>","null","","","","","","","","","","","","","","","","",""
"html-keyboard-response","114","288810","0.0-5.0-5.0-1.5","69e913482ae5864d44e6387c","not_provided","desktop","0","0","0","","","","","","working_memory","","null","<img class='a' src=images/squares/green.png><img class='d' src=images/squares/magenta.png><img class='g' src=images/squares/orange.png><img class='l' src=images/squares/red.png><div class=""fixation"">+</div>","null","","","memory","exp","5","","","","","","","","","","","",""
"html-keyboard-response","115","289713","0.0-5.0-5.0-2.5","69e913482ae5864d44e6387c","not_provided","desktop","0","0","0","","","","","","working_memory","","null","<div class=""fixation"">+</div>","null","","","","","","","","","","","","","","","","",""
"html-keyboard-response","116","290548","0.0-5.0-5.0-3.5","69e913482ae5864d44e6387c","not_provided","desktop","0","0","0","","","","","","working_memory","","834","<img class='d' src=images/squares/magenta.png><div class=""fixation"">+</div>","s","","","test_squares","exp","5","4","s","true","sk","s","","","","","","",""
"html-keyboard-response","117","291049","0.0-5.0-5.0-4.5","69e913482ae5864d44e6387c","not_provided","desktop","0","0","0","","","","","","working_memory","","null","<div class=""fixation"">Correct</div>","null","","","","","","","","","","","","","","","","",""
"html-keyboard-response","118","292052","0.0-5.0-5.0-0.6","69e913482ae5864d44e6387c","not_provided","desktop","0","0","0","","","","","","working_memory","","null","<div class=""fixation"">+</div>","null","","","","","","","","","","","","","","","","",""
"html-keyboard-response","119","292256","0.0-5.0-5.0-1.6","69e913482ae5864d44e6387c","not_provided","desktop","0","0","0","","","","","","working_memory","","null","<img class='b' src=images/squares/yellow.png><img class='c' src=images/squares/magenta.png><img class='f' src=images/squares/orange.png><img class='e' src=images/squares/blue.png><img class='g' src=images/squares/black.png><img class='i' src=images/squares/brown.png><img class='l' src=images/squares/green.png><img class='k' src=images/squares/cyan.png><div class=""fixation"">+</div>","null","","","memory","exp","6","","","","","","","","","","","",""
"html-keyboard-response","120","293158","0.0-5.0-5.0-2.6","69e913482ae5864d44e6387c","not_provided","desktop","0","0","0","","","","","","working_memory","","null","<div class=""fixation"">+</div>","null","","","","","","","","","","","","","","","","",""
"html-keyboard-response","121","294154","0.0-5.0-5.0-3.6","69e913482ae5864d44e6387c","not_provided","desktop","0","0","0","","","","","","working_memory","","995","<img class='g' src=images/squares/black.png><div class=""fixation"">+</div>","k","","","test_squares","exp","6","8","s","false","sk","s","","","","","","",""
"html-keyboard-response","122","294656","0.0-5.0-5.0-4.6","69e913482ae5864d44e6387c","not_provided","desktop","0","0","0","","","","","","working_memory","","null","<div class=""fixation"">Incorrect</div>","null","","","","","","","","","","","","","","","","",""
"html-keyboard-response","123","295658","0.0-5.0-5.0-0.7","69e913482ae5864d44e6387c","not_provided","desktop","0","0","0","","","","","","working_memory","","null","<div class=""fixation"">+</div>","null","","","","","","","","","","","","","","","","",""
"html-keyboard-response","124","295862","0.0-5.0-5.0-1.7","69e913482ae5864d44e6387c","not_provided","desktop","0","0","0","","","","","","working_memory","","null","<img class='c' src=images/squares/brown.png><img class='a' src=images/squares/red.png><img class='f' src=images/squares/magenta.png><img class='e' src=images/squares/orange.png><img class='g' src=images/squares/cyan.png><img class='h' src=images/squares/green.png><img class='k' src=images/squares/black.png><img class='j' src=images/squares/yellow.png><div class=""fixation"">+</div>","null","","","memory","exp","7","","","","","","","","","","","",""
"html-keyboard-response","125","296764","0.0-5.0-5.0-2.7","69e913482ae5864d44e6387c","not_provided","desktop","0","0","0","","","","","","working_memory","","null","<div class=""fixation"">+</div>","null","","","","","","","","","","","","","","","","",""
"html-keyboard-response","126","297834","0.0-5.0-5.0-3.7","69e913482ae5864d44e6387c","not_provided","desktop","0","0","0","","","","","","working_memory","","1069","<img class='e' src=images/squares/blue.png><div class=""fixation"">+</div>","k","","","test_squares","exp","7","8","k","true","sk","d","","","","","","",""
"html-keyboard-response","127","298336","0.0-5.0-5.0-4.7","69e913482ae5864d44e6387c","not_provided","desktop","0","0","0","","","","","","working_memory","","null","<div class=""fixation"">Correct</div>","null","","","","","","","","","","","","","","","","",""
"html-keyboard-response","128","299338","0.0-5.0-5.0-0.8","69e913482ae5864d44e6387c","not_provided","desktop","0","0","0","","","","","","working_memory","","null","<div class=""fixation"">+</div>","null","","","","","","","","","","","","","","","","",""
"html-keyboard-response","129","299541","0.0-5.0-5.0-1.8","69e913482ae5864d44e6387c","not_provided","desktop","0","0","0","","","","","","working_memory","","null","<img class='b' src=images/squares/magenta.png><img class='d' src=images/squares/black.png><img class='h' src=images/squares/red.png><img class='k' src=images/squares/yellow.png><div class=""fixation"">+</div>","null","","","memory","exp","8","","","","","","","","","","","",""
"html-keyboard-response","130","300443","0.0-5.0-5.0-2.8","69e913482ae5864d44e6387c","not_provided","desktop","0","0","0","","","","","","working_memory","","null","<div class=""fixation"">+</div>","null","","","","","","","","","","","","","","","","",""
"html-keyboard-response","131","301125","0.0-5.0-5.0-3.8","69e913482ae5864d44e6387c","not_provided","desktop","0","0","0","","","","","","working_memory","","681","<img class='b' src=images/squares/magenta.png><div class=""fixation"">+</div>","s","","","test_squares","exp","8","4","s","true","sk","s","","","","","","",""
"html-keyboard-response","132","301626","0.0-5.0-5.0-4.8","69e913482ae5864d44e6387c","not_provided","desktop","0","0","0","","","","","","working_memory","","null","<div class=""fixation"">Correct</div>","null","","","","","","","","","","","","","","","","",""
"html-keyboard-response","133","302629","0.0-5.0-5.0-0.9","69e913482ae5864d44e6387c","not_provided","desktop","0","0","0","","","","","","working_memory","","null","<div class=""fixation"">+</div>","null","","","","","","","","","","","","","","","","",""
"html-keyboard-response","134","302832","0.0-5.0-5.0-1.9","69e913482ae5864d44e6387c","not_provided","desktop","0","0","0","","","","","","working_memory","","null","<img class='c' src=images/squares/black.png><img class='d' src=images/squares/yellow.png><img class='i' src=images/squares/blue.png><img class='l' src=images/squares/red.png><div class=""fixation"">+</div>","null","","","memory","exp","9","","","","","","","","","","","",""
"html-keyboard-response","135","303735","0.0-5.0-5.0-2.9","69e913482ae5864d44e6387c","not_provided","desktop","0","0","0","","","","","","working_memory","","null","<div class=""fixation"">+</div>","null","","","","","","","","","","","","","","","","",""
"html-keyboard-response","136","304665","0.0-5.0-5.0-3.9","69e913482ae5864d44e6387c","not_provided","desktop","0","0","0","","","","","","working_memory","","929","<img class='l' src=images/squares/green.png><div class=""fixation"">+</div>","k","","","test_squares","exp","9","4","k","true","sk","d","","","","","","",""
"html-keyboard-response","137","305167","0.0-5.0-5.0-4.9","69e913482ae5864d44e6387c","not_provided","desktop","0","0","0","","","","","","working_memory","","null","<div class=""fixation"">Correct</div>","null","","","","","","","","","","","","","","","","",""
"html-keyboard-response","138","306168","0.0-5.0-5.0-0.10","69e913482ae5864d44e6387c","not_provided","desktop","0","0","0","","","","","","working_memory","","null","<div class=""fixation"">+</div>","null","","","","","","","","","","","","","","","","",""
"html-keyboard-response","139","306371","0.0-5.0-5.0-1.10","69e913482ae5864d44e6387c","not_provided","desktop","0","0","0","","","","","","working_memory","","null","<img class='c' src=images/squares/green.png><img class='e' src=images/squares/magenta.png><img class='i' src=images/squares/blue.png><img class='l' src=images/squares/brown.png><div class=""fixation"">+</div>","null","","","memory","exp","10","","","","","","","","","","","",""
"html-keyboard-response","140","307273","0.0-5.0-5.0-2.10","69e913482ae5864d44e6387c","not_provided","desktop","0","0","0","","","","","","working_memory","","null","<div class=""fixation"">+</div>","null","","","","","","","","","","","","","","","","",""
"html-keyboard-response","141","308298","0.0-5.0-5.0-3.10","69e913482ae5864d44e6387c","not_provided","desktop","0","0","0","","","","","","working_memory","","1024","<img class='i' src=images/squares/red.png><div class=""fixation"">+</div>","k","","","test_squares","exp","10","4","k","true","sk","d","","","","","","",""
"html-keyboard-response","142","308800","0.0-5.0-5.0-4.10","69e913482ae5864d44e6387c","not_provided","desktop","0","0","0","","","","","","working_memory","","null","<div class=""fixation"">Correct</div>","null","","","","","","","","","","","","","","","","",""
"html-keyboard-response","143","309802","0.0-5.0-5.0-0.11","69e913482ae5864d44e6387c","not_provided","desktop","0","0","0","","","","","","working_memory","","null","<div class=""fixation"">+</div>","null","","","","","","","","","","","","","","","","",""
"html-keyboard-response","144","310006","0.0-5.0-5.0-1.11","69e913482ae5864d44e6387c","not_provided","desktop","0","0","0","","","","","","working_memory","","null","<img class='b' src=images/squares/blue.png><img class='c' src=images/squares/black.png><img class='e' src=images/squares/orange.png><img class='f' src=images/squares/green.png><img class='h' src=images/squares/cyan.png><img class='i' src=images/squares/brown.png><img class='l' src=images/squares/yellow.png><img class='j' src=images/squares/magenta.png><div class=""fixation"">+</div>","null","","","memory","exp","11","","","","","","","","","","","",""
"html-keyboard-response","145","310908","0.0-5.0-5.0-2.11","69e913482ae5864d44e6387c","not_provided","desktop","0","0","0","","","","","","working_memory","","null","<div class=""fixation"">+</div>","null","","","","","","","","","","","","","","","","",""
"html-keyboard-response","146","311700","0.0-5.0-5.0-3.11","69e913482ae5864d44e6387c","not_provided","desktop","0","0","0","","","","","","working_memory","","790","<img class='c' src=images/squares/red.png><div class=""fixation"">+</div>","k","","","test_squares","exp","11","8","k","true","sk","d","","","","","","",""
"html-keyboard-response","147","312200","0.0-5.0-5.0-4.11","69e913482ae5864d44e6387c","not_provided","desktop","0","0","0","","","","","","working_memory","","null","<div class=""fixation"">Correct</div>","null","","","","","","","","","","","","","","","","",""
"html-keyboard-response","148","313203","0.0-5.0-5.0-0.12","69e913482ae5864d44e6387c","not_provided","desktop","0","0","0","","","","","","working_memory","","null","<div class=""fixation"">+</div>","null","","","","","","","","","","","","","","","","",""
"html-keyboard-response","149","313406","0.0-5.0-5.0-1.12","69e913482ae5864d44e6387c","not_provided","desktop","0","0","0","","","","","","working_memory","","null","<img class='b' src=images/squares/green.png><img class='a' src=images/squares/red.png><img class='f' src=images/squares/yellow.png><img class='d' src=images/squares/cyan.png><img class='h' src=images/squares/magenta.png><img class='g' src=images/squares/orange.png><img class='j' src=images/squares/brown.png><img class='k' src=images/squares/black.png><div class=""fixation"">+</div>","null","","","memory","exp","12","","","","","","","","","","","",""
"html-keyboard-response","150","314309","0.0-5.0-5.0-2.12","69e913482ae5864d44e6387c","not_provided","desktop","0","0","0","","","","","","working_memory","","null","<div class=""fixation"">+</div>","null","","","","","","","","","","","","","","","","",""
"html-keyboard-response","151","315179","0.0-5.0-5.0-3.12","69e913482ae5864d44e6387c","not_provided","desktop","0","0","0","","","","","","working_memory","","869","<img class='k' src=images/squares/blue.png><div class=""fixation"">+</div>","k","","","test_squares","exp","12","8","k","true","sk","d","","","","","","",""
"html-keyboard-response","152","315681","0.0-5.0-5.0-4.12","69e913482ae5864d44e6387c","not_provided","desktop","0","0","0","","","","","","working_memory","","null","<div class=""fixation"">Correct</div>","null","","","","","","","","","","","","","","","","",""
"html-keyboard-response","153","316683","0.0-5.0-5.0-0.13","69e913482ae5864d44e6387c","not_provided","desktop","0","0","0","","","","","","working_memory","","null","<div class=""fixation"">+</div>","null","","","","","","","","","","","","","","","","",""
"html-keyboard-response","154","316886","0.0-5.0-5.0-1.13","69e913482ae5864d44e6387c","not_provided","desktop","0","0","0","","","","","","working_memory","","null","<img class='b' src=images/squares/orange.png><img class='e' src=images/squares/yellow.png><img class='g' src=images/squares/cyan.png><img class='k' src=images/squares/brown.png><div class=""fixation"">+</div>","null","","","memory","exp","13","","","","","","","","","","","",""
"html-keyboard-response","155","317788","0.0-5.0-5.0-2.13","69e913482ae5864d44e6387c","not_provided","desktop","0","0","0","","","","","","working_memory","","null","<div class=""fixation"">+</div>","null","","","","","","","","","","","","","","","","",""
"html-keyboard-response","156","318632","0.0-5.0-5.0-3.13","69e913482ae5864d44e6387c","not_provided","desktop","0","0","0","","","","","","working_memory","","842","<img class='k' src=images/squares/blue.png><div class=""fixation"">+</div>","k","","","test_squares","exp","13","4","k","true","sk","d","","","","","","",""
"html-keyboard-response","157","319133","0.0-5.0-5.0-4.13","69e913482ae5864d44e6387c","not_provided","desktop","0","0","0","","","","","","working_memory","","null","<div class=""fixation"">Correct</div>","null","","","","","","","","","","","","","","","","",""
"html-keyboard-response","158","320136","0.0-5.0-5.0-0.14","69e913482ae5864d44e6387c","not_provided","desktop","0","0","0","","","","","","working_memory","","null","<div class=""fixation"">+</div>","null","","","","","","","","","","","","","","","","",""
"html-keyboard-response","159","320338","0.0-5.0-5.0-1.14","69e913482ae5864d44e6387c","not_provided","desktop","0","0","0","","","","","","working_memory","","null","<img class='c' src=images/squares/magenta.png><img class='a' src=images/squares/yellow.png><img class='e' src=images/squares/red.png><img class='d' src=images/squares/green.png><img class='g' src=images/squares/brown.png><img class='i' src=images/squares/black.png><img class='j' src=images/squares/cyan.png><img class='l' src=images/squares/orange.png><div class=""fixation"">+</div>","null","","","memory","exp","14","","","","","","","","","","","",""
"html-keyboard-response","160","321241","0.0-5.0-5.0-2.14","69e913482ae5864d44e6387c","not_provided","desktop","0","0","0","","","","","","working_memory","","null","<div class=""fixation"">+</div>","null","","","","","","","","","","","","","","","","",""
"html-keyboard-response","161","321996","0.0-5.0-5.0-3.14","69e913482ae5864d44e6387c","not_provided","desktop","0","0","0","","","","","","working_memory","","754","<img class='a' src=images/squares/blue.png><div class=""fixation"">+</div>","k","","","test_squares","exp","14","8","k","true","sk","d","","","","","","",""
"html-keyboard-response","162","322497","0.0-5.0-5.0-4.14","69e913482ae5864d44e6387c","not_provided","desktop","0","0","0","","","","","","working_memory","","null","<div class=""fixation"">Correct</div>","null","","","","","","","","","","","","","","","","",""
"html-keyboard-response","163","323500","0.0-5.0-5.0-0.15","69e913482ae5864d44e6387c","not_provided","desktop","0","0","0","","","","","","working_memory","","null","<div class=""fixation"">+</div>","null","","","","","","","","","","","","","","","","",""
"html-keyboard-response","164","323703","0.0-5.0-5.0-1.15","69e913482ae5864d44e6387c","not_provided","desktop","0","0","0","","","","","","working_memory","","null","<img class='a' src=images/squares/blue.png><img class='d' src=images/squares/green.png><img class='h' src=images/squares/orange.png><img class='k' src=images/squares/red.png><div class=""fixation"">+</div>","null","","","memory","exp","15","","","","","","","","","","","",""
"html-keyboard-response","165","324605","0.0-5.0-5.0-2.15","69e913482ae5864d44e6387c","not_provided","desktop","0","0","0","","","","","","working_memory","","null","<div class=""fixation"">+</div>","null","","","","","","","","","","","","","","","","",""
"html-keyboard-response","166","326007","0.0-5.0-5.0-3.15","69e913482ae5864d44e6387c","not_provided","desktop","0","0","0","","","","","","working_memory","","1401","<img class='h' src=images/squares/orange.png><div class=""fixation"">+</div>","k","","","test_squares","exp","15","4","s","false","sk","s","","","","","","",""
"html-keyboard-response","167","326509","0.0-5.0-5.0-4.15","69e913482ae5864d44e6387c","not_provided","desktop","0","0","0","","","","","","working_memory","","null","<div class=""fixation"">Incorrect</div>","null","","","","","","","","","","","","","","","","",""
"html-keyboard-response","168","327512","0.0-5.0-5.0-0.16","69e913482ae5864d44e6387c","not_provided","desktop","0","0","0","","","","","","working_memory","","null","<div class=""fixation"">+</div>","null","","","","","","","","","","","","","","","","",""
"html-keyboard-response","169","327715","0.0-5.0-5.0-1.16","69e913482ae5864d44e6387c","not_provided","desktop","0","0","0","","","","","","working_memory","","null","<img class='a' src=images/squares/red.png><img class='e' src=images/squares/blue.png><img class='h' src=images/squares/cyan.png><img class='k' src=images/squares/green.png><div class=""fixation"">+</div>","null","","","memory","exp","16","","","","","","","","","","","",""
"html-keyboard-response","170","328617","0.0-5.0-5.0-2.16","69e913482ae5864d44e6387c","not_provided","desktop","0","0","0","","","","","","working_memory","","null","<div class=""fixation"">+</div>","null","","","","","","","","","","","","","","","","",""
"html-keyboard-response","171","329271","0.0-5.0-5.0-3.16","69e913482ae5864d44e6387c","not_provided","desktop","0","0","0","","","","","","working_memory","","653","<img class='a' src=images/squares/red.png><div class=""fixation"">+</div>","s","","","test_squares","exp","16","4","s","true","sk","s","","","","","","",""
"html-keyboard-response","172","329772","0.0-5.0-5.0-4.16","69e913482ae5864d44e6387c","not_provided","desktop","0","0","0","","","","","","working_memory","","null","<div class=""fixation"">Correct</div>","null","","","","","","","","","","","","","","","","",""
"html-keyboard-response","173","330773","0.0-5.0-5.0-0.17","69e913482ae5864d44e6387c","not_provided","desktop","0","0","0","","","","","","working_memory","","null","<div class=""fixation"">+</div>","null","","","","","","","","","","","","","","","","",""
"html-keyboard-response","174","330976","0.0-5.0-5.0-1.17","69e913482ae5864d44e6387c","not_provided","desktop","0","0","0","","","","","","working_memory","","null","<img class='c' src=images/squares/cyan.png><img class='a' src=images/squares/green.png><img class='f' src=images/squares/black.png><img class='d' src=images/squares/orange.png><img class='g' src=images/squares/yellow.png><img class='h' src=images/squares/red.png><img class='j' src=images/squares/brown.png><img class='k' src=images/squares/magenta.png><div class=""fixation"">+</div>","null","","","memory","exp","17","","","","","","","","","","","",""
"html-keyboard-response","175","331879","0.0-5.0-5.0-2.17","69e913482ae5864d44e6387c","not_provided","desktop","0","0","0","","","","","","working_memory","","null","<div class=""fixation"">+</div>","null","","","","","","","","","","","","","","","","",""
"html-keyboard-response","176","332651","0.0-5.0-5.0-3.17","69e913482ae5864d44e6387c","not_provided","desktop","0","0","0","","","","","","working_memory","","771","<img class='f' src=images/squares/black.png><div class=""fixation"">+</div>","s","","","test_squares","exp","17","8","s","true","sk","s","","","","","","",""
"html-keyboard-response","177","333153","0.0-5.0-5.0-4.17","69e913482ae5864d44e6387c","not_provided","desktop","0","0","0","","","","","","working_memory","","null","<div class=""fixation"">Correct</div>","null","","","","","","","","","","","","","","","","",""
"html-keyboard-response","178","334154","0.0-5.0-5.0-0.18","69e913482ae5864d44e6387c","not_provided","desktop","0","0","0","","","","","","working_memory","","null","<div class=""fixation"">+</div>","null","","","","","","","","","","","","","","","","",""
"html-keyboard-response","179","334357","0.0-5.0-5.0-1.18","69e913482ae5864d44e6387c","not_provided","desktop","0","0","0","","","","","","working_memory","","null","<img class='c' src=images/squares/orange.png><img class='a' src=images/squares/blue.png><img class='d' src=images/squares/brown.png><img class='e' src=images/squares/cyan.png><img class='g' src=images/squares/magenta.png><img class='h' src=images/squares/black.png><img class='l' src=images/squares/red.png><img class='j' src=images/squares/yellow.png><div class=""fixation"">+</div>","null","","","memory","exp","18","","","","","","","","","","","",""
"html-keyboard-response","180","335260","0.0-5.0-5.0-2.18","69e913482ae5864d44e6387c","not_provided","desktop","0","0","0","","","","","","working_memory","","null","<div class=""fixation"">+</div>","null","","","","","","","","","","","","","","","","",""
"html-keyboard-response","181","336141","0.0-5.0-5.0-3.18","69e913482ae5864d44e6387c","not_provided","desktop","0","0","0","","","","","","working_memory","","879","<img class='g' src=images/squares/magenta.png><div class=""fixation"">+</div>","s","","","test_squares","exp","18","8","s","true","sk","s","","","","","","",""
"html-keyboard-response","182","336642","0.0-5.0-5.0-4.18","69e913482ae5864d44e6387c","not_provided","desktop","0","0","0","","","","","","working_memory","","null","<div class=""fixation"">Correct</div>","null","","","","","","","","","","","","","","","","",""
"html-keyboard-response","183","337644","0.0-5.0-5.0-0.19","69e913482ae5864d44e6387c","not_provided","desktop","0","0","0","","","","","","working_memory","","null","<div class=""fixation"">+</div>","null","","","","","","","","","","","","","","","","",""
"html-keyboard-response","184","337847","0.0-5.0-5.0-1.19","69e913482ae5864d44e6387c","not_provided","desktop","0","0","0","","","","","","working_memory","","null","<img class='c' src=images/squares/blue.png><img class='b' src=images/squares/yellow.png><img class='e' src=images/squares/black.png><img class='d' src=images/squares/brown.png><img class='i' src=images/squares/orange.png><img class='h' src=images/squares/green.png><img class='j' src=images/squares/magenta.png><img class='l' src=images/squares/red.png><div class=""fixation"">+</div>","null","","","memory","exp","19","","","","","","","","","","","",""
"html-keyboard-response","185","338750","0.0-5.0-5.0-2.19","69e913482ae5864d44e6387c","not_provided","desktop","0","0","0","","","","","","working_memory","","null","<div class=""fixation"">+</div>","null","","","","","","","","","","","","","","","","",""
"html-keyboard-response","186","339776","0.0-5.0-5.0-3.19","69e913482ae5864d44e6387c","not_provided","desktop","0","0","0","","","","","","working_memory","","1025","<img class='b' src=images/squares/cyan.png><div class=""fixation"">+</div>","k","","","test_squares","exp","19","8","k","true","sk","d","","","","","","",""
"html-keyboard-response","187","340277","0.0-5.0-5.0-4.19","69e913482ae5864d44e6387c","not_provided","desktop","0","0","0","","","","","","working_memory","","null","<div class=""fixation"">Correct</div>","null","","","","","","","","","","","","","","","","",""
"html-keyboard-response","188","341279","0.0-5.0-5.0-0.20","69e913482ae5864d44e6387c","not_provided","desktop","0","0","0","","","","","","working_memory","","null","<div class=""fixation"">+</div>","null","","","","","","","","","","","","","","","","",""
"html-keyboard-response","189","341482","0.0-5.0-5.0-1.20","69e913482ae5864d44e6387c","not_provided","desktop","0","0","0","","","","","","working_memory","","null","<img class='c' src=images/squares/yellow.png><img class='d' src=images/squares/black.png><img class='g' src=images/squares/blue.png><img class='k' src=images/squares/red.png><div class=""fixation"">+</div>","null","","","memory","exp","20","","","","","","","","","","","",""
"html-keyboard-response","190","342385","0.0-5.0-5.0-2.20","69e913482ae5864d44e6387c","not_provided","desktop","0","0","0","","","","","","working_memory","","null","<div class=""fixation"">+</div>","null","","","","","","","","","","","","","","","","",""
"html-keyboard-response","191","343194","0.0-5.0-5.0-3.20","69e913482ae5864d44e6387c","not_provided","desktop","0","0","0","","","","","","working_memory","","807","<img class='g' src=images/squares/brown.png><div class=""fixation"">+</div>","k","","","test_squares","exp","20","4","k","true","sk","d","","","","","","",""
"html-keyboard-response","192","343695","0.0-5.0-5.0-4.20","69e913482ae5864d44e6387c","not_provided","desktop","0","0","0","","","","","","working_memory","","null","<div class=""fixation"">Correct</div>","null","","","","","","","","","","","","","","","","",""
"html-keyboard-response","193","344697","0.0-5.0-5.0-0.21","69e913482ae5864d44e6387c","not_provided","desktop","0","0","0","","","","","","working_memory","","null","<div class=""fixation"">+</div>","null","","","","","","","","","","","","","","","","",""
"html-keyboard-response","194","344900","0.0-5.0-5.0-1.21","69e913482ae5864d44e6387c","not_provided","desktop","0","0","0","","","","","","working_memory","","null","<img class='b' src=images/squares/brown.png><img class='a' src=images/squares/black.png><img class='d' src=images/squares/cyan.png><img class='f' src=images/squares/red.png><img class='h' src=images/squares/magenta.png><img class='i' src=images/squares/orange.png><img class='j' src=images/squares/blue.png><img class='l' src=images/squares/yellow.png><div class=""fixation"">+</div>","null","","","memory","exp","21","","","","","","","","","","","",""
"html-keyboard-response","195","345802","0.0-5.0-5.0-2.21","69e913482ae5864d44e6387c","not_provided","desktop","0","0","0","","","","","","working_memory","","null","<div class=""fixation"">+</div>","null","","","","","","","","","","","","","","","","",""
"html-keyboard-response","196","346603","0.0-5.0-5.0-3.21","69e913482ae5864d44e6387c","not_provided","desktop","0","0","0","","","","","","working_memory","","800","<img class='f' src=images/squares/red.png><div class=""fixation"">+</div>","k","","","test_squares","exp","21","8","s","false","sk","s","","","","","","",""
"html-keyboard-response","197","347105","0.0-5.0-5.0-4.21","69e913482ae5864d44e6387c","not_provided","desktop","0","0","0","","","","","","working_memory","","null","<div class=""fixation"">Incorrect</div>","null","","","","","","","","","","","","","","","","",""
"html-keyboard-response","198","348107","0.0-5.0-5.0-0.22","69e913482ae5864d44e6387c","not_provided","desktop","0","0","0","","","","","","working_memory","","null","<div class=""fixation"">+</div>","null","","","","","","","","","","","","","","","","",""
"html-keyboard-response","199","348311","0.0-5.0-5.0-1.22","69e913482ae5864d44e6387c","not_provided","desktop","0","0","0","","","","","","working_memory","","null","<img class='a' src=images/squares/cyan.png><img class='c' src=images/squares/red.png><img class='e' src=images/squares/black.png><img class='f' src=images/squares/green.png><img class='i' src=images/squares/blue.png><img class='h' src=images/squares/orange.png><img class='l' src=images/squares/yellow.png><img class='k' src=images/squares/brown.png><div class=""fixation"">+</div>","null","","","memory","exp","22","","","","","","","","","","","",""
"html-keyboard-response","200","349213","0.0-5.0-5.0-2.22","69e913482ae5864d44e6387c","not_provided","desktop","0","0","0","","","","","","working_memory","","null","<div class=""fixation"">+</div>","null","","","","","","","","","","","","","","","","",""
"html-keyboard-response","201","350057","0.0-5.0-5.0-3.22","69e913482ae5864d44e6387c","not_provided","desktop","0","0","0","","","","","","working_memory","","842","<img class='e' src=images/squares/magenta.png><div class=""fixation"">+</div>","k","","","test_squares","exp","22","8","k","true","sk","d","","","","","","",""
"html-keyboard-response","202","350558","0.0-5.0-5.0-4.22","69e913482ae5864d44e6387c","not_provided","desktop","0","0","0","","","","","","working_memory","","null","<div class=""fixation"">Correct</div>","null","","","","","","","","","","","","","","","","",""
"html-keyboard-response","203","351560","0.0-5.0-5.0-0.23","69e913482ae5864d44e6387c","not_provided","desktop","0","0","0","","","","","","working_memory","","null","<div class=""fixation"">+</div>","null","","","","","","","","","","","","","","","","",""
"html-keyboard-response","204","351764","0.0-5.0-5.0-1.23","69e913482ae5864d44e6387c","not_provided","desktop","0","0","0","","","","","","working_memory","","null","<img class='a' src=images/squares/black.png><img class='c' src=images/squares/green.png><img class='e' src=images/squares/brown.png><img class='d' src=images/squares/magenta.png><img class='h' src=images/squares/red.png><img class='g' src=images/squares/orange.png><img class='j' src=images/squares/blue.png><img class='k' src=images/squares/cyan.png><div class=""fixation"">+</div>","null","","","memory","exp","23","","","","","","","","","","","",""
"html-keyboard-response","205","352666","0.0-5.0-5.0-2.23","69e913482ae5864d44e6387c","not_provided","desktop","0","0","0","","","","","","working_memory","","null","<div class=""fixation"">+</div>","null","","","","","","","","","","","","","","","","",""
"html-keyboard-response","206","353395","0.0-5.0-5.0-3.23","69e913482ae5864d44e6387c","not_provided","desktop","0","0","0","","","","","","working_memory","","728","<img class='e' src=images/squares/yellow.png><div class=""fixation"">+</div>","k","","","test_squares","exp","23","8","k","true","sk","d","","","","","","",""
"html-keyboard-response","207","353896","0.0-5.0-5.0-4.23","69e913482ae5864d44e6387c","not_provided","desktop","0","0","0","","","","","","working_memory","","null","<div class=""fixation"">Correct</div>","null","","","","","","","","","","","","","","","","",""
"html-keyboard-response","208","354898","0.0-5.0-5.0-0.24","69e913482ae5864d44e6387c","not_provided","desktop","0","0","0","","","","","","working_memory","","null","<div class=""fixation"">+</div>","null","","","","","","","","","","","","","","","","",""
"html-keyboard-response","209","355101","0.0-5.0-5.0-1.24","69e913482ae5864d44e6387c","not_provided","desktop","0","0","0","","","","","","working_memory","","null","<img class='b' src=images/squares/green.png><img class='a' src=images/squares/cyan.png><img class='e' src=images/squares/blue.png><img class='f' src=images/squares/magenta.png><img class='g' src=images/squares/orange.png><img class='i' src=images/squares/red.png><img class='j' src=images/squares/brown.png><img class='k' src=images/squares/yellow.png><div class=""fixation"">+</div>","null","","","memory","exp","24","","","","","","","","","","","",""
"html-keyboard-response","210","356003","0.0-5.0-5.0-2.24","69e913482ae5864d44e6387c","not_provided","desktop","0","0","0","","","","","","working_memory","","null","<div class=""fixation"">+</div>","null","","","","","","","","","","","","","","","","",""
"html-keyboard-response","211","356879","0.0-5.0-5.0-3.24","69e913482ae5864d44e6387c","not_provided","desktop","0","0","0","","","","","","working_memory","","875","<img class='j' src=images/squares/black.png><div class=""fixation"">+</div>","k","","","test_squares","exp","24","8","k","true","sk","d","","","","","","",""
"html-keyboard-response","212","357381","0.0-5.0-5.0-4.24","69e913482ae5864d44e6387c","not_provided","desktop","0","0","0","","","","","","working_memory","","null","<div class=""fixation"">Correct</div>","null","","","","","","","","","","","","","","","","",""
"html-keyboard-response","213","358383","0.0-5.0-5.0-0.25","69e913482ae5864d44e6387c","not_provided","desktop","0","0","0","","","","","","working_memory","","null","<div class=""fixation"">+</div>","null","","","","","","","","","","","","","","","","",""
"html-keyboard-response","214","358586","0.0-5.0-5.0-1.25","69e913482ae5864d44e6387c","not_provided","desktop","0","0","0","","","","","","working_memory","","null","<img class='b' src=images/squares/blue.png><img class='a' src=images/squares/black.png><img class='f' src=images/squares/red.png><img class='e' src=images/squares/cyan.png><img class='h' src=images/squares/brown.png><img class='g' src=images/squares/orange.png><img class='k' src=images/squares/yellow.png><img class='l' src=images/squares/green.png><div class=""fixation"">+</div>","null","","","memory","exp","25","","","","","","","","","","","",""
"html-keyboard-response","215","359488","0.0-5.0-5.0-2.25","69e913482ae5864d44e6387c","not_provided","desktop","0","0","0","","","","","","working_memory","","null","<div class=""fixation"">+</div>","null","","","","","","","","","","","","","","","","",""
"html-keyboard-response","216","360274","0.0-5.0-5.0-3.25","69e913482ae5864d44e6387c","not_provided","desktop","0","0","0","","","","","","working_memory","","785","<img class='h' src=images/squares/magenta.png><div class=""fixation"">+</div>","k","","","test_squares","exp","25","8","k","true","sk","d","","","","","","",""
"html-keyboard-response","217","360776","0.0-5.0-5.0-4.25","69e913482ae5864d44e6387c","not_provided","desktop","0","0","0","","","","","","working_memory","","null","<div class=""fixation"">Correct</div>","null","","","","","","","","","","","","","","","","",""
"html-keyboard-response","218","361779","0.0-5.0-5.0-0.26","69e913482ae5864d44e6387c","not_provided","desktop","0","0","0","","","","","","working_memory","","null","<div class=""fixation"">+</div>","null","","","","","","","","","","","","","","","","",""
"html-keyboard-response","219","361981","0.0-5.0-5.0-1.26","69e913482ae5864d44e6387c","not_provided","desktop","0","0","0","","","","","","working_memory","","null","<img class='c' src=images/squares/black.png><img class='f' src=images/squares/cyan.png><img class='g' src=images/squares/red.png><img class='l' src=images/squares/magenta.png><div class=""fixation"">+</div>","null","","","memory","exp","26","","","","","","","","","","","",""
"html-keyboard-response","220","362883","0.0-5.0-5.0-2.26","69e913482ae5864d44e6387c","not_provided","desktop","0","0","0","","","","","","working_memory","","null","<div class=""fixation"">+</div>","null","","","","","","","","","","","","","","","","",""
"html-keyboard-response","221","363506","0.0-5.0-5.0-3.26","69e913482ae5864d44e6387c","not_provided","desktop","0","0","0","","","","","","working_memory","","622","<img class='f' src=images/squares/green.png><div class=""fixation"">+</div>","k","","","test_squares","exp","26","4","k","true","sk","d","","","","","","",""
"html-keyboard-response","222","364007","0.0-5.0-5.0-4.26","69e913482ae5864d44e6387c","not_provided","desktop","0","0","0","","","","","","working_memory","","null","<div class=""fixation"">Correct</div>","null","","","","","","","","","","","","","","","","",""
"html-keyboard-response","223","365009","0.0-5.0-5.0-0.27","69e913482ae5864d44e6387c","not_provided","desktop","0","0","0","","","","","","working_memory","","null","<div class=""fixation"">+</div>","null","","","","","","","","","","","","","","","","",""
"html-keyboard-response","224","365213","0.0-5.0-5.0-1.27","69e913482ae5864d44e6387c","not_provided","desktop","0","0","0","","","","","","working_memory","","null","<img class='c' src=images/squares/blue.png><img class='a' src=images/squares/yellow.png><img class='e' src=images/squares/cyan.png><img class='d' src=images/squares/magenta.png><img class='h' src=images/squares/red.png><img class='g' src=images/squares/black.png><img class='k' src=images/squares/orange.png><img class='j' src=images/squares/green.png><div class=""fixation"">+</div>","null","","","memory","exp","27","","","","","","","","","","","",""
"html-keyboard-response","225","366116","0.0-5.0-5.0-2.27","69e913482ae5864d44e6387c","not_provided","desktop","0","0","0","","","","","","working_memory","","null","<div class=""fixation"">+</div>","null","","","","","","","","","","","","","","","","",""
"html-keyboard-response","226","366850","0.0-5.0-5.0-3.27","69e913482ae5864d44e6387c","not_provided","desktop","0","0","0","","","","","","working_memory","","733","<img class='h' src=images/squares/red.png><div class=""fixation"">+</div>","k","","","test_squares","exp","27","8","s","false","sk","s","","","","","","",""
"html-keyboard-response","227","367352","0.0-5.0-5.0-4.27","69e913482ae5864d44e6387c","not_provided","desktop","0","0","0","","","","","","working_memory","","null","<div class=""fixation"">Incorrect</div>","null","","","","","","","","","","","","","","","","",""
"html-keyboard-response","228","368354","0.0-5.0-5.0-0.28","69e913482ae5864d44e6387c","not_provided","desktop","0","0","0","","","","","","working_memory","","null","<div class=""fixation"">+</div>","null","","","","","","","","","","","","","","","","",""
"html-keyboard-response","229","368557","0.0-5.0-5.0-1.28","69e913482ae5864d44e6387c","not_provided","desktop","0","0","0","","","","","","working_memory","","null","<img class='a' src=images/squares/red.png><img class='d' src=images/squares/yellow.png><img class='g' src=images/squares/magenta.png><img class='k' src=images/squares/cyan.png><div class=""fixation"">+</div>","null","","","memory","exp","28","","","","","","","","","","","",""
"html-keyboard-response","230","369458","0.0-5.0-5.0-2.28","69e913482ae5864d44e6387c","not_provided","desktop","0","0","0","","","","","","working_memory","","null","<div class=""fixation"">+</div>","null","","","","","","","","","","","","","","","","",""
"html-keyboard-response","231","370085","0.0-5.0-5.0-3.28","69e913482ae5864d44e6387c","not_provided","desktop","0","0","0","","","","","","working_memory","","626","<img class='d' src=images/squares/orange.png><div class=""fixation"">+</div>","k","","","test_squares","exp","28","4","k","true","sk","d","","","","","","",""
"html-keyboard-response","232","370586","0.0-5.0-5.0-4.28","69e913482ae5864d44e6387c","not_provided","desktop","0","0","0","","","","","","working_memory","","null","<div class=""fixation"">Correct</div>","null","","","","","","","","","","","","","","","","",""
"html-keyboard-response","233","371589","0.0-5.0-5.0-0.29","69e913482ae5864d44e6387c","not_provided","desktop","0","0","0","","","","","","working_memory","","null","<div class=""fixation"">+</div>","null","","","","","","","","","","","","","","","","",""
"html-keyboard-response","234","371791","0.0-5.0-5.0-1.29","69e913482ae5864d44e6387c","not_provided","desktop","0","0","0","","","","","","working_memory","","null","<img class='c' src=images/squares/blue.png><img class='e' src=images/squares/green.png><img class='i' src=images/squares/red.png><img class='j' src=images/squares/orange.png><div class=""fixation"">+</div>","null","","","memory","exp","29","","","","","","","","","","","",""
"html-keyboard-response","235","372692","0.0-5.0-5.0-2.29","69e913482ae5864d44e6387c","not_provided","desktop","0","0","0","","","","","","working_memory","","null","<div class=""fixation"">+</div>","null","","","","","","","","","","","","","","","","",""
"html-keyboard-response","236","373380","0.0-5.0-5.0-3.29","69e913482ae5864d44e6387c","not_provided","desktop","0","0","0","","","","","","working_memory","","687","<img class='i' src=images/squares/cyan.png><div class=""fixation"">+</div>","k","","","test_squares","exp","29","4","k","true","sk","d","","","","","","",""
"html-keyboard-response","237","373881","0.0-5.0-5.0-4.29","69e913482ae5864d44e6387c","not_provided","desktop","0","0","0","","","","","","working_memory","","null","<div class=""fixation"">Correct</div>","null","","","","","","","","","","","","","","","","",""
"html-keyboard-response","238","374884","0.0-5.0-5.0-0.30","69e913482ae5864d44e6387c","not_provided","desktop","0","0","0","","","","","","working_memory","","null","<div class=""fixation"">+</div>","null","","","","","","","","","","","","","","","","",""
"html-keyboard-response","239","375087","0.0-5.0-5.0-1.30","69e913482ae5864d44e6387c","not_provided","desktop","0","0","0","","","","","","working_memory","","null","<img class='c' src=images/squares/yellow.png><img class='a' src=images/squares/magenta.png><img class='d' src=images/squares/black.png><img class='e' src=images/squares/red.png><img class='g' src=images/squares/brown.png><img class='i' src=images/squares/cyan.png><img class='k' src=images/squares/orange.png><img class='l' src=images/squares/blue.png><div class=""fixation"">+</div>","null","","","memory","exp","30","","","","","","","","","","","",""
"html-keyboard-response","240","375988","0.0-5.0-5.0-2.30","69e913482ae5864d44e6387c","not_provided","desktop","0","0","0","","","","","","working_memory","","null","<div class=""fixation"">+</div>","null","","","","","","","","","","","","","","","","",""
"html-keyboard-response","241","376723","0.0-5.0-5.0-3.30","69e913482ae5864d44e6387c","not_provided","desktop","0","0","0","","","","","","working_memory","","733","<img class='e' src=images/squares/red.png><div class=""fixation"">+</div>","s","","","test_squares","exp","30","8","s","true","sk","s","","","","","","",""
"html-keyboard-response","242","377224","0.0-5.0-5.0-4.30","69e913482ae5864d44e6387c","not_provided","desktop","0","0","0","","","","","","working_memory","","null","<div class=""fixation"">Correct</div>","null","","","","","","","","","","","","","","","","",""
"html-keyboard-response","243","378226","0.0-5.0-5.0-0.31","69e913482ae5864d44e6387c","not_provided","desktop","0","0","0","","","","","","working_memory","","null","<div class=""fixation"">+</div>","null","","","","","","","","","","","","","","","","",""
"html-keyboard-response","244","378429","0.0-5.0-5.0-1.31","69e913482ae5864d44e6387c","not_provided","desktop","0","0","0","","","","","","working_memory","","null","<img class='b' src=images/squares/blue.png><img class='f' src=images/squares/cyan.png><img class='i' src=images/squares/red.png><img class='j' src=images/squares/brown.png><div class=""fixation"">+</div>","null","","","memory","exp","31","","","","","","","","","","","",""
"html-keyboard-response","245","379332","0.0-5.0-5.0-2.31","69e913482ae5864d44e6387c","not_provided","desktop","0","0","0","","","","","","working_memory","","null","<div class=""fixation"">+</div>","null","","","","","","","","","","","","","","","","",""
"html-keyboard-response","246","380071","0.0-5.0-5.0-3.31","69e913482ae5864d44e6387c","not_provided","desktop","0","0","0","","","","","","working_memory","","738","<img class='i' src=images/squares/black.png><div class=""fixation"">+</div>","k","","","test_squares","exp","31","4","k","true","sk","d","","","","","","",""
"html-keyboard-response","247","380573","0.0-5.0-5.0-4.31","69e913482ae5864d44e6387c","not_provided","desktop","0","0","0","","","","","","working_memory","","null","<div class=""fixation"">Correct</div>","null","","","","","","","","","","","","","","","","",""
"html-keyboard-response","248","381575","0.0-5.0-5.0-0.32","69e913482ae5864d44e6387c","not_provided","desktop","0","0","0","","","","","","working_memory","","null","<div class=""fixation"">+</div>","null","","","","","","","","","","","","","","","","",""
"html-keyboard-response","249","381779","0.0-5.0-5.0-1.32","69e913482ae5864d44e6387c","not_provided","desktop","0","0","0","","","","","","working_memory","","null","<img class='a' src=images/squares/brown.png><img class='b' src=images/squares/green.png><img class='d' src=images/squares/magenta.png><img class='f' src=images/squares/black.png><img class='i' src=images/squares/blue.png><img class='g' src=images/squares/cyan.png><img class='k' src=images/squares/red.png><img class='l' src=images/squares/yellow.png><div class=""fixation"">+</div>","null","","","memory","exp","32","","","","","","","","","","","",""
"html-keyboard-response","250","382682","0.0-5.0-5.0-2.32","69e913482ae5864d44e6387c","not_provided","desktop","0","0","0","","","","","","working_memory","","null","<div class=""fixation"">+</div>","null","","","","","","","","","","","","","","","","",""
"html-keyboard-response","251","383409","0.0-5.0-5.0-3.32","69e913482ae5864d44e6387c","not_provided","desktop","0","0","0","","","","","","working_memory","","726","<img class='l' src=images/squares/orange.png><div class=""fixation"">+</div>","k","","","test_squares","exp","32","8","k","true","sk","d","","","","","","",""
"html-keyboard-response","252","383911","0.0-5.0-5.0-4.32","69e913482ae5864d44e6387c","not_provided","desktop","0","0","0","","","","","","working_memory","","null","<div class=""fixation"">Correct</div>","null","","","","","","","","","","","","","","","","",""
"html-keyboard-response","253","384913","0.0-5.0-5.0-0.33","69e913482ae5864d44e6387c","not_provided","desktop","0","0","0","","","","","","working_memory","","null","<div class=""fixation"">+</div>","null","","","","","","","","","","","","","","","","",""
"html-keyboard-response","254","385116","0.0-5.0-5.0-1.33","69e913482ae5864d44e6387c","not_provided","desktop","0","0","0","","","","","","working_memory","","null","<img class='a' src=images/squares/cyan.png><img class='d' src=images/squares/magenta.png><img class='h' src=images/squares/yellow.png><img class='l' src=images/squares/orange.png><div class=""fixation"">+</div>","null","","","memory","exp","33","","","","","","","","","","","",""
"html-keyboard-response","255","386018","0.0-5.0-5.0-2.33","69e913482ae5864d44e6387c","not_provided","desktop","0","0","0","","","","","","working_memory","","null","<div class=""fixation"">+</div>","null","","","","","","","","","","","","","","","","",""
"html-keyboard-response","256","386709","0.0-5.0-5.0-3.33","69e913482ae5864d44e6387c","not_provided","desktop","0","0","0","","","","","","working_memory","","690","<img class='d' src=images/squares/magenta.png><div class=""fixation"">+</div>","s","","","test_squares","exp","33","4","s","true","sk","s","","","","","","",""
"html-keyboard-response","257","387210","0.0-5.0-5.0-4.33","69e913482ae5864d44e6387c","not_provided","desktop","0","0","0","","","","","","working_memory","","null","<div class=""fixation"">Correct</div>","null","","","","","","","","","","","","","","","","",""
"html-keyboard-response","258","388213","0.0-5.0-5.0-0.34","69e913482ae5864d44e6387c","not_provided","desktop","0","0","0","","","","","","working_memory","","null","<div class=""fixation"">+</div>","null","","","","","","","","","","","","","","","","",""
"html-keyboard-response","259","388417","0.0-5.0-5.0-1.34","69e913482ae5864d44e6387c","not_provided","desktop","0","0","0","","","","","","working_memory","","null","<img class='b' src=images/squares/blue.png><img class='a' src=images/squares/cyan.png><img class='f' src=images/squares/red.png><img class='d' src=images/squares/magenta.png><img class='i' src=images/squares/green.png><img class='h' src=images/squares/black.png><img class='k' src=images/squares/yellow.png><img class='l' src=images/squares/orange.png><div class=""fixation"">+</div>","null","","","memory","exp","34","","","","","","","","","","","",""
"html-keyboard-response","260","389319","0.0-5.0-5.0-2.34","69e913482ae5864d44e6387c","not_provided","desktop","0","0","0","","","","","","working_memory","","null","<div class=""fixation"">+</div>","null","","","","","","","","","","","","","","","","",""
"html-keyboard-response","261","390139","0.0-5.0-5.0-3.34","69e913482ae5864d44e6387c","not_provided","desktop","0","0","0","","","","","","working_memory","","818","<img class='h' src=images/squares/brown.png><div class=""fixation"">+</div>","k","","","test_squares","exp","34","8","k","true","sk","d","","","","","","",""
"html-keyboard-response","262","390641","0.0-5.0-5.0-4.34","69e913482ae5864d44e6387c","not_provided","desktop","0","0","0","","","","","","working_memory","","null","<div class=""fixation"">Correct</div>","null","","","","","","","","","","","","","","","","",""
"html-keyboard-response","263","391643","0.0-5.0-5.0-0.35","69e913482ae5864d44e6387c","not_provided","desktop","0","0","0","","","","","","working_memory","","null","<div class=""fixation"">+</div>","null","","","","","","","","","","","","","","","","",""
"html-keyboard-response","264","391846","0.0-5.0-5.0-1.35","69e913482ae5864d44e6387c","not_provided","desktop","0","0","0","","","","","","working_memory","","null","<img class='c' src=images/squares/brown.png><img class='f' src=images/squares/green.png><img class='h' src=images/squares/cyan.png><img class='l' src=images/squares/yellow.png><div class=""fixation"">+</div>","null","","","memory","exp","35","","","","","","","","","","","",""
"html-keyboard-response","265","392748","0.0-5.0-5.0-2.35","69e913482ae5864d44e6387c","not_provided","desktop","0","0","0","","","","","","working_memory","","null","<div class=""fixation"">+</div>","null","","","","","","","","","","","","","","","","",""
"html-keyboard-response","266","393317","0.0-5.0-5.0-3.35","69e913482ae5864d44e6387c","not_provided","desktop","0","0","0","","","","","","working_memory","","568","<img class='f' src=images/squares/green.png><div class=""fixation"">+</div>","s","","","test_squares","exp","35","4","s","true","sk","s","","","","","","",""
"html-keyboard-response","267","393818","0.0-5.0-5.0-4.35","69e913482ae5864d44e6387c","not_provided","desktop","0","0","0","","","","","","working_memory","","null","<div class=""fixation"">Correct</div>","null","","","","","","","","","","","","","","","","",""
"html-keyboard-response","268","394821","0.0-5.0-5.0-0.36","69e913482ae5864d44e6387c","not_provided","desktop","0","0","0","","","","","","working_memory","","null","<div class=""fixation"">+</div>","null","","","","","","","","","","","","","","","","",""
"html-keyboard-response","269","395024","0.0-5.0-5.0-1.36","69e913482ae5864d44e6387c","not_provided","desktop","0","0","0","","","","","","working_memory","","null","<img class='b' src=images/squares/red.png><img class='f' src=images/squares/magenta.png><img class='g' src=images/squares/orange.png><img class='l' src=images/squares/yellow.png><div class=""fixation"">+</div>","null","","","memory","exp","36","","","","","","","","","","","",""
"html-keyboard-response","270","395926","0.0-5.0-5.0-2.36","69e913482ae5864d44e6387c","not_provided","desktop","0","0","0","","","","","","working_memory","","null","<div class=""fixation"">+</div>","null","","","","","","","","","","","","","","","","",""
"html-keyboard-response","271","396777","0.0-5.0-5.0-3.36","69e913482ae5864d44e6387c","not_provided","desktop","0","0","0","","","","","","working_memory","","850","<img class='g' src=images/squares/green.png><div class=""fixation"">+</div>","k","","","test_squares","exp","36","4","k","true","sk","d","","","","","","",""
"html-keyboard-response","272","397279","0.0-5.0-5.0-4.36","69e913482ae5864d44e6387c","not_provided","desktop","0","0","0","","","","","","working_memory","","null","<div class=""fixation"">Correct</div>","null","","","","","","","","","","","","","","","","",""
"html-keyboard-response","273","398281","0.0-5.0-5.0-0.37","69e913482ae5864d44e6387c","not_provided","desktop","0","0","0","","","","","","working_memory","","null","<div class=""fixation"">+</div>","null","","","","","","","","","","","","","","","","",""
"html-keyboard-response","274","398484","0.0-5.0-5.0-1.37","69e913482ae5864d44e6387c","not_provided","desktop","0","0","0","","","","","","working_memory","","null","<img class='b' src=images/squares/black.png><img class='d' src=images/squares/cyan.png><img class='i' src=images/squares/blue.png><img class='j' src=images/squares/brown.png><div class=""fixation"">+</div>","null","","","memory","exp","37","","","","","","","","","","","",""
"html-keyboard-response","275","399386","0.0-5.0-5.0-2.37","69e913482ae5864d44e6387c","not_provided","desktop","0","0","0","","","","","","working_memory","","null","<div class=""fixation"">+</div>","null","","","","","","","","","","","","","","","","",""
"html-keyboard-response","276","399925","0.0-5.0-5.0-3.37","69e913482ae5864d44e6387c","not_provided","desktop","0","0","0","","","","","","working_memory","","537","<img class='d' src=images/squares/cyan.png><div class=""fixation"">+</div>","s","","","test_squares","exp","37","4","s","true","sk","s","","","","","","",""
"html-keyboard-response","277","400426","0.0-5.0-5.0-4.37","69e913482ae5864d44e6387c","not_provided","desktop","0","0","0","","","","","","working_memory","","null","<div class=""fixation"">Correct</div>","null","","","","","","","","","","","","","","","","",""
"html-keyboard-response","278","401428","0.0-5.0-5.0-0.38","69e913482ae5864d44e6387c","not_provided","desktop","0","0","0","","","","","","working_memory","","null","<div class=""fixation"">+</div>","null","","","","","","","","","","","","","","","","",""
"html-keyboard-response","279","401631","0.0-5.0-5.0-1.38","69e913482ae5864d44e6387c","not_provided","desktop","0","0","0","","","","","","working_memory","","null","<img class='c' src=images/squares/brown.png><img class='e' src=images/squares/red.png><img class='g' src=images/squares/green.png><img class='l' src=images/squares/black.png><div class=""fixation"">+</div>","null","","","memory","exp","38","","","","","","","","","","","",""
"html-keyboard-response","280","402532","0.0-5.0-5.0-2.38","69e913482ae5864d44e6387c","not_provided","desktop","0","0","0","","","","","","working_memory","","null","<div class=""fixation"">+</div>","null","","","","","","","","","","","","","","","","",""
"html-keyboard-response","281","403149","0.0-5.0-5.0-3.38","69e913482ae5864d44e6387c","not_provided","desktop","0","0","0","","","","","","working_memory","","616","<img class='c' src=images/squares/magenta.png><div class=""fixation"">+</div>","k","","","test_squares","exp","38","4","k","true","sk","d","","","","","","",""
"html-keyboard-response","282","403650","0.0-5.0-5.0-4.38","69e913482ae5864d44e6387c","not_provided","desktop","0","0","0","","","","","","working_memory","","null","<div class=""fixation"">Correct</div>","null","","","","","","","","","","","","","","","","",""
"html-keyboard-response","283","404652","0.0-5.0-5.0-0.39","69e913482ae5864d44e6387c","not_provided","desktop","0","0","0","","","","","","working_memory","","null","<div class=""fixation"">+</div>","null","","","","","","","","","","","","","","","","",""
"html-keyboard-response","284","404856","0.0-5.0-5.0-1.39","69e913482ae5864d44e6387c","not_provided","desktop","0","0","0","","","","","","working_memory","","null","<img class='c' src=images/squares/brown.png><img class='e' src=images/squares/green.png><img class='g' src=images/squares/orange.png><img class='k' src=images/squares/blue.png><div class=""fixation"">+</div>","null","","","memory","exp","39","","","","","","","","","","","",""
"html-keyboard-response","285","405759","0.0-5.0-5.0-2.39","69e913482ae5864d44e6387c","not_provided","desktop","0","0","0","","","","","","working_memory","","null","<div class=""fixation"">+</div>","null","","","","","","","","","","","","","","","","",""
"html-keyboard-response","286","406548","0.0-5.0-5.0-3.39","69e913482ae5864d44e6387c","not_provided","desktop","0","0","0","","","","","","working_memory","","788","<img class='k' src=images/squares/blue.png><div class=""fixation"">+</div>","s","","","test_squares","exp","39","4","s","true","sk","s","","","","","","",""
"html-keyboard-response","287","407049","0.0-5.0-5.0-4.39","69e913482ae5864d44e6387c","not_provided","desktop","0","0","0","","","","","","working_memory","","null","<div class=""fixation"">Correct</div>","null","","","","","","","","","","","","","","","","",""
"html-keyboard-response","288","408051","0.0-5.0-5.0-0.40","69e913482ae5864d44e6387c","not_provided","desktop","0","0","0","","","","","","working_memory","","null","<div class=""fixation"">+</div>","null","","","","","","","","","","","","","","","","",""
"html-keyboard-response","289","408253","0.0-5.0-5.0-1.40","69e913482ae5864d44e6387c","not_provided","desktop","0","0","0","","","","","","working_memory","","null","<img class='c' src=images/squares/blue.png><img class='b' src=images/squares/yellow.png><img class='f' src=images/squares/green.png><img class='d' src=images/squares/red.png><img class='h' src=images/squares/orange.png><img class='i' src=images/squares/magenta.png><img class='j' src=images/squares/black.png><img class='l' src=images/squares/cyan.png><div class=""fixation"">+</div>","null","","","memory","exp","40","","","","","","","","","","","",""
"html-keyboard-response","290","409155","0.0-5.0-5.0-2.40","69e913482ae5864d44e6387c","not_provided","desktop","0","0","0","","","","","","working_memory","","null","<div class=""fixation"">+</div>","null","","","","","","","","","","","","","","","","",""
"html-keyboard-response","291","409947","0.0-5.0-5.0-3.40","69e913482ae5864d44e6387c","not_provided","desktop","0","0","0","","","","","","working_memory","","791","<img class='j' src=images/squares/black.png><div class=""fixation"">+</div>","s","","","test_squares","exp","40","8","s","true","sk","s","","","","","","",""
"html-keyboard-response","292","410448","0.0-5.0-5.0-4.40","69e913482ae5864d44e6387c","not_provided","desktop","0","0","0","","","","","","working_memory","","null","<div class=""fixation"">Correct</div>","null","","","","","","","","","","","","","","","","",""
"html-keyboard-response","293","411451","0.0-5.0-5.0-0.41","69e913482ae5864d44e6387c","not_provided","desktop","0","0","0","","","","","","working_memory","","null","<div class=""fixation"">+</div>","null","","","","","","","","","","","","","","","","",""
"html-keyboard-response","294","411654","0.0-5.0-5.0-1.41","69e913482ae5864d44e6387c","not_provided","desktop","0","0","0","","","","","","working_memory","","null","<img class='a' src=images/squares/blue.png><img class='b' src=images/squares/green.png><img class='e' src=images/squares/orange.png><img class='f' src=images/squares/magenta.png><img class='g' src=images/squares/red.png><img class='h' src=images/squares/cyan.png><img class='k' src=images/squares/brown.png><img class='j' src=images/squares/yellow.png><div class=""fixation"">+</div>","null","","","memory","exp","41","","","","","","","","","","","",""
"html-keyboard-response","295","412557","0.0-5.0-5.0-2.41","69e913482ae5864d44e6387c","not_provided","desktop","0","0","0","","","","","","working_memory","","null","<div class=""fixation"">+</div>","null","","","","","","","","","","","","","","","","",""
"html-keyboard-response","296","413182","0.0-5.0-5.0-3.41","69e913482ae5864d44e6387c","not_provided","desktop","0","0","0","","","","","","working_memory","","625","<img class='b' src=images/squares/green.png><div class=""fixation"">+</div>","k","","","test_squares","exp","41","8","s","false","sk","s","","","","","","",""
"html-keyboard-response","297","413683","0.0-5.0-5.0-4.41","69e913482ae5864d44e6387c","not_provided","desktop","0","0","0","","","","","","working_memory","","null","<div class=""fixation"">Incorrect</div>","null","","","","","","","","","","","","","","","","",""
"html-keyboard-response","298","414686","0.0-5.0-5.0-0.42","69e913482ae5864d44e6387c","not_provided","desktop","0","0","0","","","","","","working_memory","","null","<div class=""fixation"">+</div>","null","","","","","","","","","","","","","","","","",""
"html-keyboard-response","299","414888","0.0-5.0-5.0-1.42","69e913482ae5864d44e6387c","not_provided","desktop","0","0","0","","","","","","working_memory","","null","<img class='b' src=images/squares/magenta.png><img class='e' src=images/squares/blue.png><img class='h' src=images/squares/yellow.png><img class='k' src=images/squares/orange.png><div class=""fixation"">+</div>","null","","","memory","exp","42","","","","","","","","","","","",""
"html-keyboard-response","300","415790","0.0-5.0-5.0-2.42","69e913482ae5864d44e6387c","not_provided","desktop","0","0","0","","","","","","working_memory","","null","<div class=""fixation"">+</div>","null","","","","","","","","","","","","","","","","",""
"html-keyboard-response","301","416512","0.0-5.0-5.0-3.42","69e913482ae5864d44e6387c","not_provided","desktop","0","0","0","","","","","","working_memory","","721","<img class='e' src=images/squares/cyan.png><div class=""fixation"">+</div>","k","","","test_squares","exp","42","4","k","true","sk","d","","","","","","",""
"html-keyboard-response","302","417014","0.0-5.0-5.0-4.42","69e913482ae5864d44e6387c","not_provided","desktop","0","0","0","","","","","","working_memory","","null","<div class=""fixation"">Correct</div>","null","","","","","","","","","","","","","","","","",""
"html-keyboard-response","303","418016","0.0-5.0-5.0-0.43","69e913482ae5864d44e6387c","not_provided","desktop","0","0","0","","","","","","working_memory","","null","<div class=""fixation"">+</div>","null","","","","","","","","","","","","","","","","",""
