"trial_type","trial_index","time_elapsed","internal_node_id","subject_id","study_id","device_type","blur_count","fullscreen_exit_count","failed_attention_checks","success","timeout","failed_images","failed_audio","failed_video","phase","value","rt","stimulus","response","view_history","question_order","trial_name","block_type","trial_num","set_size","correct_response","accuracy","mapping","condition","prompt","flipped","attention","expected_answer","category","question_index","task"
"pavlovia","0","2604","0.0-0.0","6980990e5c9007100eb282b6","not_provided","desktop","0","0","0","","","","","","","","","","","","","","","","","","","","","","","","","","",""
"preload","1","3719","0.0-2.0","6980990e5c9007100eb282b6","not_provided","desktop","0","0","0","true","false","[]","[]","[]","","","","","","","","","","","","","","","","","","","","","",""
"html-keyboard-response","2","25312","0.0-3.0-0.0","6980990e5c9007100eb282b6","not_provided","desktop","0","0","0","","","","","","captcha","","","","","","","","","","","","","","","","","","","","",""
"fullscreen","3","31215","0.0-4.0","6980990e5c9007100eb282b6","not_provided","desktop","0","0","0","true","","","","","setup","","","","","","","","","","","","","","","","","","","","",""
"call-function","4","31216","0.0-5.0-0.0","6980990e5c9007100eb282b6","not_provided","desktop","0","0","0","","","","","","working_memory","","","","","","","","","","","","","","","","","","","","",""
"html-keyboard-response","5","53587","0.0-5.0-1.0","6980990e5c9007100eb282b6","not_provided","desktop","0","0","0","","","","","","working_memory","","22369","<div style=""text-align:center;font-family:sans-serif;""><p>Welcome to the luck game experiment!</p><p>This two-day experiment takes part in a study aimed at developing better clinical treatments.</p><p>We appreciate your participation and require your full concentration.</p><br><p>This is a two-day study. Payment (£6/hour) is only given upon completing both parts today and tomorrow.</p><p>You must finish the second part for compensation. After today, you'll receive an invitation for tomorrow's session.</p><p>Please ensure you can attend both sessions before proceeding. Otherwise, you may exit now.</p><p>If you have any questions, please contact us via prolific.</p><br><p>Please stay attentive and in fullscreen mode to ensure payment.</p><p>Thank you for participating!</p><br><p id=""continue-prompt"" style=""visibility:hidden;""><b>Press any key to continue.</b></p></div>"," ","","","","","","","","","","","","","","","","",""
"instructions","6","86526","0.0-5.0-2.0-0.0","6980990e5c9007100eb282b6","not_provided","desktop","0","0","0","","","","","","working_memory","","32937","","","[{""page_index"":0,""viewing_time"":2531},{""page_index"":1,""viewing_time"":1514},{""page_index"":2,""viewing_time"":5060},{""page_index"":3,""viewing_time"":2815},{""page_index"":4,""viewing_time"":6159},{""page_index"":5,""viewing_time"":6923},{""page_index"":6,""viewing_time"":4783},{""page_index"":7,""viewing_time"":1432},{""page_index"":8,""viewing_time"":1721}]","","","","","","","","","","","","","","","",""
"survey-multi-choice","7","124711","0.0-5.0-2.0-1.0","6980990e5c9007100eb282b6","not_provided","desktop","0","0","0","","","","","","working_memory","","38179","","{""set_size"":""4 or 8"",""steps"":""True"",""choose_square"":""Press the 's' or 'k' key."",""remember"":""The colors and locations of the 'memory' squares"",""task"":""To tell if the 'test' square is in the same color as the square previously appearing in this location""}","","[0,1,2,3,4]","test_squares_quiz","","","","","","","","","","","","","",""
"html-keyboard-response","8","128707","0.0-5.0-3.0-0.0","6980990e5c9007100eb282b6","not_provided","desktop","0","0","0","","","","","","working_memory","","3994","<p>We will now start some practice trials.<br><b>The practice trials will also include some trials in which you will need to remember only one square to make sure you understood the instructions.</b><br>You may already want to be ready with your fingers on '<b>s</b>' and '<b>k</b>'.<br><img class=""wm-example-img"" src=""images/examples/keyboard.png""><br><b style=""font-size:1.2em;"">&lsquo;S&rsquo; = SAME &nbsp;&nbsp;&nbsp; &lsquo;K&rsquo; = DIFFERENT</b><br><br><u>Please try to be as accurate as possible.</u><br><br><b>Press any key to begin</b></p>"," ","","","","","","","","","","","","","","","","",""
"html-keyboard-response","9","130736","0.0-5.0-3.0-1.0-0.0","6980990e5c9007100eb282b6","not_provided","desktop","0","0","0","","","","","","working_memory","","null","<div class=""fixation"">+</div>","null","","","","","","","","","","","","","","","","",""
"html-keyboard-response","10","130951","0.0-5.0-3.0-1.0-1.0","6980990e5c9007100eb282b6","not_provided","desktop","0","0","0","","","","","","working_memory","","null","<img class='upper1' src=images/squares/magenta.png><div class=""fixation"">+</div>","null","","","memory","practice","0","1","","","","","","","","","","",""
"html-keyboard-response","11","131862","0.0-5.0-3.0-1.0-2.0","6980990e5c9007100eb282b6","not_provided","desktop","0","0","0","","","","","","working_memory","","null","<div class=""fixation"">+</div>","null","","","","","","","","","","","","","","","","",""
"html-keyboard-response","12","133140","0.0-5.0-3.0-1.0-3.0","6980990e5c9007100eb282b6","not_provided","desktop","0","0","0","","","","","","working_memory","","1276","<img class='upper1' src=images/squares/green.png><div class=""fixation"">+</div>","k","","","test","practice","0","1","k","true","","","","","","","","",""
"html-keyboard-response","13","133656","0.0-5.0-3.0-1.0-4.0","6980990e5c9007100eb282b6","not_provided","desktop","0","0","0","","","","","","working_memory","","null","<div class=""fixation"">Correct</div>","null","","","","","","","","","","","","","","","","",""
"html-keyboard-response","14","134664","0.0-5.0-3.0-1.0-0.1","6980990e5c9007100eb282b6","not_provided","desktop","0","0","0","","","","","","working_memory","","null","<div class=""fixation"">+</div>","null","","","","","","","","","","","","","","","","",""
"html-keyboard-response","15","134874","0.0-5.0-3.0-1.0-1.1","6980990e5c9007100eb282b6","not_provided","desktop","0","0","0","","","","","","working_memory","","null","<img class='upper1' src=images/squares/blue.png><div class=""fixation"">+</div>","null","","","memory","practice","1","1","","","","","","","","","","",""
"html-keyboard-response","16","135785","0.0-5.0-3.0-1.0-2.1","6980990e5c9007100eb282b6","not_provided","desktop","0","0","0","","","","","","working_memory","","null","<div class=""fixation"">+</div>","null","","","","","","","","","","","","","","","","",""
"html-keyboard-response","17","136764","0.0-5.0-3.0-1.0-3.1","6980990e5c9007100eb282b6","not_provided","desktop","0","0","0","","","","","","working_memory","","978","<img class='upper1' src=images/squares/blue.png><div class=""fixation"">+</div>","s","","","test","practice","1","1","s","true","","","","","","","","",""
"html-keyboard-response","18","137267","0.0-5.0-3.0-1.0-4.1","6980990e5c9007100eb282b6","not_provided","desktop","0","0","0","","","","","","working_memory","","null","<div class=""fixation"">Correct</div>","null","","","","","","","","","","","","","","","","",""
"html-keyboard-response","19","138279","0.0-5.0-3.0-1.0-0.2","6980990e5c9007100eb282b6","not_provided","desktop","0","0","0","","","","","","working_memory","","null","<div class=""fixation"">+</div>","null","","","","","","","","","","","","","","","","",""
"html-keyboard-response","20","138481","0.0-5.0-3.0-1.0-1.2","6980990e5c9007100eb282b6","not_provided","desktop","0","0","0","","","","","","working_memory","","null","<img class='b' src=images/squares/magenta.png><img class='a' src=images/squares/brown.png><img class='f' src=images/squares/yellow.png><img class='e' src=images/squares/blue.png><img class='i' src=images/squares/red.png><img class='g' src=images/squares/orange.png><img class='k' src=images/squares/green.png><img class='j' src=images/squares/cyan.png><div class=""fixation"">+</div>","null","","","memory","practice","2","8","","","","","","","","","","",""
"html-keyboard-response","21","139393","0.0-5.0-3.0-1.0-2.2","6980990e5c9007100eb282b6","not_provided","desktop","0","0","0","","","","","","working_memory","","null","<div class=""fixation"">+</div>","null","","","","","","","","","","","","","","","","",""
"html-keyboard-response","22","140791","0.0-5.0-3.0-1.0-3.2","6980990e5c9007100eb282b6","not_provided","desktop","0","0","0","","","","","","working_memory","","1396","<img class='a' src=images/squares/brown.png><div class=""fixation"">+</div>","s","","","test","practice","2","8","s","true","","","","","","","","",""
"html-keyboard-response","23","141301","0.0-5.0-3.0-1.0-4.2","6980990e5c9007100eb282b6","not_provided","desktop","0","0","0","","","","","","working_memory","","null","<div class=""fixation"">Correct</div>","null","","","","","","","","","","","","","","","","",""
"html-keyboard-response","24","142307","0.0-5.0-3.0-1.0-0.3","6980990e5c9007100eb282b6","not_provided","desktop","0","0","0","","","","","","working_memory","","null","<div class=""fixation"">+</div>","null","","","","","","","","","","","","","","","","",""
"html-keyboard-response","25","142518","0.0-5.0-3.0-1.0-1.3","6980990e5c9007100eb282b6","not_provided","desktop","0","0","0","","","","","","working_memory","","null","<img class='lower2' src=images/squares/brown.png><div class=""fixation"">+</div>","null","","","memory","practice","3","1","","","","","","","","","","",""
"html-keyboard-response","26","143435","0.0-5.0-3.0-1.0-2.3","6980990e5c9007100eb282b6","not_provided","desktop","0","0","0","","","","","","working_memory","","null","<div class=""fixation"">+</div>","null","","","","","","","","","","","","","","","","",""
"html-keyboard-response","27","144166","0.0-5.0-3.0-1.0-3.3","6980990e5c9007100eb282b6","not_provided","desktop","0","0","0","","","","","","working_memory","","730","<img class='lower2' src=images/squares/brown.png><div class=""fixation"">+</div>","s","","","test","practice","3","1","s","true","","","","","","","","",""
"html-keyboard-response","28","144671","0.0-5.0-3.0-1.0-4.3","6980990e5c9007100eb282b6","not_provided","desktop","0","0","0","","","","","","working_memory","","null","<div class=""fixation"">Correct</div>","null","","","","","","","","","","","","","","","","",""
"html-keyboard-response","29","145682","0.0-5.0-3.0-1.0-0.4","6980990e5c9007100eb282b6","not_provided","desktop","0","0","0","","","","","","working_memory","","null","<div class=""fixation"">+</div>","null","","","","","","","","","","","","","","","","",""
"html-keyboard-response","30","145898","0.0-5.0-3.0-1.0-1.4","6980990e5c9007100eb282b6","not_provided","desktop","0","0","0","","","","","","working_memory","","null","<img class='b' src=images/squares/brown.png><img class='c' src=images/squares/black.png><img class='d' src=images/squares/magenta.png><img class='e' src=images/squares/blue.png><img class='i' src=images/squares/orange.png><img class='h' src=images/squares/red.png><img class='j' src=images/squares/yellow.png><img class='l' src=images/squares/cyan.png><div class=""fixation"">+</div>","null","","","memory","practice","4","8","","","","","","","","","","",""
"html-keyboard-response","31","146811","0.0-5.0-3.0-1.0-2.4","6980990e5c9007100eb282b6","not_provided","desktop","0","0","0","","","","","","working_memory","","null","<div class=""fixation"">+</div>","null","","","","","","","","","","","","","","","","",""
"html-keyboard-response","32","147871","0.0-5.0-3.0-1.0-3.4","6980990e5c9007100eb282b6","not_provided","desktop","0","0","0","","","","","","working_memory","","1059","<img class='i' src=images/squares/orange.png><div class=""fixation"">+</div>","k","","","test","practice","4","8","s","false","","","","","","","","",""
"html-keyboard-response","33","148374","0.0-5.0-3.0-1.0-4.4","6980990e5c9007100eb282b6","not_provided","desktop","0","0","0","","","","","","working_memory","","null","<div class=""fixation"">Incorrect</div>","null","","","","","","","","","","","","","","","","",""
"html-keyboard-response","34","149376","0.0-5.0-3.0-1.0-0.5","6980990e5c9007100eb282b6","not_provided","desktop","0","0","0","","","","","","working_memory","","null","<div class=""fixation"">+</div>","null","","","","","","","","","","","","","","","","",""
"html-keyboard-response","35","149588","0.0-5.0-3.0-1.0-1.5","6980990e5c9007100eb282b6","not_provided","desktop","0","0","0","","","","","","working_memory","","null","<img class='b' src=images/squares/brown.png><img class='e' src=images/squares/orange.png><img class='h' src=images/squares/red.png><img class='k' src=images/squares/cyan.png><div class=""fixation"">+</div>","null","","","memory","practice","5","4","","","","","","","","","","",""
"html-keyboard-response","36","150498","0.0-5.0-3.0-1.0-2.5","6980990e5c9007100eb282b6","not_provided","desktop","0","0","0","","","","","","working_memory","","null","<div class=""fixation"">+</div>","null","","","","","","","","","","","","","","","","",""
"html-keyboard-response","37","151493","0.0-5.0-3.0-1.0-3.5","6980990e5c9007100eb282b6","not_provided","desktop","0","0","0","","","","","","working_memory","","993","<img class='b' src=images/squares/green.png><div class=""fixation"">+</div>","k","","","test","practice","5","4","k","true","","","","","","","","",""
"html-keyboard-response","38","151996","0.0-5.0-3.0-1.0-4.5","6980990e5c9007100eb282b6","not_provided","desktop","0","0","0","","","","","","working_memory","","null","<div class=""fixation"">Correct</div>","null","","","","","","","","","","","","","","","","",""
"html-keyboard-response","39","153000","0.0-5.0-3.0-1.0-0.6","6980990e5c9007100eb282b6","not_provided","desktop","0","0","0","","","","","","working_memory","","null","<div class=""fixation"">+</div>","null","","","","","","","","","","","","","","","","",""
"html-keyboard-response","40","153215","0.0-5.0-3.0-1.0-1.6","6980990e5c9007100eb282b6","not_provided","desktop","0","0","0","","","","","","working_memory","","null","<img class='lower2' src=images/squares/brown.png><div class=""fixation"">+</div>","null","","","memory","practice","6","1","","","","","","","","","","",""
"html-keyboard-response","41","154117","0.0-5.0-3.0-1.0-2.6","6980990e5c9007100eb282b6","not_provided","desktop","0","0","0","","","","","","working_memory","","null","<div class=""fixation"">+</div>","null","","","","","","","","","","","","","","","","",""
"html-keyboard-response","42","155043","0.0-5.0-3.0-1.0-3.6","6980990e5c9007100eb282b6","not_provided","desktop","0","0","0","","","","","","working_memory","","925","<img class='lower2' src=images/squares/green.png><div class=""fixation"">+</div>","k","","","test","practice","6","1","k","true","","","","","","","","",""
"html-keyboard-response","43","155546","0.0-5.0-3.0-1.0-4.6","6980990e5c9007100eb282b6","not_provided","desktop","0","0","0","","","","","","working_memory","","null","<div class=""fixation"">Correct</div>","null","","","","","","","","","","","","","","","","",""
"html-keyboard-response","44","156556","0.0-5.0-3.0-1.0-0.7","6980990e5c9007100eb282b6","not_provided","desktop","0","0","0","","","","","","working_memory","","null","<div class=""fixation"">+</div>","null","","","","","","","","","","","","","","","","",""
"html-keyboard-response","45","156764","0.0-5.0-3.0-1.0-1.7","6980990e5c9007100eb282b6","not_provided","desktop","0","0","0","","","","","","working_memory","","null","<img class='c' src=images/squares/magenta.png><img class='a' src=images/squares/black.png><img class='e' src=images/squares/cyan.png><img class='d' src=images/squares/blue.png><img class='i' src=images/squares/red.png><img class='g' src=images/squares/orange.png><img class='l' src=images/squares/green.png><img class='k' src=images/squares/yellow.png><div class=""fixation"">+</div>","null","","","memory","practice","7","8","","","","","","","","","","",""
"html-keyboard-response","46","157675","0.0-5.0-3.0-1.0-2.7","6980990e5c9007100eb282b6","not_provided","desktop","0","0","0","","","","","","working_memory","","null","<div class=""fixation"">+</div>","null","","","","","","","","","","","","","","","","",""
"html-keyboard-response","47","158665","0.0-5.0-3.0-1.0-3.7","6980990e5c9007100eb282b6","not_provided","desktop","0","0","0","","","","","","working_memory","","988","<img class='e' src=images/squares/cyan.png><div class=""fixation"">+</div>","k","","","test","practice","7","8","s","false","","","","","","","","",""
"html-keyboard-response","48","159175","0.0-5.0-3.0-1.0-4.7","6980990e5c9007100eb282b6","not_provided","desktop","0","0","0","","","","","","working_memory","","null","<div class=""fixation"">Incorrect</div>","null","","","","","","","","","","","","","","","","",""
"html-keyboard-response","49","160180","0.0-5.0-3.0-1.0-0.8","6980990e5c9007100eb282b6","not_provided","desktop","0","0","0","","","","","","working_memory","","null","<div class=""fixation"">+</div>","null","","","","","","","","","","","","","","","","",""
"html-keyboard-response","50","160397","0.0-5.0-3.0-1.0-1.8","6980990e5c9007100eb282b6","not_provided","desktop","0","0","0","","","","","","working_memory","","null","<img class='b' src=images/squares/brown.png><img class='a' src=images/squares/blue.png><img class='d' src=images/squares/orange.png><img class='e' src=images/squares/black.png><img class='g' src=images/squares/cyan.png><img class='i' src=images/squares/red.png><img class='j' src=images/squares/magenta.png><img class='l' src=images/squares/green.png><div class=""fixation"">+</div>","null","","","memory","practice","8","8","","","","","","","","","","",""
"html-keyboard-response","51","161305","0.0-5.0-3.0-1.0-2.8","6980990e5c9007100eb282b6","not_provided","desktop","0","0","0","","","","","","working_memory","","null","<div class=""fixation"">+</div>","null","","","","","","","","","","","","","","","","",""
"html-keyboard-response","52","162313","0.0-5.0-3.0-1.0-3.8","6980990e5c9007100eb282b6","not_provided","desktop","0","0","0","","","","","","working_memory","","1006","<img class='a' src=images/squares/blue.png><div class=""fixation"">+</div>","s","","","test","practice","8","8","s","true","","","","","","","","",""
"html-keyboard-response","53","162819","0.0-5.0-3.0-1.0-4.8","6980990e5c9007100eb282b6","not_provided","desktop","0","0","0","","","","","","working_memory","","null","<div class=""fixation"">Correct</div>","null","","","","","","","","","","","","","","","","",""
"html-keyboard-response","54","163831","0.0-5.0-3.0-1.0-0.9","6980990e5c9007100eb282b6","not_provided","desktop","0","0","0","","","","","","working_memory","","null","<div class=""fixation"">+</div>","null","","","","","","","","","","","","","","","","",""
"html-keyboard-response","55","164045","0.0-5.0-3.0-1.0-1.9","6980990e5c9007100eb282b6","not_provided","desktop","0","0","0","","","","","","working_memory","","null","<img class='b' src=images/squares/yellow.png><img class='f' src=images/squares/red.png><img class='i' src=images/squares/blue.png><img class='j' src=images/squares/brown.png><div class=""fixation"">+</div>","null","","","memory","practice","9","4","","","","","","","","","","",""
"html-keyboard-response","56","164957","0.0-5.0-3.0-1.0-2.9","6980990e5c9007100eb282b6","not_provided","desktop","0","0","0","","","","","","working_memory","","null","<div class=""fixation"">+</div>","null","","","","","","","","","","","","","","","","",""
"html-keyboard-response","57","165667","0.0-5.0-3.0-1.0-3.9","6980990e5c9007100eb282b6","not_provided","desktop","0","0","0","","","","","","working_memory","","709","<img class='f' src=images/squares/red.png><div class=""fixation"">+</div>","s","","","test","practice","9","4","s","true","","","","","","","","",""
"html-keyboard-response","58","166179","0.0-5.0-3.0-1.0-4.9","6980990e5c9007100eb282b6","not_provided","desktop","0","0","0","","","","","","working_memory","","null","<div class=""fixation"">Correct</div>","null","","","","","","","","","","","","","","","","",""
"html-keyboard-response","59","167183","0.0-5.0-3.0-1.0-0.10","6980990e5c9007100eb282b6","not_provided","desktop","0","0","0","","","","","","working_memory","","null","<div class=""fixation"">+</div>","null","","","","","","","","","","","","","","","","",""
"html-keyboard-response","60","167397","0.0-5.0-3.0-1.0-1.10","6980990e5c9007100eb282b6","not_provided","desktop","0","0","0","","","","","","working_memory","","null","<img class='c' src=images/squares/cyan.png><img class='d' src=images/squares/yellow.png><img class='h' src=images/squares/red.png><img class='k' src=images/squares/brown.png><div class=""fixation"">+</div>","null","","","memory","practice","10","4","","","","","","","","","","",""
"html-keyboard-response","61","168308","0.0-5.0-3.0-1.0-2.10","6980990e5c9007100eb282b6","not_provided","desktop","0","0","0","","","","","","working_memory","","null","<div class=""fixation"">+</div>","null","","","","","","","","","","","","","","","","",""
"html-keyboard-response","62","169158","0.0-5.0-3.0-1.0-3.10","6980990e5c9007100eb282b6","not_provided","desktop","0","0","0","","","","","","working_memory","","849","<img class='k' src=images/squares/green.png><div class=""fixation"">+</div>","k","","","test","practice","10","4","k","true","","","","","","","","",""
"html-keyboard-response","63","169661","0.0-5.0-3.0-1.0-4.10","6980990e5c9007100eb282b6","not_provided","desktop","0","0","0","","","","","","working_memory","","null","<div class=""fixation"">Correct</div>","null","","","","","","","","","","","","","","","","",""
"html-keyboard-response","64","170677","0.0-5.0-3.0-1.0-0.11","6980990e5c9007100eb282b6","not_provided","desktop","0","0","0","","","","","","working_memory","","null","<div class=""fixation"">+</div>","null","","","","","","","","","","","","","","","","",""
"html-keyboard-response","65","170886","0.0-5.0-3.0-1.0-1.11","6980990e5c9007100eb282b6","not_provided","desktop","0","0","0","","","","","","working_memory","","null","<img class='upper1' src=images/squares/brown.png><div class=""fixation"">+</div>","null","","","memory","practice","11","1","","","","","","","","","","",""
"html-keyboard-response","66","171793","0.0-5.0-3.0-1.0-2.11","6980990e5c9007100eb282b6","not_provided","desktop","0","0","0","","","","","","working_memory","","null","<div class=""fixation"">+</div>","null","","","","","","","","","","","","","","","","",""
"html-keyboard-response","67","172547","0.0-5.0-3.0-1.0-3.11","6980990e5c9007100eb282b6","not_provided","desktop","0","0","0","","","","","","working_memory","","753","<img class='upper1' src=images/squares/magenta.png><div class=""fixation"">+</div>","k","","","test","practice","11","1","k","true","","","","","","","","",""
"html-keyboard-response","68","173051","0.0-5.0-3.0-1.0-4.11","6980990e5c9007100eb282b6","not_provided","desktop","0","0","0","","","","","","working_memory","","null","<div class=""fixation"">Correct</div>","null","","","","","","","","","","","","","","","","",""
"html-keyboard-response","69","174067","0.0-5.0-3.0-1.0-0.12","6980990e5c9007100eb282b6","not_provided","desktop","0","0","0","","","","","","working_memory","","null","<div class=""fixation"">+</div>","null","","","","","","","","","","","","","","","","",""
"html-keyboard-response","70","174269","0.0-5.0-3.0-1.0-1.12","6980990e5c9007100eb282b6","not_provided","desktop","0","0","0","","","","","","working_memory","","null","<img class='a' src=images/squares/black.png><img class='f' src=images/squares/cyan.png><img class='g' src=images/squares/orange.png><img class='k' src=images/squares/magenta.png><div class=""fixation"">+</div>","null","","","memory","practice","12","4","","","","","","","","","","",""
"html-keyboard-response","71","175182","0.0-5.0-3.0-1.0-2.12","6980990e5c9007100eb282b6","not_provided","desktop","0","0","0","","","","","","working_memory","","null","<div class=""fixation"">+</div>","null","","","","","","","","","","","","","","","","",""
"html-keyboard-response","72","175910","0.0-5.0-3.0-1.0-3.12","6980990e5c9007100eb282b6","not_provided","desktop","0","0","0","","","","","","working_memory","","726","<img class='g' src=images/squares/yellow.png><div class=""fixation"">+</div>","k","","","test","practice","12","4","k","true","","","","","","","","",""
"html-keyboard-response","73","176426","0.0-5.0-3.0-1.0-4.12","6980990e5c9007100eb282b6","not_provided","desktop","0","0","0","","","","","","working_memory","","null","<div class=""fixation"">Correct</div>","null","","","","","","","","","","","","","","","","",""
"html-keyboard-response","74","177435","0.0-5.0-3.0-1.0-0.13","6980990e5c9007100eb282b6","not_provided","desktop","0","0","0","","","","","","working_memory","","null","<div class=""fixation"">+</div>","null","","","","","","","","","","","","","","","","",""
"html-keyboard-response","75","177649","0.0-5.0-3.0-1.0-1.13","6980990e5c9007100eb282b6","not_provided","desktop","0","0","0","","","","","","working_memory","","null","<img class='a' src=images/squares/green.png><img class='c' src=images/squares/cyan.png><img class='f' src=images/squares/blue.png><img class='d' src=images/squares/red.png><img class='h' src=images/squares/orange.png><img class='g' src=images/squares/black.png><img class='l' src=images/squares/brown.png><img class='k' src=images/squares/magenta.png><div class=""fixation"">+</div>","null","","","memory","practice","13","8","","","","","","","","","","",""
"html-keyboard-response","76","178553","0.0-5.0-3.0-1.0-2.13","6980990e5c9007100eb282b6","not_provided","desktop","0","0","0","","","","","","working_memory","","null","<div class=""fixation"">+</div>","null","","","","","","","","","","","","","","","","",""
"html-keyboard-response","77","179482","0.0-5.0-3.0-1.0-3.13","6980990e5c9007100eb282b6","not_provided","desktop","0","0","0","","","","","","working_memory","","928","<img class='d' src=images/squares/red.png><div class=""fixation"">+</div>","s","","","test","practice","13","8","s","true","","","","","","","","",""
"html-keyboard-response","78","179988","0.0-5.0-3.0-1.0-4.13","6980990e5c9007100eb282b6","not_provided","desktop","0","0","0","","","","","","working_memory","","null","<div class=""fixation"">Correct</div>","null","","","","","","","","","","","","","","","","",""
"html-keyboard-response","79","180993","0.0-5.0-3.0-1.0-0.14","6980990e5c9007100eb282b6","not_provided","desktop","0","0","0","","","","","","working_memory","","null","<div class=""fixation"">+</div>","null","","","","","","","","","","","","","","","","",""
"html-keyboard-response","80","181210","0.0-5.0-3.0-1.0-1.14","6980990e5c9007100eb282b6","not_provided","desktop","0","0","0","","","","","","working_memory","","null","<img class='upper1' src=images/squares/black.png><div class=""fixation"">+</div>","null","","","memory","practice","14","1","","","","","","","","","","",""
"html-keyboard-response","81","182116","0.0-5.0-3.0-1.0-2.14","6980990e5c9007100eb282b6","not_provided","desktop","0","0","0","","","","","","working_memory","","null","<div class=""fixation"">+</div>","null","","","","","","","","","","","","","","","","",""
"html-keyboard-response","82","182642","0.0-5.0-3.0-1.0-3.14","6980990e5c9007100eb282b6","not_provided","desktop","0","0","0","","","","","","working_memory","","525","<img class='upper1' src=images/squares/magenta.png><div class=""fixation"">+</div>","k","","","test","practice","14","1","k","true","","","","","","","","",""
"html-keyboard-response","83","183149","0.0-5.0-3.0-1.0-4.14","6980990e5c9007100eb282b6","not_provided","desktop","0","0","0","","","","","","working_memory","","null","<div class=""fixation"">Correct</div>","null","","","","","","","","","","","","","","","","",""
"html-keyboard-response","84","187882","0.0-5.0-4.0","6980990e5c9007100eb282b6","not_provided","desktop","0","0","0","","","","","","working_memory","","4731","<div style=""text-align:center;font-family:sans-serif;""><p>Good job! You have finished the practice.</p><p>We will now start the real experiment.</p><p>Please try to be as accurate as possible.</p><p><b><u>Note: random guessing may risk your payment.</u></b></p><br><p><b>Press any key to begin.</b></p></div>"," ","","","","","","","","","","","","","","","","",""
"html-keyboard-response","85","188897","0.0-5.0-5.0-0.0","6980990e5c9007100eb282b6","not_provided","desktop","0","0","0","","","","","","working_memory","","null","<div class=""fixation"">+</div>","null","","","","","","","","","","","","","","","","",""
"html-keyboard-response","86","189103","0.0-5.0-5.0-1.0","6980990e5c9007100eb282b6","not_provided","desktop","0","0","0","","","","","","working_memory","","null","<img class='c' src=images/squares/yellow.png><img class='b' src=images/squares/brown.png><img class='e' src=images/squares/magenta.png><img class='f' src=images/squares/blue.png><img class='i' src=images/squares/black.png><img class='g' src=images/squares/green.png><img class='k' src=images/squares/orange.png><img class='l' src=images/squares/red.png><div class=""fixation"">+</div>","null","","","memory","exp","0","","","","","","","","","","","",""
"html-keyboard-response","87","190013","0.0-5.0-5.0-2.0","6980990e5c9007100eb282b6","not_provided","desktop","0","0","0","","","","","","working_memory","","null","<div class=""fixation"">+</div>","null","","","","","","","","","","","","","","","","",""
"html-keyboard-response","88","190812","0.0-5.0-5.0-3.0","6980990e5c9007100eb282b6","not_provided","desktop","0","0","0","","","","","","working_memory","","798","<img class='b' src=images/squares/brown.png><div class=""fixation"">+</div>","s","","","test_squares","exp","0","8","s","true","sk","s","","","","","","",""
"html-keyboard-response","89","191319","0.0-5.0-5.0-4.0","6980990e5c9007100eb282b6","not_provided","desktop","0","0","0","","","","","","working_memory","","null","<div class=""fixation"">Correct</div>","null","","","","","","","","","","","","","","","","",""
"html-keyboard-response","90","192334","0.0-5.0-5.0-0.1","6980990e5c9007100eb282b6","not_provided","desktop","0","0","0","","","","","","working_memory","","null","<div class=""fixation"">+</div>","null","","","","","","","","","","","","","","","","",""
"html-keyboard-response","91","192543","0.0-5.0-5.0-1.1","6980990e5c9007100eb282b6","not_provided","desktop","0","0","0","","","","","","working_memory","","null","<img class='b' src=images/squares/yellow.png><img class='a' src=images/squares/orange.png><img class='f' src=images/squares/magenta.png><img class='e' src=images/squares/brown.png><img class='h' src=images/squares/cyan.png><img class='g' src=images/squares/black.png><img class='k' src=images/squares/green.png><img class='l' src=images/squares/red.png><div class=""fixation"">+</div>","null","","","memory","exp","1","","","","","","","","","","","",""
"html-keyboard-response","92","193448","0.0-5.0-5.0-2.1","6980990e5c9007100eb282b6","not_provided","desktop","0","0","0","","","","","","working_memory","","null","<div class=""fixation"">+</div>","null","","","","","","","","","","","","","","","","",""
"html-keyboard-response","93","194392","0.0-5.0-5.0-3.1","6980990e5c9007100eb282b6","not_provided","desktop","0","0","0","","","","","","working_memory","","943","<img class='g' src=images/squares/black.png><div class=""fixation"">+</div>","k","","","test_squares","exp","1","8","s","false","sk","s","","","","","","",""
"html-keyboard-response","94","194901","0.0-5.0-5.0-4.1","6980990e5c9007100eb282b6","not_provided","desktop","0","0","0","","","","","","working_memory","","null","<div class=""fixation"">Incorrect</div>","null","","","","","","","","","","","","","","","","",""
"html-keyboard-response","95","195911","0.0-5.0-5.0-0.2","6980990e5c9007100eb282b6","not_provided","desktop","0","0","0","","","","","","working_memory","","null","<div class=""fixation"">+</div>","null","","","","","","","","","","","","","","","","",""
"html-keyboard-response","96","196125","0.0-5.0-5.0-1.2","6980990e5c9007100eb282b6","not_provided","desktop","0","0","0","","","","","","working_memory","","null","<img class='a' src=images/squares/black.png><img class='b' src=images/squares/magenta.png><img class='d' src=images/squares/cyan.png><img class='e' src=images/squares/red.png><img class='g' src=images/squares/yellow.png><img class='i' src=images/squares/brown.png><img class='l' src=images/squares/green.png><img class='j' src=images/squares/blue.png><div class=""fixation"">+</div>","null","","","memory","exp","2","","","","","","","","","","","",""
"html-keyboard-response","97","197038","0.0-5.0-5.0-2.2","6980990e5c9007100eb282b6","not_provided","desktop","0","0","0","","","","","","working_memory","","null","<div class=""fixation"">+</div>","null","","","","","","","","","","","","","","","","",""
"html-keyboard-response","98","197987","0.0-5.0-5.0-3.2","6980990e5c9007100eb282b6","not_provided","desktop","0","0","0","","","","","","working_memory","","947","<img class='j' src=images/squares/orange.png><div class=""fixation"">+</div>","k","","","test_squares","exp","2","8","k","true","sk","d","","","","","","",""
"html-keyboard-response","99","198491","0.0-5.0-5.0-4.2","6980990e5c9007100eb282b6","not_provided","desktop","0","0","0","","","","","","working_memory","","null","<div class=""fixation"">Correct</div>","null","","","","","","","","","","","","","","","","",""
"html-keyboard-response","100","199494","0.0-5.0-5.0-0.3","6980990e5c9007100eb282b6","not_provided","desktop","0","0","0","","","","","","working_memory","","null","<div class=""fixation"">+</div>","null","","","","","","","","","","","","","","","","",""
"html-keyboard-response","101","199711","0.0-5.0-5.0-1.3","6980990e5c9007100eb282b6","not_provided","desktop","0","0","0","","","","","","working_memory","","null","<img class='a' src=images/squares/magenta.png><img class='c' src=images/squares/yellow.png><img class='f' src=images/squares/orange.png><img class='d' src=images/squares/green.png><img class='h' src=images/squares/blue.png><img class='g' src=images/squares/cyan.png><img class='k' src=images/squares/red.png><img class='j' src=images/squares/black.png><div class=""fixation"">+</div>","null","","","memory","exp","3","","","","","","","","","","","",""
"html-keyboard-response","102","200619","0.0-5.0-5.0-2.3","6980990e5c9007100eb282b6","not_provided","desktop","0","0","0","","","","","","working_memory","","null","<div class=""fixation"">+</div>","null","","","","","","","","","","","","","","","","",""
"html-keyboard-response","103","201555","0.0-5.0-5.0-3.3","6980990e5c9007100eb282b6","not_provided","desktop","0","0","0","","","","","","working_memory","","936","<img class='c' src=images/squares/brown.png><div class=""fixation"">+</div>","k","","","test_squares","exp","3","8","k","true","sk","d","","","","","","",""
"html-keyboard-response","104","202065","0.0-5.0-5.0-4.3","6980990e5c9007100eb282b6","not_provided","desktop","0","0","0","","","","","","working_memory","","null","<div class=""fixation"">Correct</div>","null","","","","","","","","","","","","","","","","",""
"html-keyboard-response","105","203072","0.0-5.0-5.0-0.4","6980990e5c9007100eb282b6","not_provided","desktop","0","0","0","","","","","","working_memory","","null","<div class=""fixation"">+</div>","null","","","","","","","","","","","","","","","","",""
"html-keyboard-response","106","203280","0.0-5.0-5.0-1.4","6980990e5c9007100eb282b6","not_provided","desktop","0","0","0","","","","","","working_memory","","null","<img class='b' src=images/squares/red.png><img class='d' src=images/squares/green.png><img class='g' src=images/squares/magenta.png><img class='j' src=images/squares/blue.png><div class=""fixation"">+</div>","null","","","memory","exp","4","","","","","","","","","","","",""
"html-keyboard-response","107","204185","0.0-5.0-5.0-2.4","6980990e5c9007100eb282b6","not_provided","desktop","0","0","0","","","","","","working_memory","","null","<div class=""fixation"">+</div>","null","","","","","","","","","","","","","","","","",""
"html-keyboard-response","108","204910","0.0-5.0-5.0-3.4","6980990e5c9007100eb282b6","not_provided","desktop","0","0","0","","","","","","working_memory","","723","<img class='j' src=images/squares/blue.png><div class=""fixation"">+</div>","s","","","test_squares","exp","4","4","s","true","sk","s","","","","","","",""
"html-keyboard-response","109","205417","0.0-5.0-5.0-4.4","6980990e5c9007100eb282b6","not_provided","desktop","0","0","0","","","","","","working_memory","","null","<div class=""fixation"">Correct</div>","null","","","","","","","","","","","","","","","","",""
"html-keyboard-response","110","206424","0.0-5.0-5.0-0.5","6980990e5c9007100eb282b6","not_provided","desktop","0","0","0","","","","","","working_memory","","null","<div class=""fixation"">+</div>","null","","","","","","","","","","","","","","","","",""
"html-keyboard-response","111","206627","0.0-5.0-5.0-1.5","6980990e5c9007100eb282b6","not_provided","desktop","0","0","0","","","","","","working_memory","","null","<img class='b' src=images/squares/black.png><img class='a' src=images/squares/orange.png><img class='f' src=images/squares/yellow.png><img class='d' src=images/squares/blue.png><img class='i' src=images/squares/red.png><img class='g' src=images/squares/cyan.png><img class='l' src=images/squares/green.png><img class='j' src=images/squares/brown.png><div class=""fixation"">+</div>","null","","","memory","exp","5","","","","","","","","","","","",""
"html-keyboard-response","112","207532","0.0-5.0-5.0-2.5","6980990e5c9007100eb282b6","not_provided","desktop","0","0","0","","","","","","working_memory","","null","<div class=""fixation"">+</div>","null","","","","","","","","","","","","","","","","",""
"html-keyboard-response","113","208649","0.0-5.0-5.0-3.5","6980990e5c9007100eb282b6","not_provided","desktop","0","0","0","","","","","","working_memory","","1116","<img class='l' src=images/squares/green.png><div class=""fixation"">+</div>","s","","","test_squares","exp","5","8","s","true","sk","s","","","","","","",""
"html-keyboard-response","114","209162","0.0-5.0-5.0-4.5","6980990e5c9007100eb282b6","not_provided","desktop","0","0","0","","","","","","working_memory","","null","<div class=""fixation"">Correct</div>","null","","","","","","","","","","","","","","","","",""
"html-keyboard-response","115","210179","0.0-5.0-5.0-0.6","6980990e5c9007100eb282b6","not_provided","desktop","0","0","0","","","","","","working_memory","","null","<div class=""fixation"">+</div>","null","","","","","","","","","","","","","","","","",""
"html-keyboard-response","116","210391","0.0-5.0-5.0-1.6","6980990e5c9007100eb282b6","not_provided","desktop","0","0","0","","","","","","working_memory","","null","<img class='a' src=images/squares/brown.png><img class='f' src=images/squares/cyan.png><img class='g' src=images/squares/magenta.png><img class='j' src=images/squares/orange.png><div class=""fixation"">+</div>","null","","","memory","exp","6","","","","","","","","","","","",""
"html-keyboard-response","117","211300","0.0-5.0-5.0-2.6","6980990e5c9007100eb282b6","not_provided","desktop","0","0","0","","","","","","working_memory","","null","<div class=""fixation"">+</div>","null","","","","","","","","","","","","","","","","",""
"html-keyboard-response","118","212011","0.0-5.0-5.0-3.6","6980990e5c9007100eb282b6","not_provided","desktop","0","0","0","","","","","","working_memory","","710","<img class='a' src=images/squares/blue.png><div class=""fixation"">+</div>","k","","","test_squares","exp","6","4","k","true","sk","d","","","","","","",""
"html-keyboard-response","119","212528","0.0-5.0-5.0-4.6","6980990e5c9007100eb282b6","not_provided","desktop","0","0","0","","","","","","working_memory","","null","<div class=""fixation"">Correct</div>","null","","","","","","","","","","","","","","","","",""
"html-keyboard-response","120","213545","0.0-5.0-5.0-0.7","6980990e5c9007100eb282b6","not_provided","desktop","0","0","0","","","","","","working_memory","","null","<div class=""fixation"">+</div>","null","","","","","","","","","","","","","","","","",""
"html-keyboard-response","121","213760","0.0-5.0-5.0-1.7","6980990e5c9007100eb282b6","not_provided","desktop","0","0","0","","","","","","working_memory","","null","<img class='a' src=images/squares/magenta.png><img class='f' src=images/squares/green.png><img class='g' src=images/squares/black.png><img class='k' src=images/squares/red.png><div class=""fixation"">+</div>","null","","","memory","exp","7","","","","","","","","","","","",""
"html-keyboard-response","122","214663","0.0-5.0-5.0-2.7","6980990e5c9007100eb282b6","not_provided","desktop","0","0","0","","","","","","working_memory","","null","<div class=""fixation"">+</div>","null","","","","","","","","","","","","","","","","",""
"html-keyboard-response","123","215353","0.0-5.0-5.0-3.7","6980990e5c9007100eb282b6","not_provided","desktop","0","0","0","","","","","","working_memory","","689","<img class='a' src=images/squares/orange.png><div class=""fixation"">+</div>","k","","","test_squares","exp","7","4","k","true","sk","d","","","","","","",""
"html-keyboard-response","124","215864","0.0-5.0-5.0-4.7","6980990e5c9007100eb282b6","not_provided","desktop","0","0","0","","","","","","working_memory","","null","<div class=""fixation"">Correct</div>","null","","","","","","","","","","","","","","","","",""
"html-keyboard-response","125","216878","0.0-5.0-5.0-0.8","6980990e5c9007100eb282b6","not_provided","desktop","0","0","0","","","","","","working_memory","","null","<div class=""fixation"">+</div>","null","","","","","","","","","","","","","","","","",""
"html-keyboard-response","126","217094","0.0-5.0-5.0-1.8","6980990e5c9007100eb282b6","not_provided","desktop","0","0","0","","","","","","working_memory","","null","<img class='c' src=images/squares/black.png><img class='b' src=images/squares/cyan.png><img class='d' src=images/squares/red.png><img class='e' src=images/squares/magenta.png><img class='h' src=images/squares/orange.png><img class='i' src=images/squares/brown.png><img class='j' src=images/squares/blue.png><img class='k' src=images/squares/yellow.png><div class=""fixation"">+</div>","null","","","memory","exp","8","","","","","","","","","","","",""
"html-keyboard-response","127","218000","0.0-5.0-5.0-2.8","6980990e5c9007100eb282b6","not_provided","desktop","0","0","0","","","","","","working_memory","","null","<div class=""fixation"">+</div>","null","","","","","","","","","","","","","","","","",""
"html-keyboard-response","128","218955","0.0-5.0-5.0-3.8","6980990e5c9007100eb282b6","not_provided","desktop","0","0","0","","","","","","working_memory","","954","<img class='k' src=images/squares/yellow.png><div class=""fixation"">+</div>","k","","","test_squares","exp","8","8","s","false","sk","s","","","","","","",""
"html-keyboard-response","129","219460","0.0-5.0-5.0-4.8","6980990e5c9007100eb282b6","not_provided","desktop","0","0","0","","","","","","working_memory","","null","<div class=""fixation"">Incorrect</div>","null","","","","","","","","","","","","","","","","",""
"html-keyboard-response","130","220474","0.0-5.0-5.0-0.9","6980990e5c9007100eb282b6","not_provided","desktop","0","0","0","","","","","","working_memory","","null","<div class=""fixation"">+</div>","null","","","","","","","","","","","","","","","","",""
"html-keyboard-response","131","220691","0.0-5.0-5.0-1.9","6980990e5c9007100eb282b6","not_provided","desktop","0","0","0","","","","","","working_memory","","null","<img class='a' src=images/squares/orange.png><img class='e' src=images/squares/yellow.png><img class='h' src=images/squares/green.png><img class='k' src=images/squares/blue.png><div class=""fixation"">+</div>","null","","","memory","exp","9","","","","","","","","","","","",""
"html-keyboard-response","132","221598","0.0-5.0-5.0-2.9","6980990e5c9007100eb282b6","not_provided","desktop","0","0","0","","","","","","working_memory","","null","<div class=""fixation"">+</div>","null","","","","","","","","","","","","","","","","",""
"html-keyboard-response","133","222335","0.0-5.0-5.0-3.9","6980990e5c9007100eb282b6","not_provided","desktop","0","0","0","","","","","","working_memory","","736","<img class='a' src=images/squares/orange.png><div class=""fixation"">+</div>","s","","","test_squares","exp","9","4","s","true","sk","s","","","","","","",""
"html-keyboard-response","134","222845","0.0-5.0-5.0-4.9","6980990e5c9007100eb282b6","not_provided","desktop","0","0","0","","","","","","working_memory","","null","<div class=""fixation"">Correct</div>","null","","","","","","","","","","","","","","","","",""
"html-keyboard-response","135","223860","0.0-5.0-5.0-0.10","6980990e5c9007100eb282b6","not_provided","desktop","0","0","0","","","","","","working_memory","","null","<div class=""fixation"">+</div>","null","","","","","","","","","","","","","","","","",""
"html-keyboard-response","136","224072","0.0-5.0-5.0-1.10","6980990e5c9007100eb282b6","not_provided","desktop","0","0","0","","","","","","working_memory","","null","<img class='c' src=images/squares/orange.png><img class='b' src=images/squares/yellow.png><img class='d' src=images/squares/black.png><img class='e' src=images/squares/red.png><img class='h' src=images/squares/brown.png><img class='i' src=images/squares/blue.png><img class='k' src=images/squares/magenta.png><img class='l' src=images/squares/cyan.png><div class=""fixation"">+</div>","null","","","memory","exp","10","","","","","","","","","","","",""
"html-keyboard-response","137","224976","0.0-5.0-5.0-2.10","6980990e5c9007100eb282b6","not_provided","desktop","0","0","0","","","","","","working_memory","","null","<div class=""fixation"">+</div>","null","","","","","","","","","","","","","","","","",""
"html-keyboard-response","138","225810","0.0-5.0-5.0-3.10","6980990e5c9007100eb282b6","not_provided","desktop","0","0","0","","","","","","working_memory","","833","<img class='c' src=images/squares/green.png><div class=""fixation"">+</div>","k","","","test_squares","exp","10","8","k","true","sk","d","","","","","","",""
"html-keyboard-response","139","226313","0.0-5.0-5.0-4.10","6980990e5c9007100eb282b6","not_provided","desktop","0","0","0","","","","","","working_memory","","null","<div class=""fixation"">Correct</div>","null","","","","","","","","","","","","","","","","",""
"html-keyboard-response","140","227328","0.0-5.0-5.0-0.11","6980990e5c9007100eb282b6","not_provided","desktop","0","0","0","","","","","","working_memory","","null","<div class=""fixation"">+</div>","null","","","","","","","","","","","","","","","","",""
"html-keyboard-response","141","227545","0.0-5.0-5.0-1.11","6980990e5c9007100eb282b6","not_provided","desktop","0","0","0","","","","","","working_memory","","null","<img class='b' src=images/squares/orange.png><img class='d' src=images/squares/red.png><img class='h' src=images/squares/yellow.png><img class='j' src=images/squares/green.png><div class=""fixation"">+</div>","null","","","memory","exp","11","","","","","","","","","","","",""
"html-keyboard-response","142","228452","0.0-5.0-5.0-2.11","6980990e5c9007100eb282b6","not_provided","desktop","0","0","0","","","","","","working_memory","","null","<div class=""fixation"">+</div>","null","","","","","","","","","","","","","","","","",""
"html-keyboard-response","143","229381","0.0-5.0-5.0-3.11","6980990e5c9007100eb282b6","not_provided","desktop","0","0","0","","","","","","working_memory","","928","<img class='j' src=images/squares/magenta.png><div class=""fixation"">+</div>","k","","","test_squares","exp","11","4","k","true","sk","d","","","","","","",""
"html-keyboard-response","144","229893","0.0-5.0-5.0-4.11","6980990e5c9007100eb282b6","not_provided","desktop","0","0","0","","","","","","working_memory","","null","<div class=""fixation"">Correct</div>","null","","","","","","","","","","","","","","","","",""
"html-keyboard-response","145","230908","0.0-5.0-5.0-0.12","6980990e5c9007100eb282b6","not_provided","desktop","0","0","0","","","","","","working_memory","","null","<div class=""fixation"">+</div>","null","","","","","","","","","","","","","","","","",""
"html-keyboard-response","146","231110","0.0-5.0-5.0-1.12","6980990e5c9007100eb282b6","not_provided","desktop","0","0","0","","","","","","working_memory","","null","<img class='a' src=images/squares/red.png><img class='f' src=images/squares/blue.png><img class='h' src=images/squares/yellow.png><img class='j' src=images/squares/green.png><div class=""fixation"">+</div>","null","","","memory","exp","12","","","","","","","","","","","",""
"html-keyboard-response","147","232015","0.0-5.0-5.0-2.12","6980990e5c9007100eb282b6","not_provided","desktop","0","0","0","","","","","","working_memory","","null","<div class=""fixation"">+</div>","null","","","","","","","","","","","","","","","","",""
"html-keyboard-response","148","232814","0.0-5.0-5.0-3.12","6980990e5c9007100eb282b6","not_provided","desktop","0","0","0","","","","","","working_memory","","798","<img class='f' src=images/squares/black.png><div class=""fixation"">+</div>","k","","","test_squares","exp","12","4","k","true","sk","d","","","","","","",""
"html-keyboard-response","149","233330","0.0-5.0-5.0-4.12","6980990e5c9007100eb282b6","not_provided","desktop","0","0","0","","","","","","working_memory","","null","<div class=""fixation"">Correct</div>","null","","","","","","","","","","","","","","","","",""
"html-keyboard-response","150","234336","0.0-5.0-5.0-0.13","6980990e5c9007100eb282b6","not_provided","desktop","0","0","0","","","","","","working_memory","","null","<div class=""fixation"">+</div>","null","","","","","","","","","","","","","","","","",""
"html-keyboard-response","151","234546","0.0-5.0-5.0-1.13","6980990e5c9007100eb282b6","not_provided","desktop","0","0","0","","","","","","working_memory","","null","<img class='c' src=images/squares/blue.png><img class='e' src=images/squares/black.png><img class='h' src=images/squares/red.png><img class='l' src=images/squares/magenta.png><div class=""fixation"">+</div>","null","","","memory","exp","13","","","","","","","","","","","",""
"html-keyboard-response","152","235460","0.0-5.0-5.0-2.13","6980990e5c9007100eb282b6","not_provided","desktop","0","0","0","","","","","","working_memory","","null","<div class=""fixation"">+</div>","null","","","","","","","","","","","","","","","","",""
"html-keyboard-response","153","236228","0.0-5.0-5.0-3.13","6980990e5c9007100eb282b6","not_provided","desktop","0","0","0","","","","","","working_memory","","767","<img class='l' src=images/squares/brown.png><div class=""fixation"">+</div>","k","","","test_squares","exp","13","4","k","true","sk","d","","","","","","",""
"html-keyboard-response","154","236729","0.0-5.0-5.0-4.13","6980990e5c9007100eb282b6","not_provided","desktop","0","0","0","","","","","","working_memory","","null","<div class=""fixation"">Correct</div>","null","","","","","","","","","","","","","","","","",""
"html-keyboard-response","155","237733","0.0-5.0-5.0-0.14","6980990e5c9007100eb282b6","not_provided","desktop","0","0","0","","","","","","working_memory","","null","<div class=""fixation"">+</div>","null","","","","","","","","","","","","","","","","",""
"html-keyboard-response","156","237944","0.0-5.0-5.0-1.14","6980990e5c9007100eb282b6","not_provided","desktop","0","0","0","","","","","","working_memory","","null","<img class='c' src=images/squares/cyan.png><img class='b' src=images/squares/orange.png><img class='d' src=images/squares/blue.png><img class='e' src=images/squares/green.png><img class='h' src=images/squares/magenta.png><img class='g' src=images/squares/yellow.png><img class='j' src=images/squares/brown.png><img class='l' src=images/squares/red.png><div class=""fixation"">+</div>","null","","","memory","exp","14","","","","","","","","","","","",""
"html-keyboard-response","157","238859","0.0-5.0-5.0-2.14","6980990e5c9007100eb282b6","not_provided","desktop","0","0","0","","","","","","working_memory","","null","<div class=""fixation"">+</div>","null","","","","","","","","","","","","","","","","",""
"html-keyboard-response","158","239581","0.0-5.0-5.0-3.14","6980990e5c9007100eb282b6","not_provided","desktop","0","0","0","","","","","","working_memory","","719","<img class='d' src=images/squares/blue.png><div class=""fixation"">+</div>","s","","","test_squares","exp","14","8","s","true","sk","s","","","","","","",""
"html-keyboard-response","159","240089","0.0-5.0-5.0-4.14","6980990e5c9007100eb282b6","not_provided","desktop","0","0","0","","","","","","working_memory","","null","<div class=""fixation"">Correct</div>","null","","","","","","","","","","","","","","","","",""
"html-keyboard-response","160","241105","0.0-5.0-5.0-0.15","6980990e5c9007100eb282b6","not_provided","desktop","0","0","0","","","","","","working_memory","","null","<div class=""fixation"">+</div>","null","","","","","","","","","","","","","","","","",""
"html-keyboard-response","161","241308","0.0-5.0-5.0-1.15","6980990e5c9007100eb282b6","not_provided","desktop","0","0","0","","","","","","working_memory","","null","<img class='a' src=images/squares/yellow.png><img class='f' src=images/squares/blue.png><img class='h' src=images/squares/brown.png><img class='l' src=images/squares/black.png><div class=""fixation"">+</div>","null","","","memory","exp","15","","","","","","","","","","","",""
"html-keyboard-response","162","242215","0.0-5.0-5.0-2.15","6980990e5c9007100eb282b6","not_provided","desktop","0","0","0","","","","","","working_memory","","null","<div class=""fixation"">+</div>","null","","","","","","","","","","","","","","","","",""
"html-keyboard-response","163","242985","0.0-5.0-5.0-3.15","6980990e5c9007100eb282b6","not_provided","desktop","0","0","0","","","","","","working_memory","","768","<img class='l' src=images/squares/black.png><div class=""fixation"">+</div>","s","","","test_squares","exp","15","4","s","true","sk","s","","","","","","",""
"html-keyboard-response","164","243490","0.0-5.0-5.0-4.15","6980990e5c9007100eb282b6","not_provided","desktop","0","0","0","","","","","","working_memory","","null","<div class=""fixation"">Correct</div>","null","","","","","","","","","","","","","","","","",""
"html-keyboard-response","165","244497","0.0-5.0-5.0-0.16","6980990e5c9007100eb282b6","not_provided","desktop","0","0","0","","","","","","working_memory","","null","<div class=""fixation"">+</div>","null","","","","","","","","","","","","","","","","",""
"html-keyboard-response","166","244705","0.0-5.0-5.0-1.16","6980990e5c9007100eb282b6","not_provided","desktop","0","0","0","","","","","","working_memory","","null","<img class='a' src=images/squares/orange.png><img class='f' src=images/squares/brown.png><img class='i' src=images/squares/magenta.png><img class='j' src=images/squares/cyan.png><div class=""fixation"">+</div>","null","","","memory","exp","16","","","","","","","","","","","",""
"html-keyboard-response","167","245611","0.0-5.0-5.0-2.16","6980990e5c9007100eb282b6","not_provided","desktop","0","0","0","","","","","","working_memory","","null","<div class=""fixation"">+</div>","null","","","","","","","","","","","","","","","","",""
"html-keyboard-response","168","246415","0.0-5.0-5.0-3.16","6980990e5c9007100eb282b6","not_provided","desktop","0","0","0","","","","","","working_memory","","802","<img class='j' src=images/squares/green.png><div class=""fixation"">+</div>","k","","","test_squares","exp","16","4","k","true","sk","d","","","","","","",""
"html-keyboard-response","169","246924","0.0-5.0-5.0-4.16","6980990e5c9007100eb282b6","not_provided","desktop","0","0","0","","","","","","working_memory","","null","<div class=""fixation"">Correct</div>","null","","","","","","","","","","","","","","","","",""
"html-keyboard-response","170","247940","0.0-5.0-5.0-0.17","6980990e5c9007100eb282b6","not_provided","desktop","0","0","0","","","","","","working_memory","","null","<div class=""fixation"">+</div>","null","","","","","","","","","","","","","","","","",""
"html-keyboard-response","171","248152","0.0-5.0-5.0-1.17","6980990e5c9007100eb282b6","not_provided","desktop","0","0","0","","","","","","working_memory","","null","<img class='b' src=images/squares/brown.png><img class='a' src=images/squares/green.png><img class='e' src=images/squares/black.png><img class='d' src=images/squares/red.png><img class='g' src=images/squares/orange.png><img class='i' src=images/squares/magenta.png><img class='j' src=images/squares/blue.png><img class='l' src=images/squares/yellow.png><div class=""fixation"">+</div>","null","","","memory","exp","17","","","","","","","","","","","",""
"html-keyboard-response","172","249056","0.0-5.0-5.0-2.17","6980990e5c9007100eb282b6","not_provided","desktop","0","0","0","","","","","","working_memory","","null","<div class=""fixation"">+</div>","null","","","","","","","","","","","","","","","","",""
"html-keyboard-response","173","250163","0.0-5.0-5.0-3.17","6980990e5c9007100eb282b6","not_provided","desktop","0","0","0","","","","","","working_memory","","1106","<img class='b' src=images/squares/brown.png><div class=""fixation"">+</div>","s","","","test_squares","exp","17","8","s","true","sk","s","","","","","","",""
"html-keyboard-response","174","250673","0.0-5.0-5.0-4.17","6980990e5c9007100eb282b6","not_provided","desktop","0","0","0","","","","","","working_memory","","null","<div class=""fixation"">Correct</div>","null","","","","","","","","","","","","","","","","",""
"html-keyboard-response","175","251675","0.0-5.0-5.0-0.18","6980990e5c9007100eb282b6","not_provided","desktop","0","0","0","","","","","","working_memory","","null","<div class=""fixation"">+</div>","null","","","","","","","","","","","","","","","","",""
"html-keyboard-response","176","251876","0.0-5.0-5.0-1.18","6980990e5c9007100eb282b6","not_provided","desktop","0","0","0","","","","","","working_memory","","null","<img class='b' src=images/squares/green.png><img class='a' src=images/squares/red.png><img class='d' src=images/squares/yellow.png><img class='f' src=images/squares/brown.png><img class='g' src=images/squares/orange.png><img class='i' src=images/squares/cyan.png><img class='k' src=images/squares/magenta.png><img class='j' src=images/squares/black.png><div class=""fixation"">+</div>","null","","","memory","exp","18","","","","","","","","","","","",""
"html-keyboard-response","177","252779","0.0-5.0-5.0-2.18","6980990e5c9007100eb282b6","not_provided","desktop","0","0","0","","","","","","working_memory","","null","<div class=""fixation"">+</div>","null","","","","","","","","","","","","","","","","",""
"html-keyboard-response","178","253566","0.0-5.0-5.0-3.18","6980990e5c9007100eb282b6","not_provided","desktop","0","0","0","","","","","","working_memory","","785","<img class='a' src=images/squares/red.png><div class=""fixation"">+</div>","k","","","test_squares","exp","18","8","s","false","sk","s","","","","","","",""
"html-keyboard-response","179","254072","0.0-5.0-5.0-4.18","6980990e5c9007100eb282b6","not_provided","desktop","0","0","0","","","","","","working_memory","","null","<div class=""fixation"">Incorrect</div>","null","","","","","","","","","","","","","","","","",""
"html-keyboard-response","180","255085","0.0-5.0-5.0-0.19","6980990e5c9007100eb282b6","not_provided","desktop","0","0","0","","","","","","working_memory","","null","<div class=""fixation"">+</div>","null","","","","","","","","","","","","","","","","",""
"html-keyboard-response","181","255295","0.0-5.0-5.0-1.19","6980990e5c9007100eb282b6","not_provided","desktop","0","0","0","","","","","","working_memory","","null","<img class='b' src=images/squares/red.png><img class='f' src=images/squares/blue.png><img class='g' src=images/squares/magenta.png><img class='l' src=images/squares/green.png><div class=""fixation"">+</div>","null","","","memory","exp","19","","","","","","","","","","","",""
"html-keyboard-response","182","256205","0.0-5.0-5.0-2.19","6980990e5c9007100eb282b6","not_provided","desktop","0","0","0","","","","","","working_memory","","null","<div class=""fixation"">+</div>","null","","","","","","","","","","","","","","","","",""
"html-keyboard-response","183","256881","0.0-5.0-5.0-3.19","6980990e5c9007100eb282b6","not_provided","desktop","0","0","0","","","","","","working_memory","","675","<img class='g' src=images/squares/yellow.png><div class=""fixation"">+</div>","k","","","test_squares","exp","19","4","k","true","sk","d","","","","","","",""
"html-keyboard-response","184","257395","0.0-5.0-5.0-4.19","6980990e5c9007100eb282b6","not_provided","desktop","0","0","0","","","","","","working_memory","","null","<div class=""fixation"">Correct</div>","null","","","","","","","","","","","","","","","","",""
"html-keyboard-response","185","258402","0.0-5.0-5.0-0.20","6980990e5c9007100eb282b6","not_provided","desktop","0","0","0","","","","","","working_memory","","null","<div class=""fixation"">+</div>","null","","","","","","","","","","","","","","","","",""
"html-keyboard-response","186","258611","0.0-5.0-5.0-1.20","6980990e5c9007100eb282b6","not_provided","desktop","0","0","0","","","","","","working_memory","","null","<img class='c' src=images/squares/yellow.png><img class='f' src=images/squares/red.png><img class='i' src=images/squares/blue.png><img class='k' src=images/squares/brown.png><div class=""fixation"">+</div>","null","","","memory","exp","20","","","","","","","","","","","",""
"html-keyboard-response","187","259524","0.0-5.0-5.0-2.20","6980990e5c9007100eb282b6","not_provided","desktop","0","0","0","","","","","","working_memory","","null","<div class=""fixation"">+</div>","null","","","","","","","","","","","","","","","","",""
"html-keyboard-response","188","260224","0.0-5.0-5.0-3.20","6980990e5c9007100eb282b6","not_provided","desktop","0","0","0","","","","","","working_memory","","699","<img class='f' src=images/squares/black.png><div class=""fixation"">+</div>","k","","","test_squares","exp","20","4","k","true","sk","d","","","","","","",""
"html-keyboard-response","189","260726","0.0-5.0-5.0-4.20","6980990e5c9007100eb282b6","not_provided","desktop","0","0","0","","","","","","working_memory","","null","<div class=""fixation"">Correct</div>","null","","","","","","","","","","","","","","","","",""
"html-keyboard-response","190","261742","0.0-5.0-5.0-0.21","6980990e5c9007100eb282b6","not_provided","desktop","0","0","0","","","","","","working_memory","","null","<div class=""fixation"">+</div>","null","","","","","","","","","","","","","","","","",""
"html-keyboard-response","191","261959","0.0-5.0-5.0-1.21","6980990e5c9007100eb282b6","not_provided","desktop","0","0","0","","","","","","working_memory","","null","<img class='a' src=images/squares/yellow.png><img class='b' src=images/squares/red.png><img class='f' src=images/squares/brown.png><img class='d' src=images/squares/cyan.png><img class='i' src=images/squares/orange.png><img class='h' src=images/squares/magenta.png><img class='k' src=images/squares/blue.png><img class='l' src=images/squares/green.png><div class=""fixation"">+</div>","null","","","memory","exp","21","","","","","","","","","","","",""
"html-keyboard-response","192","262872","0.0-5.0-5.0-2.21","6980990e5c9007100eb282b6","not_provided","desktop","0","0","0","","","","","","working_memory","","null","<div class=""fixation"">+</div>","null","","","","","","","","","","","","","","","","",""
"html-keyboard-response","193","263799","0.0-5.0-5.0-3.21","6980990e5c9007100eb282b6","not_provided","desktop","0","0","0","","","","","","working_memory","","926","<img class='k' src=images/squares/blue.png><div class=""fixation"">+</div>","s","","","test_squares","exp","21","8","s","true","sk","s","","","","","","",""
"html-keyboard-response","194","264310","0.0-5.0-5.0-4.21","6980990e5c9007100eb282b6","not_provided","desktop","0","0","0","","","","","","working_memory","","null","<div class=""fixation"">Correct</div>","null","","","","","","","","","","","","","","","","",""
"html-keyboard-response","195","265326","0.0-5.0-5.0-0.22","6980990e5c9007100eb282b6","not_provided","desktop","0","0","0","","","","","","working_memory","","null","<div class=""fixation"">+</div>","null","","","","","","","","","","","","","","","","",""
"html-keyboard-response","196","265534","0.0-5.0-5.0-1.22","6980990e5c9007100eb282b6","not_provided","desktop","0","0","0","","","","","","working_memory","","null","<img class='a' src=images/squares/cyan.png><img class='c' src=images/squares/yellow.png><img class='e' src=images/squares/red.png><img class='d' src=images/squares/green.png><img class='h' src=images/squares/orange.png><img class='g' src=images/squares/black.png><img class='l' src=images/squares/blue.png><img class='j' src=images/squares/magenta.png><div class=""fixation"">+</div>","null","","","memory","exp","22","","","","","","","","","","","",""
"html-keyboard-response","197","266441","0.0-5.0-5.0-2.22","6980990e5c9007100eb282b6","not_provided","desktop","0","0","0","","","","","","working_memory","","null","<div class=""fixation"">+</div>","null","","","","","","","","","","","","","","","","",""
"html-keyboard-response","198","267479","0.0-5.0-5.0-3.22","6980990e5c9007100eb282b6","not_provided","desktop","0","0","0","","","","","","working_memory","","1036","<img class='j' src=images/squares/magenta.png><div class=""fixation"">+</div>","s","","","test_squares","exp","22","8","s","true","sk","s","","","","","","",""
"html-keyboard-response","199","267980","0.0-5.0-5.0-4.22","6980990e5c9007100eb282b6","not_provided","desktop","0","0","0","","","","","","working_memory","","null","<div class=""fixation"">Correct</div>","null","","","","","","","","","","","","","","","","",""
"html-keyboard-response","200","268985","0.0-5.0-5.0-0.23","6980990e5c9007100eb282b6","not_provided","desktop","0","0","0","","","","","","working_memory","","null","<div class=""fixation"">+</div>","null","","","","","","","","","","","","","","","","",""
"html-keyboard-response","201","269192","0.0-5.0-5.0-1.23","6980990e5c9007100eb282b6","not_provided","desktop","0","0","0","","","","","","working_memory","","null","<img class='c' src=images/squares/blue.png><img class='f' src=images/squares/red.png><img class='g' src=images/squares/cyan.png><img class='j' src=images/squares/yellow.png><div class=""fixation"">+</div>","null","","","memory","exp","23","","","","","","","","","","","",""
"html-keyboard-response","202","270108","0.0-5.0-5.0-2.23","6980990e5c9007100eb282b6","not_provided","desktop","0","0","0","","","","","","working_memory","","null","<div class=""fixation"">+</div>","null","","","","","","","","","","","","","","","","",""
"html-keyboard-response","203","271068","0.0-5.0-5.0-3.23","6980990e5c9007100eb282b6","not_provided","desktop","0","0","0","","","","","","working_memory","","958","<img class='f' src=images/squares/magenta.png><div class=""fixation"">+</div>","k","","","test_squares","exp","23","4","k","true","sk","d","","","","","","",""
"html-keyboard-response","204","271571","0.0-5.0-5.0-4.23","6980990e5c9007100eb282b6","not_provided","desktop","0","0","0","","","","","","working_memory","","null","<div class=""fixation"">Correct</div>","null","","","","","","","","","","","","","","","","",""
"html-keyboard-response","205","272573","0.0-5.0-5.0-0.24","6980990e5c9007100eb282b6","not_provided","desktop","0","0","0","","","","","","working_memory","","null","<div class=""fixation"">+</div>","null","","","","","","","","","","","","","","","","",""
"html-keyboard-response","206","272790","0.0-5.0-5.0-1.24","6980990e5c9007100eb282b6","not_provided","desktop","0","0","0","","","","","","working_memory","","null","<img class='a' src=images/squares/blue.png><img class='d' src=images/squares/cyan.png><img class='g' src=images/squares/orange.png><img class='j' src=images/squares/green.png><div class=""fixation"">+</div>","null","","","memory","exp","24","","","","","","","","","","","",""
"html-keyboard-response","207","273697","0.0-5.0-5.0-2.24","6980990e5c9007100eb282b6","not_provided","desktop","0","0","0","","","","","","working_memory","","null","<div class=""fixation"">+</div>","null","","","","","","","","","","","","","","","","",""
"html-keyboard-response","208","274431","0.0-5.0-5.0-3.24","6980990e5c9007100eb282b6","not_provided","desktop","0","0","0","","","","","","working_memory","","733","<img class='g' src=images/squares/orange.png><div class=""fixation"">+</div>","s","","","test_squares","exp","24","4","s","true","sk","s","","","","","","",""
"html-keyboard-response","209","274938","0.0-5.0-5.0-4.24","6980990e5c9007100eb282b6","not_provided","desktop","0","0","0","","","","","","working_memory","","null","<div class=""fixation"">Correct</div>","null","","","","","","","","","","","","","","","","",""
"html-keyboard-response","210","275954","0.0-5.0-5.0-0.25","6980990e5c9007100eb282b6","not_provided","desktop","0","0","0","","","","","","working_memory","","null","<div class=""fixation"">+</div>","null","","","","","","","","","","","","","","","","",""
"html-keyboard-response","211","276159","0.0-5.0-5.0-1.25","6980990e5c9007100eb282b6","not_provided","desktop","0","0","0","","","","","","working_memory","","null","<img class='a' src=images/squares/black.png><img class='b' src=images/squares/cyan.png><img class='f' src=images/squares/blue.png><img class='e' src=images/squares/red.png><img class='g' src=images/squares/green.png><img class='i' src=images/squares/magenta.png><img class='l' src=images/squares/orange.png><img class='j' src=images/squares/yellow.png><div class=""fixation"">+</div>","null","","","memory","exp","25","","","","","","","","","","","",""
"html-keyboard-response","212","277070","0.0-5.0-5.0-2.25","6980990e5c9007100eb282b6","not_provided","desktop","0","0","0","","","","","","working_memory","","null","<div class=""fixation"">+</div>","null","","","","","","","","","","","","","","","","",""
"html-keyboard-response","213","277890","0.0-5.0-5.0-3.25","6980990e5c9007100eb282b6","not_provided","desktop","0","0","0","","","","","","working_memory","","819","<img class='l' src=images/squares/brown.png><div class=""fixation"">+</div>","s","","","test_squares","exp","25","8","k","false","sk","d","","","","","","",""
"html-keyboard-response","214","278394","0.0-5.0-5.0-4.25","6980990e5c9007100eb282b6","not_provided","desktop","0","0","0","","","","","","working_memory","","null","<div class=""fixation"">Incorrect</div>","null","","","","","","","","","","","","","","","","",""
"html-keyboard-response","215","279410","0.0-5.0-5.0-0.26","6980990e5c9007100eb282b6","not_provided","desktop","0","0","0","","","","","","working_memory","","null","<div class=""fixation"">+</div>","null","","","","","","","","","","","","","","","","",""
"html-keyboard-response","216","279616","0.0-5.0-5.0-1.26","6980990e5c9007100eb282b6","not_provided","desktop","0","0","0","","","","","","working_memory","","null","<img class='b' src=images/squares/orange.png><img class='f' src=images/squares/cyan.png><img class='i' src=images/squares/black.png><img class='l' src=images/squares/brown.png><div class=""fixation"">+</div>","null","","","memory","exp","26","","","","","","","","","","","",""
"html-keyboard-response","217","280522","0.0-5.0-5.0-2.26","6980990e5c9007100eb282b6","not_provided","desktop","0","0","0","","","","","","working_memory","","null","<div class=""fixation"">+</div>","null","","","","","","","","","","","","","","","","",""
"html-keyboard-response","218","281410","0.0-5.0-5.0-3.26","6980990e5c9007100eb282b6","not_provided","desktop","0","0","0","","","","","","working_memory","","887","<img class='f' src=images/squares/red.png><div class=""fixation"">+</div>","k","","","test_squares","exp","26","4","k","true","sk","d","","","","","","",""
"html-keyboard-response","219","281922","0.0-5.0-5.0-4.26","6980990e5c9007100eb282b6","not_provided","desktop","0","0","0","","","","","","working_memory","","null","<div class=""fixation"">Correct</div>","null","","","","","","","","","","","","","","","","",""
"html-keyboard-response","220","282923","0.0-5.0-5.0-0.27","6980990e5c9007100eb282b6","not_provided","desktop","0","0","0","","","","","","working_memory","","null","<div class=""fixation"">+</div>","null","","","","","","","","","","","","","","","","",""
"html-keyboard-response","221","283139","0.0-5.0-5.0-1.27","6980990e5c9007100eb282b6","not_provided","desktop","0","0","0","","","","","","working_memory","","null","<img class='a' src=images/squares/cyan.png><img class='d' src=images/squares/brown.png><img class='g' src=images/squares/red.png><img class='j' src=images/squares/black.png><div class=""fixation"">+</div>","null","","","memory","exp","27","","","","","","","","","","","",""
"html-keyboard-response","222","284054","0.0-5.0-5.0-2.27","6980990e5c9007100eb282b6","not_provided","desktop","0","0","0","","","","","","working_memory","","null","<div class=""fixation"">+</div>","null","","","","","","","","","","","","","","","","",""
"html-keyboard-response","223","285234","0.0-5.0-5.0-3.27","6980990e5c9007100eb282b6","not_provided","desktop","0","0","0","","","","","","working_memory","","1177","<img class='g' src=images/squares/red.png><div class=""fixation"">+</div>","s","","","test_squares","exp","27","4","s","true","sk","s","","","","","","",""
"html-keyboard-response","224","285749","0.0-5.0-5.0-4.27","6980990e5c9007100eb282b6","not_provided","desktop","0","0","0","","","","","","working_memory","","null","<div class=""fixation"">Correct</div>","null","","","","","","","","","","","","","","","","",""
"html-keyboard-response","225","286754","0.0-5.0-5.0-0.28","6980990e5c9007100eb282b6","not_provided","desktop","0","0","0","","","","","","working_memory","","null","<div class=""fixation"">+</div>","null","","","","","","","","","","","","","","","","",""
"html-keyboard-response","226","286969","0.0-5.0-5.0-1.28","6980990e5c9007100eb282b6","not_provided","desktop","0","0","0","","","","","","working_memory","","null","<img class='c' src=images/squares/red.png><img class='d' src=images/squares/blue.png><img class='h' src=images/squares/green.png><img class='l' src=images/squares/black.png><div class=""fixation"">+</div>","null","","","memory","exp","28","","","","","","","","","","","",""
"html-keyboard-response","227","287875","0.0-5.0-5.0-2.28","6980990e5c9007100eb282b6","not_provided","desktop","0","0","0","","","","","","working_memory","","null","<div class=""fixation"">+</div>","null","","","","","","","","","","","","","","","","",""
"html-keyboard-response","228","289061","0.0-5.0-5.0-3.28","6980990e5c9007100eb282b6","not_provided","desktop","0","0","0","","","","","","working_memory","","1185","<img class='h' src=images/squares/brown.png><div class=""fixation"">+</div>","k","","","test_squares","exp","28","4","k","true","sk","d","","","","","","",""
"html-keyboard-response","229","289569","0.0-5.0-5.0-4.28","6980990e5c9007100eb282b6","not_provided","desktop","0","0","0","","","","","","working_memory","","null","<div class=""fixation"">Correct</div>","null","","","","","","","","","","","","","","","","",""
"html-keyboard-response","230","290584","0.0-5.0-5.0-0.29","6980990e5c9007100eb282b6","not_provided","desktop","0","0","0","","","","","","working_memory","","null","<div class=""fixation"">+</div>","null","","","","","","","","","","","","","","","","",""
"html-keyboard-response","231","290787","0.0-5.0-5.0-1.29","6980990e5c9007100eb282b6","not_provided","desktop","0","0","0","","","","","","working_memory","","null","<img class='b' src=images/squares/yellow.png><img class='e' src=images/squares/cyan.png><img class='g' src=images/squares/black.png><img class='k' src=images/squares/blue.png><div class=""fixation"">+</div>","null","","","memory","exp","29","","","","","","","","","","","",""
"html-keyboard-response","232","291691","0.0-5.0-5.0-2.29","6980990e5c9007100eb282b6","not_provided","desktop","0","0","0","","","","","","working_memory","","null","<div class=""fixation"">+</div>","null","","","","","","","","","","","","","","","","",""
"html-keyboard-response","233","292387","0.0-5.0-5.0-3.29","6980990e5c9007100eb282b6","not_provided","desktop","0","0","0","","","","","","working_memory","","694","<img class='b' src=images/squares/yellow.png><div class=""fixation"">+</div>","s","","","test_squares","exp","29","4","s","true","sk","s","","","","","","",""
"html-keyboard-response","234","292893","0.0-5.0-5.0-4.29","6980990e5c9007100eb282b6","not_provided","desktop","0","0","0","","","","","","working_memory","","null","<div class=""fixation"">Correct</div>","null","","","","","","","","","","","","","","","","",""
"html-keyboard-response","235","293898","0.0-5.0-5.0-0.30","6980990e5c9007100eb282b6","not_provided","desktop","0","0","0","","","","","","working_memory","","null","<div class=""fixation"">+</div>","null","","","","","","","","","","","","","","","","",""
"html-keyboard-response","236","294105","0.0-5.0-5.0-1.30","6980990e5c9007100eb282b6","not_provided","desktop","0","0","0","","","","","","working_memory","","null","<img class='c' src=images/squares/brown.png><img class='b' src=images/squares/yellow.png><img class='d' src=images/squares/orange.png><img class='f' src=images/squares/magenta.png><img class='h' src=images/squares/black.png><img class='i' src=images/squares/blue.png><img class='k' src=images/squares/red.png><img class='j' src=images/squares/cyan.png><div class=""fixation"">+</div>","null","","","memory","exp","30","","","","","","","","","","","",""
"html-keyboard-response","237","295021","0.0-5.0-5.0-2.30","6980990e5c9007100eb282b6","not_provided","desktop","0","0","0","","","","","","working_memory","","null","<div class=""fixation"">+</div>","null","","","","","","","","","","","","","","","","",""
"html-keyboard-response","238","295823","0.0-5.0-5.0-3.30","6980990e5c9007100eb282b6","not_provided","desktop","0","0","0","","","","","","working_memory","","802","<img class='k' src=images/squares/red.png><div class=""fixation"">+</div>","k","","","test_squares","exp","30","8","s","false","sk","s","","","","","","",""
"html-keyboard-response","239","296333","0.0-5.0-5.0-4.30","6980990e5c9007100eb282b6","not_provided","desktop","0","0","0","","","","","","working_memory","","null","<div class=""fixation"">Incorrect</div>","null","","","","","","","","","","","","","","","","",""
"html-keyboard-response","240","297345","0.0-5.0-5.0-0.31","6980990e5c9007100eb282b6","not_provided","desktop","0","0","0","","","","","","working_memory","","null","<div class=""fixation"">+</div>","null","","","","","","","","","","","","","","","","",""
"html-keyboard-response","241","297555","0.0-5.0-5.0-1.31","6980990e5c9007100eb282b6","not_provided","desktop","0","0","0","","","","","","working_memory","","null","<img class='a' src=images/squares/green.png><img class='c' src=images/squares/cyan.png><img class='d' src=images/squares/orange.png><img class='f' src=images/squares/blue.png><img class='g' src=images/squares/red.png><img class='h' src=images/squares/yellow.png><img class='k' src=images/squares/magenta.png><img class='l' src=images/squares/black.png><div class=""fixation"">+</div>","null","","","memory","exp","31","","","","","","","","","","","",""
"html-keyboard-response","242","298470","0.0-5.0-5.0-2.31","6980990e5c9007100eb282b6","not_provided","desktop","0","0","0","","","","","","working_memory","","null","<div class=""fixation"">+</div>","null","","","","","","","","","","","","","","","","",""
"html-keyboard-response","243","299969","0.0-5.0-5.0-3.31","6980990e5c9007100eb282b6","not_provided","desktop","0","0","0","","","","","","working_memory","","1498","<img class='h' src=images/squares/brown.png><div class=""fixation"">+</div>","s","","","test_squares","exp","31","8","k","false","sk","d","","","","","","",""
"html-keyboard-response","244","300470","0.0-5.0-5.0-4.31","6980990e5c9007100eb282b6","not_provided","desktop","0","0","0","","","","","","working_memory","","null","<div class=""fixation"">Incorrect</div>","null","","","","","","","","","","","","","","","","",""
"html-keyboard-response","245","301474","0.0-5.0-5.0-0.32","6980990e5c9007100eb282b6","not_provided","desktop","0","0","0","","","","","","working_memory","","null","<div class=""fixation"">+</div>","null","","","","","","","","","","","","","","","","",""
"html-keyboard-response","246","301690","0.0-5.0-5.0-1.32","6980990e5c9007100eb282b6","not_provided","desktop","0","0","0","","","","","","working_memory","","null","<img class='b' src=images/squares/magenta.png><img class='d' src=images/squares/blue.png><img class='h' src=images/squares/red.png><img class='k' src=images/squares/black.png><div class=""fixation"">+</div>","null","","","memory","exp","32","","","","","","","","","","","",""
"html-keyboard-response","247","302601","0.0-5.0-5.0-2.32","6980990e5c9007100eb282b6","not_provided","desktop","0","0","0","","","","","","working_memory","","null","<div class=""fixation"">+</div>","null","","","","","","","","","","","","","","","","",""
"html-keyboard-response","248","303495","0.0-5.0-5.0-3.32","6980990e5c9007100eb282b6","not_provided","desktop","0","0","0","","","","","","working_memory","","893","<img class='h' src=images/squares/cyan.png><div class=""fixation"">+</div>","k","","","test_squares","exp","32","4","k","true","sk","d","","","","","","",""
"html-keyboard-response","249","304007","0.0-5.0-5.0-4.32","6980990e5c9007100eb282b6","not_provided","desktop","0","0","0","","","","","","working_memory","","null","<div class=""fixation"">Correct</div>","null","","","","","","","","","","","","","","","","",""
"html-keyboard-response","250","305015","0.0-5.0-5.0-0.33","6980990e5c9007100eb282b6","not_provided","desktop","0","0","0","","","","","","working_memory","","null","<div class=""fixation"">+</div>","null","","","","","","","","","","","","","","","","",""
"html-keyboard-response","251","305219","0.0-5.0-5.0-1.33","6980990e5c9007100eb282b6","not_provided","desktop","0","0","0","","","","","","working_memory","","null","<img class='c' src=images/squares/green.png><img class='e' src=images/squares/cyan.png><img class='h' src=images/squares/black.png><img class='l' src=images/squares/magenta.png><div class=""fixation"">+</div>","null","","","memory","exp","33","","","","","","","","","","","",""
"html-keyboard-response","252","306123","0.0-5.0-5.0-2.33","6980990e5c9007100eb282b6","not_provided","desktop","0","0","0","","","","","","working_memory","","null","<div class=""fixation"">+</div>","null","","","","","","","","","","","","","","","","",""
"html-keyboard-response","253","306903","0.0-5.0-5.0-3.33","6980990e5c9007100eb282b6","not_provided","desktop","0","0","0","","","","","","working_memory","","779","<img class='h' src=images/squares/black.png><div class=""fixation"">+</div>","s","","","test_squares","exp","33","4","s","true","sk","s","","","","","","",""
"html-keyboard-response","254","307410","0.0-5.0-5.0-4.33","6980990e5c9007100eb282b6","not_provided","desktop","0","0","0","","","","","","working_memory","","null","<div class=""fixation"">Correct</div>","null","","","","","","","","","","","","","","","","",""
"html-keyboard-response","255","308413","0.0-5.0-5.0-0.34","6980990e5c9007100eb282b6","not_provided","desktop","0","0","0","","","","","","working_memory","","null","<div class=""fixation"">+</div>","null","","","","","","","","","","","","","","","","",""
"html-keyboard-response","256","308619","0.0-5.0-5.0-1.34","6980990e5c9007100eb282b6","not_provided","desktop","0","0","0","","","","","","working_memory","","null","<img class='c' src=images/squares/green.png><img class='a' src=images/squares/brown.png><img class='f' src=images/squares/orange.png><img class='e' src=images/squares/blue.png><img class='i' src=images/squares/black.png><img class='g' src=images/squares/red.png><img class='l' src=images/squares/yellow.png><img class='j' src=images/squares/magenta.png><div class=""fixation"">+</div>","null","","","memory","exp","34","","","","","","","","","","","",""
"html-keyboard-response","257","309535","0.0-5.0-5.0-2.34","6980990e5c9007100eb282b6","not_provided","desktop","0","0","0","","","","","","working_memory","","null","<div class=""fixation"">+</div>","null","","","","","","","","","","","","","","","","",""
"html-keyboard-response","258","310293","0.0-5.0-5.0-3.34","6980990e5c9007100eb282b6","not_provided","desktop","0","0","0","","","","","","working_memory","","757","<img class='i' src=images/squares/black.png><div class=""fixation"">+</div>","s","","","test_squares","exp","34","8","s","true","sk","s","","","","","","",""
"html-keyboard-response","259","310806","0.0-5.0-5.0-4.34","6980990e5c9007100eb282b6","not_provided","desktop","0","0","0","","","","","","working_memory","","null","<div class=""fixation"">Correct</div>","null","","","","","","","","","","","","","","","","",""
"html-keyboard-response","260","311813","0.0-5.0-5.0-0.35","6980990e5c9007100eb282b6","not_provided","desktop","0","0","0","","","","","","working_memory","","null","<div class=""fixation"">+</div>","null","","","","","","","","","","","","","","","","",""
"html-keyboard-response","261","312017","0.0-5.0-5.0-1.35","6980990e5c9007100eb282b6","not_provided","desktop","0","0","0","","","","","","working_memory","","null","<img class='c' src=images/squares/green.png><img class='a' src=images/squares/red.png><img class='e' src=images/squares/brown.png><img class='d' src=images/squares/cyan.png><img class='g' src=images/squares/black.png><img class='i' src=images/squares/blue.png><img class='j' src=images/squares/yellow.png><img class='k' src=images/squares/magenta.png><div class=""fixation"">+</div>","null","","","memory","exp","35","","","","","","","","","","","",""
"html-keyboard-response","262","312922","0.0-5.0-5.0-2.35","6980990e5c9007100eb282b6","not_provided","desktop","0","0","0","","","","","","working_memory","","null","<div class=""fixation"">+</div>","null","","","","","","","","","","","","","","","","",""
"html-keyboard-response","263","313604","0.0-5.0-5.0-3.35","6980990e5c9007100eb282b6","not_provided","desktop","0","0","0","","","","","","working_memory","","681","<img class='i' src=images/squares/orange.png><div class=""fixation"">+</div>","k","","","test_squares","exp","35","8","k","true","sk","d","","","","","","",""
"html-keyboard-response","264","314121","0.0-5.0-5.0-4.35","6980990e5c9007100eb282b6","not_provided","desktop","0","0","0","","","","","","working_memory","","null","<div class=""fixation"">Correct</div>","null","","","","","","","","","","","","","","","","",""
"html-keyboard-response","265","315129","0.0-5.0-5.0-0.36","6980990e5c9007100eb282b6","not_provided","desktop","0","0","0","","","","","","working_memory","","null","<div class=""fixation"">+</div>","null","","","","","","","","","","","","","","","","",""
"html-keyboard-response","266","315332","0.0-5.0-5.0-1.36","6980990e5c9007100eb282b6","not_provided","desktop","0","0","0","","","","","","working_memory","","null","<img class='c' src=images/squares/green.png><img class='f' src=images/squares/magenta.png><img class='i' src=images/squares/blue.png><img class='k' src=images/squares/cyan.png><div class=""fixation"">+</div>","null","","","memory","exp","36","","","","","","","","","","","",""
"html-keyboard-response","267","316249","0.0-5.0-5.0-2.36","6980990e5c9007100eb282b6","not_provided","desktop","0","0","0","","","","","","working_memory","","null","<div class=""fixation"">+</div>","null","","","","","","","","","","","","","","","","",""
"html-keyboard-response","268","317013","0.0-5.0-5.0-3.36","6980990e5c9007100eb282b6","not_provided","desktop","0","0","0","","","","","","working_memory","","762","<img class='c' src=images/squares/green.png><div class=""fixation"">+</div>","s","","","test_squares","exp","36","4","s","true","sk","s","","","","","","",""
"html-keyboard-response","269","317519","0.0-5.0-5.0-4.36","6980990e5c9007100eb282b6","not_provided","desktop","0","0","0","","","","","","working_memory","","null","<div class=""fixation"">Correct</div>","null","","","","","","","","","","","","","","","","",""
"html-keyboard-response","270","318532","0.0-5.0-5.0-0.37","6980990e5c9007100eb282b6","not_provided","desktop","0","0","0","","","","","","working_memory","","null","<div class=""fixation"">+</div>","null","","","","","","","","","","","","","","","","",""
"html-keyboard-response","271","318746","0.0-5.0-5.0-1.37","6980990e5c9007100eb282b6","not_provided","desktop","0","0","0","","","","","","working_memory","","null","<img class='b' src=images/squares/red.png><img class='e' src=images/squares/cyan.png><img class='g' src=images/squares/blue.png><img class='l' src=images/squares/yellow.png><div class=""fixation"">+</div>","null","","","memory","exp","37","","","","","","","","","","","",""
"html-keyboard-response","272","319663","0.0-5.0-5.0-2.37","6980990e5c9007100eb282b6","not_provided","desktop","0","0","0","","","","","","working_memory","","null","<div class=""fixation"">+</div>","null","","","","","","","","","","","","","","","","",""
"html-keyboard-response","273","320461","0.0-5.0-5.0-3.37","6980990e5c9007100eb282b6","not_provided","desktop","0","0","0","","","","","","working_memory","","797","<img class='b' src=images/squares/magenta.png><div class=""fixation"">+</div>","k","","","test_squares","exp","37","4","k","true","sk","d","","","","","","",""
"html-keyboard-response","274","320970","0.0-5.0-5.0-4.37","6980990e5c9007100eb282b6","not_provided","desktop","0","0","0","","","","","","working_memory","","null","<div class=""fixation"">Correct</div>","null","","","","","","","","","","","","","","","","",""
"html-keyboard-response","275","321985","0.0-5.0-5.0-0.38","6980990e5c9007100eb282b6","not_provided","desktop","0","0","0","","","","","","working_memory","","null","<div class=""fixation"">+</div>","null","","","","","","","","","","","","","","","","",""
"html-keyboard-response","276","322195","0.0-5.0-5.0-1.38","6980990e5c9007100eb282b6","not_provided","desktop","0","0","0","","","","","","working_memory","","null","<img class='a' src=images/squares/magenta.png><img class='d' src=images/squares/red.png><img class='g' src=images/squares/brown.png><img class='k' src=images/squares/yellow.png><div class=""fixation"">+</div>","null","","","memory","exp","38","","","","","","","","","","","",""
"html-keyboard-response","277","323103","0.0-5.0-5.0-2.38","6980990e5c9007100eb282b6","not_provided","desktop","0","0","0","","","","","","working_memory","","null","<div class=""fixation"">+</div>","null","","","","","","","","","","","","","","","","",""
"html-keyboard-response","278","324187","0.0-5.0-5.0-3.38","6980990e5c9007100eb282b6","not_provided","desktop","0","0","0","","","","","","working_memory","","1083","<img class='g' src=images/squares/green.png><div class=""fixation"">+</div>","k","","","test_squares","exp","38","4","k","true","sk","d","","","","","","",""
"html-keyboard-response","279","324699","0.0-5.0-5.0-4.38","6980990e5c9007100eb282b6","not_provided","desktop","0","0","0","","","","","","working_memory","","null","<div class=""fixation"">Correct</div>","null","","","","","","","","","","","","","","","","",""
"html-keyboard-response","280","325704","0.0-5.0-5.0-0.39","6980990e5c9007100eb282b6","not_provided","desktop","0","0","0","","","","","","working_memory","","null","<div class=""fixation"">+</div>","null","","","","","","","","","","","","","","","","",""
"html-keyboard-response","281","325919","0.0-5.0-5.0-1.39","6980990e5c9007100eb282b6","not_provided","desktop","0","0","0","","","","","","working_memory","","null","<img class='a' src=images/squares/cyan.png><img class='f' src=images/squares/blue.png><img class='g' src=images/squares/magenta.png><img class='j' src=images/squares/yellow.png><div class=""fixation"">+</div>","null","","","memory","exp","39","","","","","","","","","","","",""
"html-keyboard-response","282","326824","0.0-5.0-5.0-2.39","6980990e5c9007100eb282b6","not_provided","desktop","0","0","0","","","","","","working_memory","","null","<div class=""fixation"">+</div>","null","","","","","","","","","","","","","","","","",""
"html-keyboard-response","283","327579","0.0-5.0-5.0-3.39","6980990e5c9007100eb282b6","not_provided","desktop","0","0","0","","","","","","working_memory","","754","<img class='j' src=images/squares/brown.png><div class=""fixation"">+</div>","k","","","test_squares","exp","39","4","k","true","sk","d","","","","","","",""
"html-keyboard-response","284","328082","0.0-5.0-5.0-4.39","6980990e5c9007100eb282b6","not_provided","desktop","0","0","0","","","","","","working_memory","","null","<div class=""fixation"">Correct</div>","null","","","","","","","","","","","","","","","","",""
"html-keyboard-response","285","329097","0.0-5.0-5.0-0.40","6980990e5c9007100eb282b6","not_provided","desktop","0","0","0","","","","","","working_memory","","null","<div class=""fixation"">+</div>","null","","","","","","","","","","","","","","","","",""
"html-keyboard-response","286","329301","0.0-5.0-5.0-1.40","6980990e5c9007100eb282b6","not_provided","desktop","0","0","0","","","","","","working_memory","","null","<img class='b' src=images/squares/cyan.png><img class='a' src=images/squares/red.png><img class='d' src=images/squares/black.png><img class='f' src=images/squares/yellow.png><img class='g' src=images/squares/blue.png><img class='i' src=images/squares/green.png><img class='j' src=images/squares/brown.png><img class='k' src=images/squares/orange.png><div class=""fixation"">+</div>","null","","","memory","exp","40","","","","","","","","","","","",""
"html-keyboard-response","287","330206","0.0-5.0-5.0-2.40","6980990e5c9007100eb282b6","not_provided","desktop","0","0","0","","","","","","working_memory","","null","<div class=""fixation"">+</div>","null","","","","","","","","","","","","","","","","",""
"html-keyboard-response","288","330990","0.0-5.0-5.0-3.40","6980990e5c9007100eb282b6","not_provided","desktop","0","0","0","","","","","","working_memory","","782","<img class='f' src=images/squares/magenta.png><div class=""fixation"">+</div>","s","","","test_squares","exp","40","8","k","false","sk","d","","","","","","",""
"html-keyboard-response","289","331501","0.0-5.0-5.0-4.40","6980990e5c9007100eb282b6","not_provided","desktop","0","0","0","","","","","","working_memory","","null","<div class=""fixation"">Incorrect</div>","null","","","","","","","","","","","","","","","","",""
"html-keyboard-response","290","332502","0.0-5.0-5.0-0.41","6980990e5c9007100eb282b6","not_provided","desktop","0","0","0","","","","","","working_memory","","null","<div class=""fixation"">+</div>","null","","","","","","","","","","","","","","","","",""
"html-keyboard-response","291","332703","0.0-5.0-5.0-1.41","6980990e5c9007100eb282b6","not_provided","desktop","0","0","0","","","","","","working_memory","","null","<img class='b' src=images/squares/yellow.png><img class='a' src=images/squares/red.png><img class='e' src=images/squares/blue.png><img class='f' src=images/squares/brown.png><img class='h' src=images/squares/magenta.png><img class='g' src=images/squares/orange.png><img class='j' src=images/squares/black.png><img class='l' src=images/squares/green.png><div class=""fixation"">+</div>","null","","","memory","exp","41","","","","","","","","","","","",""
"html-keyboard-response","292","333607","0.0-5.0-5.0-2.41","6980990e5c9007100eb282b6","not_provided","desktop","0","0","0","","","","","","working_memory","","null","<div class=""fixation"">+</div>","null","","","","","","","","","","","","","","","","",""
"html-keyboard-response","293","334415","0.0-5.0-5.0-3.41","6980990e5c9007100eb282b6","not_provided","desktop","0","0","0","","","","","","working_memory","","807","<img class='l' src=images/squares/cyan.png><div class=""fixation"">+</div>","k","","","test_squares","exp","41","8","k","true","sk","d","","","","","","",""
"html-keyboard-response","294","334918","0.0-5.0-5.0-4.41","6980990e5c9007100eb282b6","not_provided","desktop","0","0","0","","","","","","working_memory","","null","<div class=""fixation"">Correct</div>","null","","","","","","","","","","","","","","","","",""
"html-keyboard-response","295","335932","0.0-5.0-5.0-0.42","6980990e5c9007100eb282b6","not_provided","desktop","0","0","0","","","","","","working_memory","","null","<div class=""fixation"">+</div>","null","","","","","","","","","","","","","","","","",""
"html-keyboard-response","296","336150","0.0-5.0-5.0-1.42","6980990e5c9007100eb282b6","not_provided","desktop","0","0","0","","","","","","working_memory","","null","<img class='a' src=images/squares/cyan.png><img class='b' src=images/squares/yellow.png><img class='d' src=images/squares/orange.png><img class='e' src=images/squares/red.png><img class='g' src=images/squares/black.png><img class='i' src=images/squares/green.png><img class='l' src=images/squares/magenta.png><img class='k' src=images/squares/brown.png><div class=""fixation"">+</div>","null","","","memory","exp","42","","","","","","","","","","","",""
"html-keyboard-response","297","337057","0.0-5.0-5.0-2.42","6980990e5c9007100eb282b6","not_provided","desktop","0","0","0","","","","","","working_memory","","null","<div class=""fixation"">+</div>","null","","","","","","","","","","","","","","","","",""
"html-keyboard-response","298","337703","0.0-5.0-5.0-3.42","6980990e5c9007100eb282b6","not_provided","desktop","0","0","0","","","","","","working_memory","","644","<img class='e' src=images/squares/red.png><div class=""fixation"">+</div>","s","","","test_squares","exp","42","8","s","true","sk","s","","","","","","",""
"html-keyboard-response","299","338215","0.0-5.0-5.0-4.42","6980990e5c9007100eb282b6","not_provided","desktop","0","0","0","","","","","","working_memory","","null","<div class=""fixation"">Correct</div>","null","","","","","","","","","","","","","","","","",""
"html-keyboard-response","300","339230","0.0-5.0-5.0-0.43","6980990e5c9007100eb282b6","not_provided","desktop","0","0","0","","","","","","working_memory","","null","<div class=""fixation"">+</div>","null","","","","","","","","","","","","","","","","",""
"html-keyboard-response","301","339436","0.0-5.0-5.0-1.43","6980990e5c9007100eb282b6","not_provided","desktop","0","0","0","","","","","","working_memory","","null","<img class='a' src=images/squares/orange.png><img class='b' src=images/squares/magenta.png><img class='d' src=images/squares/yellow.png><img class='e' src=images/squares/brown.png><img class='h' src=images/squares/green.png><img class='i' src=images/squares/black.png><img class='k' src=images/squares/cyan.png><img class='l' src=images/squares/red.png><div class=""fixation"">+</div>","null","","","memory","exp","43","","","","","","","","","","","",""
"html-keyboard-response","302","340348","0.0-5.0-5.0-2.43","6980990e5c9007100eb282b6","not_provided","desktop","0","0","0","","","","","","working_memory","","null","<div class=""fixation"">+</div>","null","","","","","","","","","","","","","","","","",""
"html-keyboard-response","303","341068","0.0-5.0-5.0-3.43","6980990e5c9007100eb282b6","not_provided","desktop","0","0","0","","","","","","working_memory","","718","<img class='h' src=images/squares/green.png><div class=""fixation"">+</div>","s","","","test_squares","exp","43","8","s","true","sk","s","","","","","","",""
"html-keyboard-response","304","341583","0.0-5.0-5.0-4.43","6980990e5c9007100eb282b6","not_provided","desktop","0","0","0","","","","","","working_memory","","null","<div class=""fixation"">Correct</div>","null","","","","","","","","","","","","","","","","",""
