"trial_type","trial_index","time_elapsed","internal_node_id","subject_id","study_id","device_type","blur_count","fullscreen_exit_count","failed_attention_checks","success","timeout","failed_images","failed_audio","failed_video","phase","value","rt","stimulus","response","view_history","question_order","trial_name","block_type","trial_num","set_size","correct_response","accuracy","mapping","condition","prompt","flipped","attention","expected_answer","category","question_index","task"
"pavlovia","0","1616","0.0-0.0","69e1d57facf90191d311cd0f","not_provided","desktop","0","0","1","","","","","","","","","","","","","","","","","","","","","","","","","","",""
"preload","1","2037","0.0-2.0","69e1d57facf90191d311cd0f","not_provided","desktop","0","0","1","true","false","[]","[]","[]","","","","","","","","","","","","","","","","","","","","","",""
"html-keyboard-response","2","18431","0.0-3.0-0.0","69e1d57facf90191d311cd0f","not_provided","desktop","0","0","1","","","","","","captcha","","","","","","","","","","","","","","","","","","","","",""
"fullscreen","3","26716","0.0-4.0","69e1d57facf90191d311cd0f","not_provided","desktop","0","0","1","true","","","","","setup","","","","","","","","","","","","","","","","","","","","",""
"call-function","4","26717","0.0-5.0-0.0","69e1d57facf90191d311cd0f","not_provided","desktop","0","0","1","","","","","","working_memory","","","","","","","","","","","","","","","","","","","","",""
"html-keyboard-response","5","57122","0.0-5.0-1.0","69e1d57facf90191d311cd0f","not_provided","desktop","0","0","1","","","","","","working_memory","","30404","<div style=""text-align:center;font-family:sans-serif;""><p>Welcome to the luck game experiment!</p><p>This two-day experiment takes part in a study aimed at developing better clinical treatments.</p><p>We appreciate your participation and require your full concentration.</p><br><p>This is a two-day study. Payment (£6/hour) is only given upon completing both parts today and tomorrow.</p><p>You must finish the second part for compensation. After today, you'll receive an invitation for tomorrow's session.</p><p>Please ensure you can attend both sessions before proceeding. Otherwise, you may exit now.</p><p>If you have any questions, please contact us via prolific.</p><br><p>Please stay attentive and in fullscreen mode to ensure payment.</p><p>Thank you for participating!</p><br><p id=""continue-prompt"" style=""visibility:hidden;""><b>Press any key to continue.</b></p></div>"," ","","","","","","","","","","","","","","","","",""
"instructions","6","134131","0.0-5.0-2.0-0.0","69e1d57facf90191d311cd0f","not_provided","desktop","0","0","1","","","","","","working_memory","","77008","","","[{""page_index"":0,""viewing_time"":3532},{""page_index"":1,""viewing_time"":1126},{""page_index"":2,""viewing_time"":2816},{""page_index"":3,""viewing_time"":3804},{""page_index"":4,""viewing_time"":10872},{""page_index"":5,""viewing_time"":17378},{""page_index"":6,""viewing_time"":28100},{""page_index"":7,""viewing_time"":6794},{""page_index"":8,""viewing_time"":2586}]","","","","","","","","","","","","","","","",""
"survey-multi-choice","7","199154","0.0-5.0-2.0-1.0","69e1d57facf90191d311cd0f","not_provided","desktop","0","0","1","","","","","","working_memory","","65019","","{""set_size"":""4 or 8"",""steps"":""True"",""choose_square"":""Press the 'k' or 's' key."",""remember"":""The colors and locations of the 'memory' squares"",""task"":""To tell if the 'test' square is in the same color as the square previously appearing in this location""}","","[0,1,2,3,4]","test_squares_quiz","","","","","","","","","","","","","",""
"html-keyboard-response","8","207703","0.0-5.0-3.0-0.0","69e1d57facf90191d311cd0f","not_provided","desktop","0","0","1","","","","","","working_memory","","8548","<p>We will now start some practice trials.<br><b>The practice trials will also include some trials in which you will need to remember only one square to make sure you understood the instructions.</b><br>You may already want to be ready with your fingers on '<b>s</b>' and '<b>k</b>'.<br><img class=""wm-example-img"" src=""images/examples/keyboard.png""><br><b style=""font-size:1.2em;"">&lsquo;K&rsquo; = SAME &nbsp;&nbsp;&nbsp; &lsquo;S&rsquo; = DIFFERENT</b><br><br><u>Please try to be as accurate as possible.</u><br><br><b>Press any key to begin</b></p>"," ","","","","","","","","","","","","","","","","",""
"html-keyboard-response","9","209727","0.0-5.0-3.0-1.0-0.0","69e1d57facf90191d311cd0f","not_provided","desktop","0","0","1","","","","","","working_memory","","null","<div class=""fixation"">+</div>","null","","","","","","","","","","","","","","","","",""
"html-keyboard-response","10","209934","0.0-5.0-3.0-1.0-1.0","69e1d57facf90191d311cd0f","not_provided","desktop","0","0","1","","","","","","working_memory","","null","<img class='upper3' src=images/squares/green.png><div class=""fixation"">+</div>","null","","","memory","practice","0","1","","","","","","","","","","",""
"html-keyboard-response","11","210841","0.0-5.0-3.0-1.0-2.0","69e1d57facf90191d311cd0f","not_provided","desktop","0","0","1","","","","","","working_memory","","null","<div class=""fixation"">+</div>","null","","","","","","","","","","","","","","","","",""
"html-keyboard-response","12","213374","0.0-5.0-3.0-1.0-3.0","69e1d57facf90191d311cd0f","not_provided","desktop","0","0","1","","","","","","working_memory","","2532","<img class='upper3' src=images/squares/magenta.png><div class=""fixation"">+</div>","s","","","test","practice","0","1","s","true","","","","","","","","",""
"html-keyboard-response","13","213889","0.0-5.0-3.0-1.0-4.0","69e1d57facf90191d311cd0f","not_provided","desktop","0","0","1","","","","","","working_memory","","null","<div class=""fixation"">Correct</div>","null","","","","","","","","","","","","","","","","",""
"html-keyboard-response","14","214902","0.0-5.0-3.0-1.0-0.1","69e1d57facf90191d311cd0f","not_provided","desktop","0","0","1","","","","","","working_memory","","null","<div class=""fixation"">+</div>","null","","","","","","","","","","","","","","","","",""
"html-keyboard-response","15","215113","0.0-5.0-3.0-1.0-1.1","69e1d57facf90191d311cd0f","not_provided","desktop","0","0","1","","","","","","working_memory","","null","<img class='b' src=images/squares/blue.png><img class='d' src=images/squares/magenta.png><img class='h' src=images/squares/black.png><img class='j' src=images/squares/green.png><div class=""fixation"">+</div>","null","","","memory","practice","1","4","","","","","","","","","","",""
"html-keyboard-response","16","216017","0.0-5.0-3.0-1.0-2.1","69e1d57facf90191d311cd0f","not_provided","desktop","0","0","1","","","","","","working_memory","","null","<div class=""fixation"">+</div>","null","","","","","","","","","","","","","","","","",""
"html-keyboard-response","17","217384","0.0-5.0-3.0-1.0-3.1","69e1d57facf90191d311cd0f","not_provided","desktop","0","0","1","","","","","","working_memory","","1366","<img class='j' src=images/squares/yellow.png><div class=""fixation"">+</div>","s","","","test","practice","1","4","s","true","","","","","","","","",""
"html-keyboard-response","18","217898","0.0-5.0-3.0-1.0-4.1","69e1d57facf90191d311cd0f","not_provided","desktop","0","0","1","","","","","","working_memory","","null","<div class=""fixation"">Correct</div>","null","","","","","","","","","","","","","","","","",""
"html-keyboard-response","19","218907","0.0-5.0-3.0-1.0-0.2","69e1d57facf90191d311cd0f","not_provided","desktop","0","0","1","","","","","","working_memory","","null","<div class=""fixation"">+</div>","null","","","","","","","","","","","","","","","","",""
"html-keyboard-response","20","219117","0.0-5.0-3.0-1.0-1.2","69e1d57facf90191d311cd0f","not_provided","desktop","0","0","1","","","","","","working_memory","","null","<img class='b' src=images/squares/yellow.png><img class='d' src=images/squares/orange.png><img class='h' src=images/squares/black.png><img class='j' src=images/squares/green.png><div class=""fixation"">+</div>","null","","","memory","practice","2","4","","","","","","","","","","",""
"html-keyboard-response","21","220032","0.0-5.0-3.0-1.0-2.2","69e1d57facf90191d311cd0f","not_provided","desktop","0","0","1","","","","","","working_memory","","null","<div class=""fixation"">+</div>","null","","","","","","","","","","","","","","","","",""
"html-keyboard-response","22","221151","0.0-5.0-3.0-1.0-3.2","69e1d57facf90191d311cd0f","not_provided","desktop","0","0","1","","","","","","working_memory","","1118","<img class='b' src=images/squares/yellow.png><div class=""fixation"">+</div>","k","","","test","practice","2","4","k","true","","","","","","","","",""
"html-keyboard-response","23","221667","0.0-5.0-3.0-1.0-4.2","69e1d57facf90191d311cd0f","not_provided","desktop","0","0","1","","","","","","working_memory","","null","<div class=""fixation"">Correct</div>","null","","","","","","","","","","","","","","","","",""
"html-keyboard-response","24","222683","0.0-5.0-3.0-1.0-0.3","69e1d57facf90191d311cd0f","not_provided","desktop","0","0","1","","","","","","working_memory","","null","<div class=""fixation"">+</div>","null","","","","","","","","","","","","","","","","",""
"html-keyboard-response","25","222895","0.0-5.0-3.0-1.0-1.3","69e1d57facf90191d311cd0f","not_provided","desktop","0","0","1","","","","","","working_memory","","null","<img class='b' src=images/squares/blue.png><img class='f' src=images/squares/brown.png><img class='g' src=images/squares/magenta.png><img class='k' src=images/squares/orange.png><div class=""fixation"">+</div>","null","","","memory","practice","3","4","","","","","","","","","","",""
"html-keyboard-response","26","223803","0.0-5.0-3.0-1.0-2.3","69e1d57facf90191d311cd0f","not_provided","desktop","0","0","1","","","","","","working_memory","","null","<div class=""fixation"">+</div>","null","","","","","","","","","","","","","","","","",""
"html-keyboard-response","27","224960","0.0-5.0-3.0-1.0-3.3","69e1d57facf90191d311cd0f","not_provided","desktop","0","0","1","","","","","","working_memory","","1156","<img class='f' src=images/squares/green.png><div class=""fixation"">+</div>","s","","","test","practice","3","4","s","true","","","","","","","","",""
"html-keyboard-response","28","225465","0.0-5.0-3.0-1.0-4.3","69e1d57facf90191d311cd0f","not_provided","desktop","0","0","1","","","","","","working_memory","","null","<div class=""fixation"">Correct</div>","null","","","","","","","","","","","","","","","","",""
"html-keyboard-response","29","226477","0.0-5.0-3.0-1.0-0.4","69e1d57facf90191d311cd0f","not_provided","desktop","0","0","1","","","","","","working_memory","","null","<div class=""fixation"">+</div>","null","","","","","","","","","","","","","","","","",""
"html-keyboard-response","30","226691","0.0-5.0-3.0-1.0-1.4","69e1d57facf90191d311cd0f","not_provided","desktop","0","0","1","","","","","","working_memory","","null","<img class='c' src=images/squares/red.png><img class='f' src=images/squares/yellow.png><img class='g' src=images/squares/black.png><img class='k' src=images/squares/green.png><div class=""fixation"">+</div>","null","","","memory","practice","4","4","","","","","","","","","","",""
"html-keyboard-response","31","227597","0.0-5.0-3.0-1.0-2.4","69e1d57facf90191d311cd0f","not_provided","desktop","0","0","1","","","","","","working_memory","","null","<div class=""fixation"">+</div>","null","","","","","","","","","","","","","","","","",""
"html-keyboard-response","32","228916","0.0-5.0-3.0-1.0-3.4","69e1d57facf90191d311cd0f","not_provided","desktop","0","0","1","","","","","","working_memory","","1318","<img class='f' src=images/squares/cyan.png><div class=""fixation"">+</div>","s","","","test","practice","4","4","s","true","","","","","","","","",""
"html-keyboard-response","33","229418","0.0-5.0-3.0-1.0-4.4","69e1d57facf90191d311cd0f","not_provided","desktop","0","0","1","","","","","","working_memory","","null","<div class=""fixation"">Correct</div>","null","","","","","","","","","","","","","","","","",""
"html-keyboard-response","34","230431","0.0-5.0-3.0-1.0-0.5","69e1d57facf90191d311cd0f","not_provided","desktop","0","0","1","","","","","","working_memory","","null","<div class=""fixation"">+</div>","null","","","","","","","","","","","","","","","","",""
"html-keyboard-response","35","230642","0.0-5.0-3.0-1.0-1.5","69e1d57facf90191d311cd0f","not_provided","desktop","0","0","1","","","","","","working_memory","","null","<img class='lower2' src=images/squares/blue.png><div class=""fixation"">+</div>","null","","","memory","practice","5","1","","","","","","","","","","",""
"html-keyboard-response","36","231553","0.0-5.0-3.0-1.0-2.5","69e1d57facf90191d311cd0f","not_provided","desktop","0","0","1","","","","","","working_memory","","null","<div class=""fixation"">+</div>","null","","","","","","","","","","","","","","","","",""
"html-keyboard-response","37","232597","0.0-5.0-3.0-1.0-3.5","69e1d57facf90191d311cd0f","not_provided","desktop","0","0","1","","","","","","working_memory","","1043","<img class='lower2' src=images/squares/blue.png><div class=""fixation"">+</div>","k","","","test","practice","5","1","k","true","","","","","","","","",""
"html-keyboard-response","38","233113","0.0-5.0-3.0-1.0-4.5","69e1d57facf90191d311cd0f","not_provided","desktop","0","0","1","","","","","","working_memory","","null","<div class=""fixation"">Correct</div>","null","","","","","","","","","","","","","","","","",""
"html-keyboard-response","39","234116","0.0-5.0-3.0-1.0-0.6","69e1d57facf90191d311cd0f","not_provided","desktop","0","0","1","","","","","","working_memory","","null","<div class=""fixation"">+</div>","null","","","","","","","","","","","","","","","","",""
"html-keyboard-response","40","234322","0.0-5.0-3.0-1.0-1.6","69e1d57facf90191d311cd0f","not_provided","desktop","0","0","1","","","","","","working_memory","","null","<img class='b' src=images/squares/cyan.png><img class='e' src=images/squares/yellow.png><img class='g' src=images/squares/blue.png><img class='k' src=images/squares/orange.png><div class=""fixation"">+</div>","null","","","memory","practice","6","4","","","","","","","","","","",""
"html-keyboard-response","41","235226","0.0-5.0-3.0-1.0-2.6","69e1d57facf90191d311cd0f","not_provided","desktop","0","0","1","","","","","","working_memory","","null","<div class=""fixation"">+</div>","null","","","","","","","","","","","","","","","","",""
"html-keyboard-response","42","236468","0.0-5.0-3.0-1.0-3.6","69e1d57facf90191d311cd0f","not_provided","desktop","0","0","1","","","","","","working_memory","","1241","<img class='e' src=images/squares/brown.png><div class=""fixation"">+</div>","s","","","test","practice","6","4","s","true","","","","","","","","",""
"html-keyboard-response","43","236975","0.0-5.0-3.0-1.0-4.6","69e1d57facf90191d311cd0f","not_provided","desktop","0","0","1","","","","","","working_memory","","null","<div class=""fixation"">Correct</div>","null","","","","","","","","","","","","","","","","",""
"html-keyboard-response","44","237976","0.0-5.0-3.0-1.0-0.7","69e1d57facf90191d311cd0f","not_provided","desktop","0","0","1","","","","","","working_memory","","null","<div class=""fixation"">+</div>","null","","","","","","","","","","","","","","","","",""
"html-keyboard-response","45","238189","0.0-5.0-3.0-1.0-1.7","69e1d57facf90191d311cd0f","not_provided","desktop","0","0","1","","","","","","working_memory","","null","<img class='lower1' src=images/squares/orange.png><div class=""fixation"">+</div>","null","","","memory","practice","7","1","","","","","","","","","","",""
"html-keyboard-response","46","239096","0.0-5.0-3.0-1.0-2.7","69e1d57facf90191d311cd0f","not_provided","desktop","0","0","1","","","","","","working_memory","","null","<div class=""fixation"">+</div>","null","","","","","","","","","","","","","","","","",""
"html-keyboard-response","47","239892","0.0-5.0-3.0-1.0-3.7","69e1d57facf90191d311cd0f","not_provided","desktop","0","0","1","","","","","","working_memory","","796","<img class='lower1' src=images/squares/orange.png><div class=""fixation"">+</div>","k","","","test","practice","7","1","k","true","","","","","","","","",""
"html-keyboard-response","48","240393","0.0-5.0-3.0-1.0-4.7","69e1d57facf90191d311cd0f","not_provided","desktop","0","0","1","","","","","","working_memory","","null","<div class=""fixation"">Correct</div>","null","","","","","","","","","","","","","","","","",""
"html-keyboard-response","49","241407","0.0-5.0-3.0-1.0-0.8","69e1d57facf90191d311cd0f","not_provided","desktop","0","0","1","","","","","","working_memory","","null","<div class=""fixation"">+</div>","null","","","","","","","","","","","","","","","","",""
"html-keyboard-response","50","241621","0.0-5.0-3.0-1.0-1.8","69e1d57facf90191d311cd0f","not_provided","desktop","0","0","1","","","","","","working_memory","","null","<img class='lower2' src=images/squares/orange.png><div class=""fixation"">+</div>","null","","","memory","practice","8","1","","","","","","","","","","",""
"html-keyboard-response","51","242527","0.0-5.0-3.0-1.0-2.8","69e1d57facf90191d311cd0f","not_provided","desktop","0","0","1","","","","","","working_memory","","null","<div class=""fixation"">+</div>","null","","","","","","","","","","","","","","","","",""
"html-keyboard-response","52","243331","0.0-5.0-3.0-1.0-3.8","69e1d57facf90191d311cd0f","not_provided","desktop","0","0","1","","","","","","working_memory","","804","<img class='lower2' src=images/squares/orange.png><div class=""fixation"">+</div>","k","","","test","practice","8","1","k","true","","","","","","","","",""
"html-keyboard-response","53","243834","0.0-5.0-3.0-1.0-4.8","69e1d57facf90191d311cd0f","not_provided","desktop","0","0","1","","","","","","working_memory","","null","<div class=""fixation"">Correct</div>","null","","","","","","","","","","","","","","","","",""
"html-keyboard-response","54","244838","0.0-5.0-3.0-1.0-0.9","69e1d57facf90191d311cd0f","not_provided","desktop","0","0","1","","","","","","working_memory","","null","<div class=""fixation"">+</div>","null","","","","","","","","","","","","","","","","",""
"html-keyboard-response","55","245052","0.0-5.0-3.0-1.0-1.9","69e1d57facf90191d311cd0f","not_provided","desktop","0","0","1","","","","","","working_memory","","null","<img class='b' src=images/squares/orange.png><img class='d' src=images/squares/magenta.png><img class='g' src=images/squares/green.png><img class='j' src=images/squares/yellow.png><div class=""fixation"">+</div>","null","","","memory","practice","9","4","","","","","","","","","","",""
"html-keyboard-response","56","245966","0.0-5.0-3.0-1.0-2.9","69e1d57facf90191d311cd0f","not_provided","desktop","0","0","1","","","","","","working_memory","","null","<div class=""fixation"">+</div>","null","","","","","","","","","","","","","","","","",""
"html-keyboard-response","57","246935","0.0-5.0-3.0-1.0-3.9","69e1d57facf90191d311cd0f","not_provided","desktop","0","0","1","","","","","","working_memory","","968","<img class='b' src=images/squares/red.png><div class=""fixation"">+</div>","s","","","test","practice","9","4","s","true","","","","","","","","",""
"html-keyboard-response","58","247447","0.0-5.0-3.0-1.0-4.9","69e1d57facf90191d311cd0f","not_provided","desktop","0","0","1","","","","","","working_memory","","null","<div class=""fixation"">Correct</div>","null","","","","","","","","","","","","","","","","",""
"html-keyboard-response","59","248451","0.0-5.0-3.0-1.0-0.10","69e1d57facf90191d311cd0f","not_provided","desktop","0","0","1","","","","","","working_memory","","null","<div class=""fixation"">+</div>","null","","","","","","","","","","","","","","","","",""
"html-keyboard-response","60","248665","0.0-5.0-3.0-1.0-1.10","69e1d57facf90191d311cd0f","not_provided","desktop","0","0","1","","","","","","working_memory","","null","<img class='b' src=images/squares/orange.png><img class='c' src=images/squares/magenta.png><img class='f' src=images/squares/red.png><img class='e' src=images/squares/blue.png><img class='h' src=images/squares/yellow.png><img class='i' src=images/squares/brown.png><img class='l' src=images/squares/green.png><img class='j' src=images/squares/cyan.png><div class=""fixation"">+</div>","null","","","memory","practice","10","8","","","","","","","","","","",""
"html-keyboard-response","61","249570","0.0-5.0-3.0-1.0-2.10","69e1d57facf90191d311cd0f","not_provided","desktop","0","0","1","","","","","","working_memory","","null","<div class=""fixation"">+</div>","null","","","","","","","","","","","","","","","","",""
"html-keyboard-response","62","251058","0.0-5.0-3.0-1.0-3.10","69e1d57facf90191d311cd0f","not_provided","desktop","0","0","1","","","","","","working_memory","","1487","<img class='l' src=images/squares/green.png><div class=""fixation"">+</div>","s","","","test","practice","10","8","k","false","","","","","","","","",""
"html-keyboard-response","63","251569","0.0-5.0-3.0-1.0-4.10","69e1d57facf90191d311cd0f","not_provided","desktop","0","0","1","","","","","","working_memory","","null","<div class=""fixation"">Incorrect</div>","null","","","","","","","","","","","","","","","","",""
"html-keyboard-response","64","252570","0.0-5.0-3.0-1.0-0.11","69e1d57facf90191d311cd0f","not_provided","desktop","0","0","1","","","","","","working_memory","","null","<div class=""fixation"">+</div>","null","","","","","","","","","","","","","","","","",""
"html-keyboard-response","65","252784","0.0-5.0-3.0-1.0-1.11","69e1d57facf90191d311cd0f","not_provided","desktop","0","0","1","","","","","","working_memory","","null","<img class='a' src=images/squares/cyan.png><img class='b' src=images/squares/yellow.png><img class='d' src=images/squares/magenta.png><img class='f' src=images/squares/blue.png><img class='i' src=images/squares/brown.png><img class='h' src=images/squares/green.png><img class='j' src=images/squares/orange.png><img class='k' src=images/squares/red.png><div class=""fixation"">+</div>","null","","","memory","practice","11","8","","","","","","","","","","",""
"html-keyboard-response","66","253690","0.0-5.0-3.0-1.0-2.11","69e1d57facf90191d311cd0f","not_provided","desktop","0","0","1","","","","","","working_memory","","null","<div class=""fixation"">+</div>","null","","","","","","","","","","","","","","","","",""
"html-keyboard-response","67","255034","0.0-5.0-3.0-1.0-3.11","69e1d57facf90191d311cd0f","not_provided","desktop","0","0","1","","","","","","working_memory","","1343","<img class='a' src=images/squares/cyan.png><div class=""fixation"">+</div>","k","","","test","practice","11","8","k","true","","","","","","","","",""
"html-keyboard-response","68","255550","0.0-5.0-3.0-1.0-4.11","69e1d57facf90191d311cd0f","not_provided","desktop","0","0","1","","","","","","working_memory","","null","<div class=""fixation"">Correct</div>","null","","","","","","","","","","","","","","","","",""
"html-keyboard-response","69","256559","0.0-5.0-3.0-1.0-0.12","69e1d57facf90191d311cd0f","not_provided","desktop","0","0","1","","","","","","working_memory","","null","<div class=""fixation"">+</div>","null","","","","","","","","","","","","","","","","",""
"html-keyboard-response","70","256763","0.0-5.0-3.0-1.0-1.12","69e1d57facf90191d311cd0f","not_provided","desktop","0","0","1","","","","","","working_memory","","null","<img class='lower3' src=images/squares/green.png><div class=""fixation"">+</div>","null","","","memory","practice","12","1","","","","","","","","","","",""
"html-keyboard-response","71","257671","0.0-5.0-3.0-1.0-2.12","69e1d57facf90191d311cd0f","not_provided","desktop","0","0","1","","","","","","working_memory","","null","<div class=""fixation"">+</div>","null","","","","","","","","","","","","","","","","",""
"html-keyboard-response","72","258553","0.0-5.0-3.0-1.0-3.12","69e1d57facf90191d311cd0f","not_provided","desktop","0","0","1","","","","","","working_memory","","882","<img class='lower3' src=images/squares/green.png><div class=""fixation"">+</div>","k","","","test","practice","12","1","k","true","","","","","","","","",""
"html-keyboard-response","73","259054","0.0-5.0-3.0-1.0-4.12","69e1d57facf90191d311cd0f","not_provided","desktop","0","0","1","","","","","","working_memory","","null","<div class=""fixation"">Correct</div>","null","","","","","","","","","","","","","","","","",""
"html-keyboard-response","74","260070","0.0-5.0-3.0-1.0-0.13","69e1d57facf90191d311cd0f","not_provided","desktop","0","0","1","","","","","","working_memory","","null","<div class=""fixation"">+</div>","null","","","","","","","","","","","","","","","","",""
"html-keyboard-response","75","260279","0.0-5.0-3.0-1.0-1.13","69e1d57facf90191d311cd0f","not_provided","desktop","0","0","1","","","","","","working_memory","","null","<img class='c' src=images/squares/magenta.png><img class='f' src=images/squares/black.png><img class='h' src=images/squares/blue.png><img class='j' src=images/squares/yellow.png><div class=""fixation"">+</div>","null","","","memory","practice","13","4","","","","","","","","","","",""
"html-keyboard-response","76","261191","0.0-5.0-3.0-1.0-2.13","69e1d57facf90191d311cd0f","not_provided","desktop","0","0","1","","","","","","working_memory","","null","<div class=""fixation"">+</div>","null","","","","","","","","","","","","","","","","",""
"html-keyboard-response","77","263045","0.0-5.0-3.0-1.0-3.13","69e1d57facf90191d311cd0f","not_provided","desktop","0","0","1","","","","","","working_memory","","1853","<img class='h' src=images/squares/blue.png><div class=""fixation"">+</div>","s","","","test","practice","13","4","k","false","","","","","","","","",""
"html-keyboard-response","78","263546","0.0-5.0-3.0-1.0-4.13","69e1d57facf90191d311cd0f","not_provided","desktop","0","0","1","","","","","","working_memory","","null","<div class=""fixation"">Incorrect</div>","null","","","","","","","","","","","","","","","","",""
"html-keyboard-response","79","264562","0.0-5.0-3.0-1.0-0.14","69e1d57facf90191d311cd0f","not_provided","desktop","0","0","1","","","","","","working_memory","","null","<div class=""fixation"">+</div>","null","","","","","","","","","","","","","","","","",""
"html-keyboard-response","80","264777","0.0-5.0-3.0-1.0-1.14","69e1d57facf90191d311cd0f","not_provided","desktop","0","0","1","","","","","","working_memory","","null","<img class='a' src=images/squares/brown.png><img class='f' src=images/squares/red.png><img class='g' src=images/squares/black.png><img class='l' src=images/squares/orange.png><div class=""fixation"">+</div>","null","","","memory","practice","14","4","","","","","","","","","","",""
"html-keyboard-response","81","265684","0.0-5.0-3.0-1.0-2.14","69e1d57facf90191d311cd0f","not_provided","desktop","0","0","1","","","","","","working_memory","","null","<div class=""fixation"">+</div>","null","","","","","","","","","","","","","","","","",""
"html-keyboard-response","82","266961","0.0-5.0-3.0-1.0-3.14","69e1d57facf90191d311cd0f","not_provided","desktop","0","0","1","","","","","","working_memory","","1276","<img class='g' src=images/squares/black.png><div class=""fixation"">+</div>","k","","","test","practice","14","4","k","true","","","","","","","","",""
"html-keyboard-response","83","267462","0.0-5.0-3.0-1.0-4.14","69e1d57facf90191d311cd0f","not_provided","desktop","0","0","1","","","","","","working_memory","","null","<div class=""fixation"">Correct</div>","null","","","","","","","","","","","","","","","","",""
"html-keyboard-response","84","274576","0.0-5.0-4.0","69e1d57facf90191d311cd0f","not_provided","desktop","0","0","1","","","","","","working_memory","","7113","<div style=""text-align:center;font-family:sans-serif;""><p>Good job! You have finished the practice.</p><p>We will now start the real experiment.</p><p>Please try to be as accurate as possible.</p><p><b><u>Note: random guessing may risk your payment.</u></b></p><br><p><b>Press any key to begin.</b></p></div>"," ","","","","","","","","","","","","","","","","",""
"html-keyboard-response","85","275583","0.0-5.0-5.0-0.0","69e1d57facf90191d311cd0f","not_provided","desktop","0","0","1","","","","","","working_memory","","null","<div class=""fixation"">+</div>","null","","","","","","","","","","","","","","","","",""
"html-keyboard-response","86","275786","0.0-5.0-5.0-1.0","69e1d57facf90191d311cd0f","not_provided","desktop","0","0","1","","","","","","working_memory","","null","<img class='a' src=images/squares/magenta.png><img class='b' src=images/squares/orange.png><img class='d' src=images/squares/red.png><img class='f' src=images/squares/brown.png><img class='h' src=images/squares/blue.png><img class='i' src=images/squares/cyan.png><img class='k' src=images/squares/yellow.png><img class='l' src=images/squares/green.png><div class=""fixation"">+</div>","null","","","memory","exp","0","","","","","","","","","","","",""
"html-keyboard-response","87","276696","0.0-5.0-5.0-2.0","69e1d57facf90191d311cd0f","not_provided","desktop","0","0","1","","","","","","working_memory","","null","<div class=""fixation"">+</div>","null","","","","","","","","","","","","","","","","",""
"html-keyboard-response","88","278928","0.0-5.0-5.0-3.0","69e1d57facf90191d311cd0f","not_provided","desktop","0","0","1","","","","","","working_memory","","2231","<img class='b' src=images/squares/black.png><div class=""fixation"">+</div>","s","","","test_squares","exp","0","8","s","true","ks","d","","","","","","",""
"html-keyboard-response","89","279440","0.0-5.0-5.0-4.0","69e1d57facf90191d311cd0f","not_provided","desktop","0","0","1","","","","","","working_memory","","null","<div class=""fixation"">Correct</div>","null","","","","","","","","","","","","","","","","",""
"html-keyboard-response","90","280442","0.0-5.0-5.0-0.1","69e1d57facf90191d311cd0f","not_provided","desktop","0","0","1","","","","","","working_memory","","null","<div class=""fixation"">+</div>","null","","","","","","","","","","","","","","","","",""
"html-keyboard-response","91","280655","0.0-5.0-5.0-1.1","69e1d57facf90191d311cd0f","not_provided","desktop","0","0","1","","","","","","working_memory","","null","<img class='c' src=images/squares/yellow.png><img class='d' src=images/squares/cyan.png><img class='h' src=images/squares/blue.png><img class='k' src=images/squares/brown.png><div class=""fixation"">+</div>","null","","","memory","exp","1","","","","","","","","","","","",""
"html-keyboard-response","92","281558","0.0-5.0-5.0-2.1","69e1d57facf90191d311cd0f","not_provided","desktop","0","0","1","","","","","","working_memory","","null","<div class=""fixation"">+</div>","null","","","","","","","","","","","","","","","","",""
"html-keyboard-response","93","283204","0.0-5.0-5.0-3.1","69e1d57facf90191d311cd0f","not_provided","desktop","0","0","1","","","","","","working_memory","","1645","<img class='c' src=images/squares/yellow.png><div class=""fixation"">+</div>","k","","","test_squares","exp","1","4","k","true","ks","s","","","","","","",""
"html-keyboard-response","94","283707","0.0-5.0-5.0-4.1","69e1d57facf90191d311cd0f","not_provided","desktop","0","0","1","","","","","","working_memory","","null","<div class=""fixation"">Correct</div>","null","","","","","","","","","","","","","","","","",""
"html-keyboard-response","95","284718","0.0-5.0-5.0-0.2","69e1d57facf90191d311cd0f","not_provided","desktop","0","0","1","","","","","","working_memory","","null","<div class=""fixation"">+</div>","null","","","","","","","","","","","","","","","","",""
"html-keyboard-response","96","284931","0.0-5.0-5.0-1.2","69e1d57facf90191d311cd0f","not_provided","desktop","0","0","1","","","","","","working_memory","","null","<img class='b' src=images/squares/blue.png><img class='f' src=images/squares/magenta.png><img class='h' src=images/squares/red.png><img class='k' src=images/squares/green.png><div class=""fixation"">+</div>","null","","","memory","exp","2","","","","","","","","","","","",""
"html-keyboard-response","97","285840","0.0-5.0-5.0-2.2","69e1d57facf90191d311cd0f","not_provided","desktop","0","0","1","","","","","","working_memory","","null","<div class=""fixation"">+</div>","null","","","","","","","","","","","","","","","","",""
"html-keyboard-response","98","287294","0.0-5.0-5.0-3.2","69e1d57facf90191d311cd0f","not_provided","desktop","0","0","1","","","","","","working_memory","","1454","<img class='h' src=images/squares/black.png><div class=""fixation"">+</div>","s","","","test_squares","exp","2","4","s","true","ks","d","","","","","","",""
"html-keyboard-response","99","287806","0.0-5.0-5.0-4.2","69e1d57facf90191d311cd0f","not_provided","desktop","0","0","1","","","","","","working_memory","","null","<div class=""fixation"">Correct</div>","null","","","","","","","","","","","","","","","","",""
"html-keyboard-response","100","288818","0.0-5.0-5.0-0.3","69e1d57facf90191d311cd0f","not_provided","desktop","0","0","1","","","","","","working_memory","","null","<div class=""fixation"">+</div>","null","","","","","","","","","","","","","","","","",""
"html-keyboard-response","101","289033","0.0-5.0-5.0-1.3","69e1d57facf90191d311cd0f","not_provided","desktop","0","0","1","","","","","","working_memory","","null","<img class='c' src=images/squares/green.png><img class='a' src=images/squares/red.png><img class='d' src=images/squares/yellow.png><img class='f' src=images/squares/cyan.png><img class='g' src=images/squares/blue.png><img class='i' src=images/squares/brown.png><img class='l' src=images/squares/magenta.png><img class='k' src=images/squares/orange.png><div class=""fixation"">+</div>","null","","","memory","exp","3","","","","","","","","","","","",""
"html-keyboard-response","102","289940","0.0-5.0-5.0-2.3","69e1d57facf90191d311cd0f","not_provided","desktop","0","0","1","","","","","","working_memory","","null","<div class=""fixation"">+</div>","null","","","","","","","","","","","","","","","","",""
"html-keyboard-response","103","291546","0.0-5.0-5.0-3.3","69e1d57facf90191d311cd0f","not_provided","desktop","0","0","1","","","","","","working_memory","","1604","<img class='g' src=images/squares/black.png><div class=""fixation"">+</div>","s","","","test_squares","exp","3","8","s","true","ks","d","","","","","","",""
"html-keyboard-response","104","292055","0.0-5.0-5.0-4.3","69e1d57facf90191d311cd0f","not_provided","desktop","0","0","1","","","","","","working_memory","","null","<div class=""fixation"">Correct</div>","null","","","","","","","","","","","","","","","","",""
"html-keyboard-response","105","293060","0.0-5.0-5.0-0.4","69e1d57facf90191d311cd0f","not_provided","desktop","0","0","1","","","","","","working_memory","","null","<div class=""fixation"">+</div>","null","","","","","","","","","","","","","","","","",""
"html-keyboard-response","106","293263","0.0-5.0-5.0-1.4","69e1d57facf90191d311cd0f","not_provided","desktop","0","0","1","","","","","","working_memory","","null","<img class='c' src=images/squares/red.png><img class='b' src=images/squares/green.png><img class='e' src=images/squares/magenta.png><img class='d' src=images/squares/cyan.png><img class='h' src=images/squares/yellow.png><img class='g' src=images/squares/brown.png><img class='j' src=images/squares/black.png><img class='l' src=images/squares/orange.png><div class=""fixation"">+</div>","null","","","memory","exp","4","","","","","","","","","","","",""
"html-keyboard-response","107","294178","0.0-5.0-5.0-2.4","69e1d57facf90191d311cd0f","not_provided","desktop","0","0","1","","","","","","working_memory","","null","<div class=""fixation"">+</div>","null","","","","","","","","","","","","","","","","",""
"html-keyboard-response","108","295428","0.0-5.0-5.0-3.4","69e1d57facf90191d311cd0f","not_provided","desktop","0","0","1","","","","","","working_memory","","1249","<img class='d' src=images/squares/cyan.png><div class=""fixation"">+</div>","k","","","test_squares","exp","4","8","k","true","ks","s","","","","","","",""
"html-keyboard-response","109","295932","0.0-5.0-5.0-4.4","69e1d57facf90191d311cd0f","not_provided","desktop","0","0","1","","","","","","working_memory","","null","<div class=""fixation"">Correct</div>","null","","","","","","","","","","","","","","","","",""
"html-keyboard-response","110","296946","0.0-5.0-5.0-0.5","69e1d57facf90191d311cd0f","not_provided","desktop","0","0","1","","","","","","working_memory","","null","<div class=""fixation"">+</div>","null","","","","","","","","","","","","","","","","",""
"html-keyboard-response","111","297162","0.0-5.0-5.0-1.5","69e1d57facf90191d311cd0f","not_provided","desktop","0","0","1","","","","","","working_memory","","null","<img class='a' src=images/squares/magenta.png><img class='b' src=images/squares/orange.png><img class='d' src=images/squares/black.png><img class='e' src=images/squares/brown.png><img class='h' src=images/squares/yellow.png><img class='g' src=images/squares/red.png><img class='j' src=images/squares/cyan.png><img class='l' src=images/squares/green.png><div class=""fixation"">+</div>","null","","","memory","exp","5","","","","","","","","","","","",""
"html-keyboard-response","112","298072","0.0-5.0-5.0-2.5","69e1d57facf90191d311cd0f","not_provided","desktop","0","0","1","","","","","","working_memory","","null","<div class=""fixation"">+</div>","null","","","","","","","","","","","","","","","","",""
"html-keyboard-response","113","299684","0.0-5.0-5.0-3.5","69e1d57facf90191d311cd0f","not_provided","desktop","0","0","1","","","","","","working_memory","","1610","<img class='l' src=images/squares/green.png><div class=""fixation"">+</div>","s","","","test_squares","exp","5","8","k","false","ks","s","","","","","","",""
"html-keyboard-response","114","300195","0.0-5.0-5.0-4.5","69e1d57facf90191d311cd0f","not_provided","desktop","0","0","1","","","","","","working_memory","","null","<div class=""fixation"">Incorrect</div>","null","","","","","","","","","","","","","","","","",""
"html-keyboard-response","115","301198","0.0-5.0-5.0-0.6","69e1d57facf90191d311cd0f","not_provided","desktop","0","0","1","","","","","","working_memory","","null","<div class=""fixation"">+</div>","null","","","","","","","","","","","","","","","","",""
"html-keyboard-response","116","301399","0.0-5.0-5.0-1.6","69e1d57facf90191d311cd0f","not_provided","desktop","0","0","1","","","","","","working_memory","","null","<img class='b' src=images/squares/red.png><img class='e' src=images/squares/black.png><img class='h' src=images/squares/cyan.png><img class='l' src=images/squares/orange.png><div class=""fixation"">+</div>","null","","","memory","exp","6","","","","","","","","","","","",""
"html-keyboard-response","117","302301","0.0-5.0-5.0-2.6","69e1d57facf90191d311cd0f","not_provided","desktop","0","0","1","","","","","","working_memory","","null","<div class=""fixation"">+</div>","null","","","","","","","","","","","","","","","","",""
"html-keyboard-response","118","303564","0.0-5.0-5.0-3.6","69e1d57facf90191d311cd0f","not_provided","desktop","0","0","1","","","","","","working_memory","","1262","<img class='e' src=images/squares/green.png><div class=""fixation"">+</div>","s","","","test_squares","exp","6","4","s","true","ks","d","","","","","","",""
"html-keyboard-response","119","304064","0.0-5.0-5.0-4.6","69e1d57facf90191d311cd0f","not_provided","desktop","0","0","1","","","","","","working_memory","","null","<div class=""fixation"">Correct</div>","null","","","","","","","","","","","","","","","","",""
"html-keyboard-response","120","305081","0.0-5.0-5.0-0.7","69e1d57facf90191d311cd0f","not_provided","desktop","0","0","1","","","","","","working_memory","","null","<div class=""fixation"">+</div>","null","","","","","","","","","","","","","","","","",""
"html-keyboard-response","121","305292","0.0-5.0-5.0-1.7","69e1d57facf90191d311cd0f","not_provided","desktop","0","0","1","","","","","","working_memory","","null","<img class='a' src=images/squares/brown.png><img class='c' src=images/squares/blue.png><img class='f' src=images/squares/cyan.png><img class='e' src=images/squares/black.png><img class='i' src=images/squares/yellow.png><img class='h' src=images/squares/magenta.png><img class='j' src=images/squares/red.png><img class='l' src=images/squares/green.png><div class=""fixation"">+</div>","null","","","memory","exp","7","","","","","","","","","","","",""
"html-keyboard-response","122","306203","0.0-5.0-5.0-2.7","69e1d57facf90191d311cd0f","not_provided","desktop","0","0","1","","","","","","working_memory","","null","<div class=""fixation"">+</div>","null","","","","","","","","","","","","","","","","",""
"html-keyboard-response","123","307372","0.0-5.0-5.0-3.7","69e1d57facf90191d311cd0f","not_provided","desktop","0","0","1","","","","","","working_memory","","1169","<img class='e' src=images/squares/black.png><div class=""fixation"">+</div>","k","","","test_squares","exp","7","8","k","true","ks","s","","","","","","",""
"html-keyboard-response","124","307883","0.0-5.0-5.0-4.7","69e1d57facf90191d311cd0f","not_provided","desktop","0","0","1","","","","","","working_memory","","null","<div class=""fixation"">Correct</div>","null","","","","","","","","","","","","","","","","",""
"html-keyboard-response","125","308884","0.0-5.0-5.0-0.8","69e1d57facf90191d311cd0f","not_provided","desktop","0","0","1","","","","","","working_memory","","null","<div class=""fixation"">+</div>","null","","","","","","","","","","","","","","","","",""
"html-keyboard-response","126","309090","0.0-5.0-5.0-1.8","69e1d57facf90191d311cd0f","not_provided","desktop","0","0","1","","","","","","working_memory","","null","<img class='c' src=images/squares/blue.png><img class='f' src=images/squares/cyan.png><img class='i' src=images/squares/magenta.png><img class='j' src=images/squares/brown.png><div class=""fixation"">+</div>","null","","","memory","exp","8","","","","","","","","","","","",""
"html-keyboard-response","127","310006","0.0-5.0-5.0-2.8","69e1d57facf90191d311cd0f","not_provided","desktop","0","0","1","","","","","","working_memory","","null","<div class=""fixation"">+</div>","null","","","","","","","","","","","","","","","","",""
"html-keyboard-response","128","311415","0.0-5.0-5.0-3.8","69e1d57facf90191d311cd0f","not_provided","desktop","0","0","1","","","","","","working_memory","","1409","<img class='i' src=images/squares/yellow.png><div class=""fixation"">+</div>","s","","","test_squares","exp","8","4","s","true","ks","d","","","","","","",""
"html-keyboard-response","129","311926","0.0-5.0-5.0-4.8","69e1d57facf90191d311cd0f","not_provided","desktop","0","0","1","","","","","","working_memory","","null","<div class=""fixation"">Correct</div>","null","","","","","","","","","","","","","","","","",""
"html-keyboard-response","130","312932","0.0-5.0-5.0-0.9","69e1d57facf90191d311cd0f","not_provided","desktop","0","0","1","","","","","","working_memory","","null","<div class=""fixation"">+</div>","null","","","","","","","","","","","","","","","","",""
"html-keyboard-response","131","313139","0.0-5.0-5.0-1.9","69e1d57facf90191d311cd0f","not_provided","desktop","0","0","1","","","","","","working_memory","","null","<img class='b' src=images/squares/orange.png><img class='e' src=images/squares/brown.png><img class='h' src=images/squares/black.png><img class='j' src=images/squares/cyan.png><div class=""fixation"">+</div>","null","","","memory","exp","9","","","","","","","","","","","",""
"html-keyboard-response","132","314053","0.0-5.0-5.0-2.9","69e1d57facf90191d311cd0f","not_provided","desktop","0","0","1","","","","","","working_memory","","null","<div class=""fixation"">+</div>","null","","","","","","","","","","","","","","","","",""
"html-keyboard-response","133","315772","0.0-5.0-5.0-3.9","69e1d57facf90191d311cd0f","not_provided","desktop","0","0","1","","","","","","working_memory","","1719","<img class='e' src=images/squares/magenta.png><div class=""fixation"">+</div>","s","","","test_squares","exp","9","4","s","true","ks","d","","","","","","",""
"html-keyboard-response","134","316277","0.0-5.0-5.0-4.9","69e1d57facf90191d311cd0f","not_provided","desktop","0","0","1","","","","","","working_memory","","null","<div class=""fixation"">Correct</div>","null","","","","","","","","","","","","","","","","",""
"html-keyboard-response","135","317279","0.0-5.0-5.0-0.10","69e1d57facf90191d311cd0f","not_provided","desktop","0","0","1","","","","","","working_memory","","null","<div class=""fixation"">+</div>","null","","","","","","","","","","","","","","","","",""
"html-keyboard-response","136","317486","0.0-5.0-5.0-1.10","69e1d57facf90191d311cd0f","not_provided","desktop","0","0","1","","","","","","working_memory","","null","<img class='c' src=images/squares/yellow.png><img class='b' src=images/squares/orange.png><img class='e' src=images/squares/brown.png><img class='f' src=images/squares/green.png><img class='i' src=images/squares/red.png><img class='h' src=images/squares/magenta.png><img class='j' src=images/squares/cyan.png><img class='k' src=images/squares/black.png><div class=""fixation"">+</div>","null","","","memory","exp","10","","","","","","","","","","","",""
"html-keyboard-response","137","318394","0.0-5.0-5.0-2.10","69e1d57facf90191d311cd0f","not_provided","desktop","0","0","1","","","","","","working_memory","","null","<div class=""fixation"">+</div>","null","","","","","","","","","","","","","","","","",""
"html-keyboard-response","138","319814","0.0-5.0-5.0-3.10","69e1d57facf90191d311cd0f","not_provided","desktop","0","0","1","","","","","","working_memory","","1418","<img class='c' src=images/squares/yellow.png><div class=""fixation"">+</div>","k","","","test_squares","exp","10","8","k","true","ks","s","","","","","","",""
"html-keyboard-response","139","320326","0.0-5.0-5.0-4.10","69e1d57facf90191d311cd0f","not_provided","desktop","0","0","1","","","","","","working_memory","","null","<div class=""fixation"">Correct</div>","null","","","","","","","","","","","","","","","","",""
"html-keyboard-response","140","321340","0.0-5.0-5.0-0.11","69e1d57facf90191d311cd0f","not_provided","desktop","0","0","1","","","","","","working_memory","","null","<div class=""fixation"">+</div>","null","","","","","","","","","","","","","","","","",""
"html-keyboard-response","141","321551","0.0-5.0-5.0-1.11","69e1d57facf90191d311cd0f","not_provided","desktop","0","0","1","","","","","","working_memory","","null","<img class='a' src=images/squares/black.png><img class='b' src=images/squares/cyan.png><img class='e' src=images/squares/brown.png><img class='d' src=images/squares/orange.png><img class='h' src=images/squares/blue.png><img class='g' src=images/squares/red.png><img class='j' src=images/squares/magenta.png><img class='l' src=images/squares/yellow.png><div class=""fixation"">+</div>","null","","","memory","exp","11","","","","","","","","","","","",""
"html-keyboard-response","142","322467","0.0-5.0-5.0-2.11","69e1d57facf90191d311cd0f","not_provided","desktop","0","0","1","","","","","","working_memory","","null","<div class=""fixation"">+</div>","null","","","","","","","","","","","","","","","","",""
"html-keyboard-response","143","323548","0.0-5.0-5.0-3.11","69e1d57facf90191d311cd0f","not_provided","desktop","0","0","1","","","","","","working_memory","","1080","<img class='d' src=images/squares/orange.png><div class=""fixation"">+</div>","k","","","test_squares","exp","11","8","k","true","ks","s","","","","","","",""
"html-keyboard-response","144","324052","0.0-5.0-5.0-4.11","69e1d57facf90191d311cd0f","not_provided","desktop","0","0","1","","","","","","working_memory","","null","<div class=""fixation"">Correct</div>","null","","","","","","","","","","","","","","","","",""
"html-keyboard-response","145","325060","0.0-5.0-5.0-0.12","69e1d57facf90191d311cd0f","not_provided","desktop","0","0","1","","","","","","working_memory","","null","<div class=""fixation"">+</div>","null","","","","","","","","","","","","","","","","",""
"html-keyboard-response","146","325267","0.0-5.0-5.0-1.12","69e1d57facf90191d311cd0f","not_provided","desktop","0","0","1","","","","","","working_memory","","null","<img class='a' src=images/squares/yellow.png><img class='f' src=images/squares/orange.png><img class='i' src=images/squares/green.png><img class='l' src=images/squares/cyan.png><div class=""fixation"">+</div>","null","","","memory","exp","12","","","","","","","","","","","",""
"html-keyboard-response","147","326175","0.0-5.0-5.0-2.12","69e1d57facf90191d311cd0f","not_provided","desktop","0","0","1","","","","","","working_memory","","null","<div class=""fixation"">+</div>","null","","","","","","","","","","","","","","","","",""
"html-keyboard-response","148","327453","0.0-5.0-5.0-3.12","69e1d57facf90191d311cd0f","not_provided","desktop","0","0","1","","","","","","working_memory","","1278","<img class='l' src=images/squares/black.png><div class=""fixation"">+</div>","s","","","test_squares","exp","12","4","s","true","ks","d","","","","","","",""
"html-keyboard-response","149","327957","0.0-5.0-5.0-4.12","69e1d57facf90191d311cd0f","not_provided","desktop","0","0","1","","","","","","working_memory","","null","<div class=""fixation"">Correct</div>","null","","","","","","","","","","","","","","","","",""
"html-keyboard-response","150","328971","0.0-5.0-5.0-0.13","69e1d57facf90191d311cd0f","not_provided","desktop","0","0","1","","","","","","working_memory","","null","<div class=""fixation"">+</div>","null","","","","","","","","","","","","","","","","",""
"html-keyboard-response","151","329181","0.0-5.0-5.0-1.13","69e1d57facf90191d311cd0f","not_provided","desktop","0","0","1","","","","","","working_memory","","null","<img class='c' src=images/squares/blue.png><img class='f' src=images/squares/black.png><img class='i' src=images/squares/yellow.png><img class='k' src=images/squares/red.png><div class=""fixation"">+</div>","null","","","memory","exp","13","","","","","","","","","","","",""
"html-keyboard-response","152","330087","0.0-5.0-5.0-2.13","69e1d57facf90191d311cd0f","not_provided","desktop","0","0","1","","","","","","working_memory","","null","<div class=""fixation"">+</div>","null","","","","","","","","","","","","","","","","",""
"html-keyboard-response","153","331404","0.0-5.0-5.0-3.13","69e1d57facf90191d311cd0f","not_provided","desktop","0","0","1","","","","","","working_memory","","1316","<img class='i' src=images/squares/yellow.png><div class=""fixation"">+</div>","k","","","test_squares","exp","13","4","k","true","ks","s","","","","","","",""
"html-keyboard-response","154","331917","0.0-5.0-5.0-4.13","69e1d57facf90191d311cd0f","not_provided","desktop","0","0","1","","","","","","working_memory","","null","<div class=""fixation"">Correct</div>","null","","","","","","","","","","","","","","","","",""
"html-keyboard-response","155","332925","0.0-5.0-5.0-0.14","69e1d57facf90191d311cd0f","not_provided","desktop","0","0","1","","","","","","working_memory","","null","<div class=""fixation"">+</div>","null","","","","","","","","","","","","","","","","",""
"html-keyboard-response","156","333135","0.0-5.0-5.0-1.14","69e1d57facf90191d311cd0f","not_provided","desktop","0","0","1","","","","","","working_memory","","null","<img class='b' src=images/squares/cyan.png><img class='d' src=images/squares/black.png><img class='g' src=images/squares/brown.png><img class='l' src=images/squares/blue.png><div class=""fixation"">+</div>","null","","","memory","exp","14","","","","","","","","","","","",""
"html-keyboard-response","157","334050","0.0-5.0-5.0-2.14","69e1d57facf90191d311cd0f","not_provided","desktop","0","0","1","","","","","","working_memory","","null","<div class=""fixation"">+</div>","null","","","","","","","","","","","","","","","","",""
"html-keyboard-response","158","335059","0.0-5.0-5.0-3.14","69e1d57facf90191d311cd0f","not_provided","desktop","0","0","1","","","","","","working_memory","","1008","<img class='g' src=images/squares/brown.png><div class=""fixation"">+</div>","k","","","test_squares","exp","14","4","k","true","ks","s","","","","","","",""
"html-keyboard-response","159","335566","0.0-5.0-5.0-4.14","69e1d57facf90191d311cd0f","not_provided","desktop","0","0","1","","","","","","working_memory","","null","<div class=""fixation"">Correct</div>","null","","","","","","","","","","","","","","","","",""
"html-keyboard-response","160","336581","0.0-5.0-5.0-0.15","69e1d57facf90191d311cd0f","not_provided","desktop","0","0","1","","","","","","working_memory","","null","<div class=""fixation"">+</div>","null","","","","","","","","","","","","","","","","",""
"html-keyboard-response","161","336795","0.0-5.0-5.0-1.15","69e1d57facf90191d311cd0f","not_provided","desktop","0","0","1","","","","","","working_memory","","null","<img class='c' src=images/squares/brown.png><img class='d' src=images/squares/cyan.png><img class='h' src=images/squares/magenta.png><img class='k' src=images/squares/orange.png><div class=""fixation"">+</div>","null","","","memory","exp","15","","","","","","","","","","","",""
"html-keyboard-response","162","337704","0.0-5.0-5.0-2.15","69e1d57facf90191d311cd0f","not_provided","desktop","0","0","1","","","","","","working_memory","","null","<div class=""fixation"">+</div>","null","","","","","","","","","","","","","","","","",""
"html-keyboard-response","163","338783","0.0-5.0-5.0-3.15","69e1d57facf90191d311cd0f","not_provided","desktop","0","0","1","","","","","","working_memory","","1078","<img class='k' src=images/squares/yellow.png><div class=""fixation"">+</div>","s","","","test_squares","exp","15","4","s","true","ks","d","","","","","","",""
"html-keyboard-response","164","339294","0.0-5.0-5.0-4.15","69e1d57facf90191d311cd0f","not_provided","desktop","0","0","1","","","","","","working_memory","","null","<div class=""fixation"">Correct</div>","null","","","","","","","","","","","","","","","","",""
"html-keyboard-response","165","340300","0.0-5.0-5.0-0.16","69e1d57facf90191d311cd0f","not_provided","desktop","0","0","1","","","","","","working_memory","","null","<div class=""fixation"">+</div>","null","","","","","","","","","","","","","","","","",""
"html-keyboard-response","166","340509","0.0-5.0-5.0-1.16","69e1d57facf90191d311cd0f","not_provided","desktop","0","0","1","","","","","","working_memory","","null","<img class='a' src=images/squares/orange.png><img class='e' src=images/squares/red.png><img class='i' src=images/squares/blue.png><img class='j' src=images/squares/magenta.png><div class=""fixation"">+</div>","null","","","memory","exp","16","","","","","","","","","","","",""
"html-keyboard-response","167","341425","0.0-5.0-5.0-2.16","69e1d57facf90191d311cd0f","not_provided","desktop","0","0","1","","","","","","working_memory","","null","<div class=""fixation"">+</div>","null","","","","","","","","","","","","","","","","",""
"html-keyboard-response","168","342723","0.0-5.0-5.0-3.16","69e1d57facf90191d311cd0f","not_provided","desktop","0","0","1","","","","","","working_memory","","1297","<img class='i' src=images/squares/yellow.png><div class=""fixation"">+</div>","s","","","test_squares","exp","16","4","s","true","ks","d","","","","","","",""
"html-keyboard-response","169","343230","0.0-5.0-5.0-4.16","69e1d57facf90191d311cd0f","not_provided","desktop","0","0","1","","","","","","working_memory","","null","<div class=""fixation"">Correct</div>","null","","","","","","","","","","","","","","","","",""
"html-keyboard-response","170","344240","0.0-5.0-5.0-0.17","69e1d57facf90191d311cd0f","not_provided","desktop","0","0","1","","","","","","working_memory","","null","<div class=""fixation"">+</div>","null","","","","","","","","","","","","","","","","",""
"html-keyboard-response","171","344444","0.0-5.0-5.0-1.17","69e1d57facf90191d311cd0f","not_provided","desktop","0","0","1","","","","","","working_memory","","null","<img class='b' src=images/squares/cyan.png><img class='c' src=images/squares/orange.png><img class='e' src=images/squares/blue.png><img class='f' src=images/squares/black.png><img class='i' src=images/squares/yellow.png><img class='h' src=images/squares/green.png><img class='k' src=images/squares/magenta.png><img class='j' src=images/squares/brown.png><div class=""fixation"">+</div>","null","","","memory","exp","17","","","","","","","","","","","",""
"html-keyboard-response","172","345349","0.0-5.0-5.0-2.17","69e1d57facf90191d311cd0f","not_provided","desktop","0","0","1","","","","","","working_memory","","null","<div class=""fixation"">+</div>","null","","","","","","","","","","","","","","","","",""
"html-keyboard-response","173","346414","0.0-5.0-5.0-3.17","69e1d57facf90191d311cd0f","not_provided","desktop","0","0","1","","","","","","working_memory","","1065","<img class='e' src=images/squares/red.png><div class=""fixation"">+</div>","s","","","test_squares","exp","17","8","s","true","ks","d","","","","","","",""
"html-keyboard-response","174","346926","0.0-5.0-5.0-4.17","69e1d57facf90191d311cd0f","not_provided","desktop","0","0","1","","","","","","working_memory","","null","<div class=""fixation"">Correct</div>","null","","","","","","","","","","","","","","","","",""
"html-keyboard-response","175","347937","0.0-5.0-5.0-0.18","69e1d57facf90191d311cd0f","not_provided","desktop","0","0","1","","","","","","working_memory","","null","<div class=""fixation"">+</div>","null","","","","","","","","","","","","","","","","",""
"html-keyboard-response","176","348139","0.0-5.0-5.0-1.18","69e1d57facf90191d311cd0f","not_provided","desktop","0","0","1","","","","","","working_memory","","null","<img class='c' src=images/squares/orange.png><img class='f' src=images/squares/yellow.png><img class='h' src=images/squares/black.png><img class='j' src=images/squares/brown.png><div class=""fixation"">+</div>","null","","","memory","exp","18","","","","","","","","","","","",""
"html-keyboard-response","177","349043","0.0-5.0-5.0-2.18","69e1d57facf90191d311cd0f","not_provided","desktop","0","0","1","","","","","","working_memory","","null","<div class=""fixation"">+</div>","null","","","","","","","","","","","","","","","","",""
"html-keyboard-response","178","350378","0.0-5.0-5.0-3.18","69e1d57facf90191d311cd0f","not_provided","desktop","0","0","1","","","","","","working_memory","","1335","<img class='c' src=images/squares/orange.png><div class=""fixation"">+</div>","s","","","test_squares","exp","18","4","k","false","ks","s","","","","","","",""
"html-keyboard-response","179","350884","0.0-5.0-5.0-4.18","69e1d57facf90191d311cd0f","not_provided","desktop","0","0","1","","","","","","working_memory","","null","<div class=""fixation"">Incorrect</div>","null","","","","","","","","","","","","","","","","",""
"html-keyboard-response","180","351893","0.0-5.0-5.0-0.19","69e1d57facf90191d311cd0f","not_provided","desktop","0","0","1","","","","","","working_memory","","null","<div class=""fixation"">+</div>","null","","","","","","","","","","","","","","","","",""
"html-keyboard-response","181","352104","0.0-5.0-5.0-1.19","69e1d57facf90191d311cd0f","not_provided","desktop","0","0","1","","","","","","working_memory","","null","<img class='c' src=images/squares/yellow.png><img class='e' src=images/squares/orange.png><img class='i' src=images/squares/brown.png><img class='k' src=images/squares/red.png><div class=""fixation"">+</div>","null","","","memory","exp","19","","","","","","","","","","","",""
"html-keyboard-response","182","353007","0.0-5.0-5.0-2.19","69e1d57facf90191d311cd0f","not_provided","desktop","0","0","1","","","","","","working_memory","","null","<div class=""fixation"">+</div>","null","","","","","","","","","","","","","","","","",""
"html-keyboard-response","183","353842","0.0-5.0-5.0-3.19","69e1d57facf90191d311cd0f","not_provided","desktop","0","0","1","","","","","","working_memory","","834","<img class='c' src=images/squares/blue.png><div class=""fixation"">+</div>","s","","","test_squares","exp","19","4","s","true","ks","d","","","","","","",""
"html-keyboard-response","184","354347","0.0-5.0-5.0-4.19","69e1d57facf90191d311cd0f","not_provided","desktop","0","0","1","","","","","","working_memory","","null","<div class=""fixation"">Correct</div>","null","","","","","","","","","","","","","","","","",""
"html-keyboard-response","185","355358","0.0-5.0-5.0-0.20","69e1d57facf90191d311cd0f","not_provided","desktop","0","0","1","","","","","","working_memory","","null","<div class=""fixation"">+</div>","null","","","","","","","","","","","","","","","","",""
"html-keyboard-response","186","355568","0.0-5.0-5.0-1.20","69e1d57facf90191d311cd0f","not_provided","desktop","0","0","1","","","","","","working_memory","","null","<img class='b' src=images/squares/red.png><img class='a' src=images/squares/orange.png><img class='e' src=images/squares/green.png><img class='f' src=images/squares/black.png><img class='h' src=images/squares/blue.png><img class='g' src=images/squares/cyan.png><img class='l' src=images/squares/magenta.png><img class='k' src=images/squares/yellow.png><div class=""fixation"">+</div>","null","","","memory","exp","20","","","","","","","","","","","",""
"html-keyboard-response","187","356476","0.0-5.0-5.0-2.20","69e1d57facf90191d311cd0f","not_provided","desktop","0","0","1","","","","","","working_memory","","null","<div class=""fixation"">+</div>","null","","","","","","","","","","","","","","","","",""
"html-keyboard-response","188","358208","0.0-5.0-5.0-3.20","69e1d57facf90191d311cd0f","not_provided","desktop","0","0","1","","","","","","working_memory","","1731","<img class='g' src=images/squares/brown.png><div class=""fixation"">+</div>","s","","","test_squares","exp","20","8","s","true","ks","d","","","","","","",""
"html-keyboard-response","189","358722","0.0-5.0-5.0-4.20","69e1d57facf90191d311cd0f","not_provided","desktop","0","0","1","","","","","","working_memory","","null","<div class=""fixation"">Correct</div>","null","","","","","","","","","","","","","","","","",""
"html-keyboard-response","190","359735","0.0-5.0-5.0-0.21","69e1d57facf90191d311cd0f","not_provided","desktop","0","0","1","","","","","","working_memory","","null","<div class=""fixation"">+</div>","null","","","","","","","","","","","","","","","","",""
"html-keyboard-response","191","359948","0.0-5.0-5.0-1.21","69e1d57facf90191d311cd0f","not_provided","desktop","0","0","1","","","","","","working_memory","","null","<img class='c' src=images/squares/black.png><img class='d' src=images/squares/blue.png><img class='i' src=images/squares/red.png><img class='l' src=images/squares/brown.png><div class=""fixation"">+</div>","null","","","memory","exp","21","","","","","","","","","","","",""
"html-keyboard-response","192","360864","0.0-5.0-5.0-2.21","69e1d57facf90191d311cd0f","not_provided","desktop","0","0","1","","","","","","working_memory","","null","<div class=""fixation"">+</div>","null","","","","","","","","","","","","","","","","",""
"html-keyboard-response","193","362034","0.0-5.0-5.0-3.21","69e1d57facf90191d311cd0f","not_provided","desktop","0","0","1","","","","","","working_memory","","1169","<img class='l' src=images/squares/brown.png><div class=""fixation"">+</div>","k","","","test_squares","exp","21","4","k","true","ks","s","","","","","","",""
"html-keyboard-response","194","362538","0.0-5.0-5.0-4.21","69e1d57facf90191d311cd0f","not_provided","desktop","0","0","1","","","","","","working_memory","","null","<div class=""fixation"">Correct</div>","null","","","","","","","","","","","","","","","","",""
"html-keyboard-response","195","363543","0.0-5.0-5.0-0.22","69e1d57facf90191d311cd0f","not_provided","desktop","0","0","1","","","","","","working_memory","","null","<div class=""fixation"">+</div>","null","","","","","","","","","","","","","","","","",""
"html-keyboard-response","196","363746","0.0-5.0-5.0-1.22","69e1d57facf90191d311cd0f","not_provided","desktop","0","0","1","","","","","","working_memory","","null","<img class='b' src=images/squares/brown.png><img class='f' src=images/squares/red.png><img class='h' src=images/squares/orange.png><img class='k' src=images/squares/cyan.png><div class=""fixation"">+</div>","null","","","memory","exp","22","","","","","","","","","","","",""
"html-keyboard-response","197","364654","0.0-5.0-5.0-2.22","69e1d57facf90191d311cd0f","not_provided","desktop","0","0","1","","","","","","working_memory","","null","<div class=""fixation"">+</div>","null","","","","","","","","","","","","","","","","",""
"html-keyboard-response","198","366116","0.0-5.0-5.0-3.22","69e1d57facf90191d311cd0f","not_provided","desktop","0","0","1","","","","","","working_memory","","1460","<img class='k' src=images/squares/black.png><div class=""fixation"">+</div>","s","","","test_squares","exp","22","4","s","true","ks","d","","","","","","",""
"html-keyboard-response","199","366622","0.0-5.0-5.0-4.22","69e1d57facf90191d311cd0f","not_provided","desktop","0","0","1","","","","","","working_memory","","null","<div class=""fixation"">Correct</div>","null","","","","","","","","","","","","","","","","",""
"html-keyboard-response","200","367635","0.0-5.0-5.0-0.23","69e1d57facf90191d311cd0f","not_provided","desktop","0","0","1","","","","","","working_memory","","null","<div class=""fixation"">+</div>","null","","","","","","","","","","","","","","","","",""
"html-keyboard-response","201","367844","0.0-5.0-5.0-1.23","69e1d57facf90191d311cd0f","not_provided","desktop","0","0","1","","","","","","working_memory","","null","<img class='b' src=images/squares/orange.png><img class='a' src=images/squares/cyan.png><img class='e' src=images/squares/magenta.png><img class='d' src=images/squares/black.png><img class='h' src=images/squares/yellow.png><img class='i' src=images/squares/green.png><img class='j' src=images/squares/blue.png><img class='k' src=images/squares/red.png><div class=""fixation"">+</div>","null","","","memory","exp","23","","","","","","","","","","","",""
"html-keyboard-response","202","368748","0.0-5.0-5.0-2.23","69e1d57facf90191d311cd0f","not_provided","desktop","0","0","1","","","","","","working_memory","","null","<div class=""fixation"">+</div>","null","","","","","","","","","","","","","","","","",""
"html-keyboard-response","203","370276","0.0-5.0-5.0-3.23","69e1d57facf90191d311cd0f","not_provided","desktop","0","0","1","","","","","","working_memory","","1527","<img class='j' src=images/squares/blue.png><div class=""fixation"">+</div>","s","","","test_squares","exp","23","8","k","false","ks","s","","","","","","",""
"html-keyboard-response","204","370783","0.0-5.0-5.0-4.23","69e1d57facf90191d311cd0f","not_provided","desktop","0","0","1","","","","","","working_memory","","null","<div class=""fixation"">Incorrect</div>","null","","","","","","","","","","","","","","","","",""
"html-keyboard-response","205","371796","0.0-5.0-5.0-0.24","69e1d57facf90191d311cd0f","not_provided","desktop","0","0","1","","","","","","working_memory","","null","<div class=""fixation"">+</div>","null","","","","","","","","","","","","","","","","",""
"html-keyboard-response","206","372009","0.0-5.0-5.0-1.24","69e1d57facf90191d311cd0f","not_provided","desktop","0","0","1","","","","","","working_memory","","null","<img class='a' src=images/squares/yellow.png><img class='d' src=images/squares/blue.png><img class='g' src=images/squares/magenta.png><img class='k' src=images/squares/red.png><div class=""fixation"">+</div>","null","","","memory","exp","24","","","","","","","","","","","",""
"html-keyboard-response","207","372916","0.0-5.0-5.0-2.24","69e1d57facf90191d311cd0f","not_provided","desktop","0","0","1","","","","","","working_memory","","null","<div class=""fixation"">+</div>","null","","","","","","","","","","","","","","","","",""
"html-keyboard-response","208","373668","0.0-5.0-5.0-3.24","69e1d57facf90191d311cd0f","not_provided","desktop","0","0","1","","","","","","working_memory","","751","<img class='d' src=images/squares/brown.png><div class=""fixation"">+</div>","s","","","test_squares","exp","24","4","s","true","ks","d","","","","","","",""
"html-keyboard-response","209","374182","0.0-5.0-5.0-4.24","69e1d57facf90191d311cd0f","not_provided","desktop","0","0","1","","","","","","working_memory","","null","<div class=""fixation"">Correct</div>","null","","","","","","","","","","","","","","","","",""
"html-keyboard-response","210","375194","0.0-5.0-5.0-0.25","69e1d57facf90191d311cd0f","not_provided","desktop","0","0","1","","","","","","working_memory","","null","<div class=""fixation"">+</div>","null","","","","","","","","","","","","","","","","",""
"html-keyboard-response","211","375407","0.0-5.0-5.0-1.25","69e1d57facf90191d311cd0f","not_provided","desktop","0","0","1","","","","","","working_memory","","null","<img class='b' src=images/squares/yellow.png><img class='e' src=images/squares/red.png><img class='g' src=images/squares/green.png><img class='k' src=images/squares/brown.png><div class=""fixation"">+</div>","null","","","memory","exp","25","","","","","","","","","","","",""
"html-keyboard-response","212","376316","0.0-5.0-5.0-2.25","69e1d57facf90191d311cd0f","not_provided","desktop","0","0","1","","","","","","working_memory","","null","<div class=""fixation"">+</div>","null","","","","","","","","","","","","","","","","",""
"html-keyboard-response","213","377314","0.0-5.0-5.0-3.25","69e1d57facf90191d311cd0f","not_provided","desktop","0","0","1","","","","","","working_memory","","996","<img class='e' src=images/squares/red.png><div class=""fixation"">+</div>","k","","","test_squares","exp","25","4","k","true","ks","s","","","","","","",""
"html-keyboard-response","214","377828","0.0-5.0-5.0-4.25","69e1d57facf90191d311cd0f","not_provided","desktop","0","0","1","","","","","","working_memory","","null","<div class=""fixation"">Correct</div>","null","","","","","","","","","","","","","","","","",""
"html-keyboard-response","215","378841","0.0-5.0-5.0-0.26","69e1d57facf90191d311cd0f","not_provided","desktop","0","0","1","","","","","","working_memory","","null","<div class=""fixation"">+</div>","null","","","","","","","","","","","","","","","","",""
"html-keyboard-response","216","379056","0.0-5.0-5.0-1.26","69e1d57facf90191d311cd0f","not_provided","desktop","0","0","1","","","","","","working_memory","","null","<img class='c' src=images/squares/brown.png><img class='a' src=images/squares/yellow.png><img class='f' src=images/squares/magenta.png><img class='e' src=images/squares/red.png><img class='h' src=images/squares/black.png><img class='g' src=images/squares/cyan.png><img class='l' src=images/squares/green.png><img class='k' src=images/squares/orange.png><div class=""fixation"">+</div>","null","","","memory","exp","26","","","","","","","","","","","",""
"html-keyboard-response","217","379957","0.0-5.0-5.0-2.26","69e1d57facf90191d311cd0f","not_provided","desktop","0","0","1","","","","","","working_memory","","null","<div class=""fixation"">+</div>","null","","","","","","","","","","","","","","","","",""
"html-keyboard-response","218","380582","0.0-5.0-5.0-3.26","69e1d57facf90191d311cd0f","not_provided","desktop","0","0","1","","","","","","working_memory","","623","<img class='e' src=images/squares/blue.png><div class=""fixation"">+</div>","k","","","test_squares","exp","26","8","s","false","ks","d","","","","","","",""
"html-keyboard-response","219","381094","0.0-5.0-5.0-4.26","69e1d57facf90191d311cd0f","not_provided","desktop","0","0","1","","","","","","working_memory","","null","<div class=""fixation"">Incorrect</div>","null","","","","","","","","","","","","","","","","",""
"html-keyboard-response","220","382096","0.0-5.0-5.0-0.27","69e1d57facf90191d311cd0f","not_provided","desktop","0","0","1","","","","","","working_memory","","null","<div class=""fixation"">+</div>","null","","","","","","","","","","","","","","","","",""
"html-keyboard-response","221","382306","0.0-5.0-5.0-1.27","69e1d57facf90191d311cd0f","not_provided","desktop","0","0","1","","","","","","working_memory","","null","<img class='c' src=images/squares/cyan.png><img class='b' src=images/squares/red.png><img class='e' src=images/squares/magenta.png><img class='f' src=images/squares/orange.png><img class='i' src=images/squares/blue.png><img class='g' src=images/squares/green.png><img class='j' src=images/squares/yellow.png><img class='l' src=images/squares/brown.png><div class=""fixation"">+</div>","null","","","memory","exp","27","","","","","","","","","","","",""
"html-keyboard-response","222","383213","0.0-5.0-5.0-2.27","69e1d57facf90191d311cd0f","not_provided","desktop","0","0","1","","","","","","working_memory","","null","<div class=""fixation"">+</div>","null","","","","","","","","","","","","","","","","",""
"html-keyboard-response","223","383940","0.0-5.0-5.0-3.27","69e1d57facf90191d311cd0f","not_provided","desktop","0","0","1","","","","","","working_memory","","727","<img class='b' src=images/squares/red.png><div class=""fixation"">+</div>","k","","","test_squares","exp","27","8","k","true","ks","s","","","","","","",""
"html-keyboard-response","224","384444","0.0-5.0-5.0-4.27","69e1d57facf90191d311cd0f","not_provided","desktop","0","0","1","","","","","","working_memory","","null","<div class=""fixation"">Correct</div>","null","","","","","","","","","","","","","","","","",""
"html-keyboard-response","225","385454","0.0-5.0-5.0-0.28","69e1d57facf90191d311cd0f","not_provided","desktop","0","0","1","","","","","","working_memory","","null","<div class=""fixation"">+</div>","null","","","","","","","","","","","","","","","","",""
"html-keyboard-response","226","385656","0.0-5.0-5.0-1.28","69e1d57facf90191d311cd0f","not_provided","desktop","0","0","1","","","","","","working_memory","","null","<img class='a' src=images/squares/yellow.png><img class='e' src=images/squares/cyan.png><img class='i' src=images/squares/blue.png><img class='k' src=images/squares/magenta.png><div class=""fixation"">+</div>","null","","","memory","exp","28","","","","","","","","","","","",""
"html-keyboard-response","227","386558","0.0-5.0-5.0-2.28","69e1d57facf90191d311cd0f","not_provided","desktop","0","0","1","","","","","","working_memory","","null","<div class=""fixation"">+</div>","null","","","","","","","","","","","","","","","","",""
"html-keyboard-response","228","387314","0.0-5.0-5.0-3.28","69e1d57facf90191d311cd0f","not_provided","desktop","0","0","1","","","","","","working_memory","","755","<img class='a' src=images/squares/yellow.png><div class=""fixation"">+</div>","k","","","test_squares","exp","28","4","k","true","ks","s","","","","","","",""
"html-keyboard-response","229","387819","0.0-5.0-5.0-4.28","69e1d57facf90191d311cd0f","not_provided","desktop","0","0","1","","","","","","working_memory","","null","<div class=""fixation"">Correct</div>","null","","","","","","","","","","","","","","","","",""
"html-keyboard-response","230","388826","0.0-5.0-5.0-0.29","69e1d57facf90191d311cd0f","not_provided","desktop","0","0","1","","","","","","working_memory","","null","<div class=""fixation"">+</div>","null","","","","","","","","","","","","","","","","",""
"html-keyboard-response","231","389036","0.0-5.0-5.0-1.29","69e1d57facf90191d311cd0f","not_provided","desktop","0","0","1","","","","","","working_memory","","null","<img class='c' src=images/squares/cyan.png><img class='f' src=images/squares/orange.png><img class='h' src=images/squares/yellow.png><img class='l' src=images/squares/black.png><div class=""fixation"">+</div>","null","","","memory","exp","29","","","","","","","","","","","",""
"html-keyboard-response","232","389938","0.0-5.0-5.0-2.29","69e1d57facf90191d311cd0f","not_provided","desktop","0","0","1","","","","","","working_memory","","null","<div class=""fixation"">+</div>","null","","","","","","","","","","","","","","","","",""
"html-keyboard-response","233","390717","0.0-5.0-5.0-3.29","69e1d57facf90191d311cd0f","not_provided","desktop","0","0","1","","","","","","working_memory","","778","<img class='c' src=images/squares/cyan.png><div class=""fixation"">+</div>","k","","","test_squares","exp","29","4","k","true","ks","s","","","","","","",""
"html-keyboard-response","234","391218","0.0-5.0-5.0-4.29","69e1d57facf90191d311cd0f","not_provided","desktop","0","0","1","","","","","","working_memory","","null","<div class=""fixation"">Correct</div>","null","","","","","","","","","","","","","","","","",""
"html-keyboard-response","235","392219","0.0-5.0-5.0-0.30","69e1d57facf90191d311cd0f","not_provided","desktop","0","0","1","","","","","","working_memory","","null","<div class=""fixation"">+</div>","null","","","","","","","","","","","","","","","","",""
"html-keyboard-response","236","392423","0.0-5.0-5.0-1.30","69e1d57facf90191d311cd0f","not_provided","desktop","0","0","1","","","","","","working_memory","","null","<img class='c' src=images/squares/black.png><img class='e' src=images/squares/red.png><img class='g' src=images/squares/yellow.png><img class='j' src=images/squares/cyan.png><div class=""fixation"">+</div>","null","","","memory","exp","30","","","","","","","","","","","",""
"html-keyboard-response","237","393339","0.0-5.0-5.0-2.30","69e1d57facf90191d311cd0f","not_provided","desktop","0","0","1","","","","","","working_memory","","null","<div class=""fixation"">+</div>","null","","","","","","","","","","","","","","","","",""
"html-keyboard-response","238","394080","0.0-5.0-5.0-3.30","69e1d57facf90191d311cd0f","not_provided","desktop","0","0","1","","","","","","working_memory","","740","<img class='c' src=images/squares/magenta.png><div class=""fixation"">+</div>","s","","","test_squares","exp","30","4","s","true","ks","d","","","","","","",""
"html-keyboard-response","239","394586","0.0-5.0-5.0-4.30","69e1d57facf90191d311cd0f","not_provided","desktop","0","0","1","","","","","","working_memory","","null","<div class=""fixation"">Correct</div>","null","","","","","","","","","","","","","","","","",""
"html-keyboard-response","240","395588","0.0-5.0-5.0-0.31","69e1d57facf90191d311cd0f","not_provided","desktop","0","0","1","","","","","","working_memory","","null","<div class=""fixation"">+</div>","null","","","","","","","","","","","","","","","","",""
"html-keyboard-response","241","395800","0.0-5.0-5.0-1.31","69e1d57facf90191d311cd0f","not_provided","desktop","0","0","1","","","","","","working_memory","","null","<img class='a' src=images/squares/magenta.png><img class='e' src=images/squares/brown.png><img class='i' src=images/squares/cyan.png><img class='l' src=images/squares/orange.png><div class=""fixation"">+</div>","null","","","memory","exp","31","","","","","","","","","","","",""
"html-keyboard-response","242","396710","0.0-5.0-5.0-2.31","69e1d57facf90191d311cd0f","not_provided","desktop","0","0","1","","","","","","working_memory","","null","<div class=""fixation"">+</div>","null","","","","","","","","","","","","","","","","",""
"html-keyboard-response","243","397709","0.0-5.0-5.0-3.31","69e1d57facf90191d311cd0f","not_provided","desktop","0","0","1","","","","","","working_memory","","998","<img class='i' src=images/squares/green.png><div class=""fixation"">+</div>","s","","","test_squares","exp","31","4","s","true","ks","d","","","","","","",""
"html-keyboard-response","244","398220","0.0-5.0-5.0-4.31","69e1d57facf90191d311cd0f","not_provided","desktop","0","0","1","","","","","","working_memory","","null","<div class=""fixation"">Correct</div>","null","","","","","","","","","","","","","","","","",""
"html-keyboard-response","245","399236","0.0-5.0-5.0-0.32","69e1d57facf90191d311cd0f","not_provided","desktop","0","0","1","","","","","","working_memory","","null","<div class=""fixation"">+</div>","null","","","","","","","","","","","","","","","","",""
"html-keyboard-response","246","399449","0.0-5.0-5.0-1.32","69e1d57facf90191d311cd0f","not_provided","desktop","0","0","1","","","","","","working_memory","","null","<img class='a' src=images/squares/cyan.png><img class='d' src=images/squares/blue.png><img class='h' src=images/squares/green.png><img class='k' src=images/squares/red.png><div class=""fixation"">+</div>","null","","","memory","exp","32","","","","","","","","","","","",""
"html-keyboard-response","247","400350","0.0-5.0-5.0-2.32","69e1d57facf90191d311cd0f","not_provided","desktop","0","0","1","","","","","","working_memory","","null","<div class=""fixation"">+</div>","null","","","","","","","","","","","","","","","","",""
"html-keyboard-response","248","401278","0.0-5.0-5.0-3.32","69e1d57facf90191d311cd0f","not_provided","desktop","0","0","1","","","","","","working_memory","","927","<img class='a' src=images/squares/yellow.png><div class=""fixation"">+</div>","s","","","test_squares","exp","32","4","s","true","ks","d","","","","","","",""
"html-keyboard-response","249","401788","0.0-5.0-5.0-4.32","69e1d57facf90191d311cd0f","not_provided","desktop","0","0","1","","","","","","working_memory","","null","<div class=""fixation"">Correct</div>","null","","","","","","","","","","","","","","","","",""
"html-keyboard-response","250","402804","0.0-5.0-5.0-0.33","69e1d57facf90191d311cd0f","not_provided","desktop","0","0","1","","","","","","working_memory","","null","<div class=""fixation"">+</div>","null","","","","","","","","","","","","","","","","",""
"html-keyboard-response","251","403016","0.0-5.0-5.0-1.33","69e1d57facf90191d311cd0f","not_provided","desktop","0","0","1","","","","","","working_memory","","null","<img class='b' src=images/squares/cyan.png><img class='c' src=images/squares/green.png><img class='e' src=images/squares/yellow.png><img class='f' src=images/squares/orange.png><img class='i' src=images/squares/brown.png><img class='h' src=images/squares/black.png><img class='k' src=images/squares/magenta.png><img class='j' src=images/squares/blue.png><div class=""fixation"">+</div>","null","","","memory","exp","33","","","","","","","","","","","",""
"html-keyboard-response","252","403932","0.0-5.0-5.0-2.33","69e1d57facf90191d311cd0f","not_provided","desktop","0","0","1","","","","","","working_memory","","null","<div class=""fixation"">+</div>","null","","","","","","","","","","","","","","","","",""
"html-keyboard-response","253","405891","0.0-5.0-5.0-3.33","69e1d57facf90191d311cd0f","not_provided","desktop","0","0","1","","","","","","working_memory","","1958","<img class='e' src=images/squares/yellow.png><div class=""fixation"">+</div>","k","","","test_squares","exp","33","8","k","true","ks","s","","","","","","",""
"html-keyboard-response","254","406400","0.0-5.0-5.0-4.33","69e1d57facf90191d311cd0f","not_provided","desktop","0","0","1","","","","","","working_memory","","null","<div class=""fixation"">Correct</div>","null","","","","","","","","","","","","","","","","",""
"html-keyboard-response","255","407414","0.0-5.0-5.0-0.34","69e1d57facf90191d311cd0f","not_provided","desktop","0","0","1","","","","","","working_memory","","null","<div class=""fixation"">+</div>","null","","","","","","","","","","","","","","","","",""
"html-keyboard-response","256","407615","0.0-5.0-5.0-1.34","69e1d57facf90191d311cd0f","not_provided","desktop","0","0","1","","","","","","working_memory","","null","<img class='a' src=images/squares/black.png><img class='d' src=images/squares/red.png><img class='g' src=images/squares/orange.png><img class='k' src=images/squares/cyan.png><div class=""fixation"">+</div>","null","","","memory","exp","34","","","","","","","","","","","",""
"html-keyboard-response","257","408528","0.0-5.0-5.0-2.34","69e1d57facf90191d311cd0f","not_provided","desktop","0","0","1","","","","","","working_memory","","null","<div class=""fixation"">+</div>","null","","","","","","","","","","","","","","","","",""
"html-keyboard-response","258","409289","0.0-5.0-5.0-3.34","69e1d57facf90191d311cd0f","not_provided","desktop","0","0","1","","","","","","working_memory","","760","<img class='d' src=images/squares/red.png><div class=""fixation"">+</div>","k","","","test_squares","exp","34","4","k","true","ks","s","","","","","","",""
"html-keyboard-response","259","409802","0.0-5.0-5.0-4.34","69e1d57facf90191d311cd0f","not_provided","desktop","0","0","1","","","","","","working_memory","","null","<div class=""fixation"">Correct</div>","null","","","","","","","","","","","","","","","","",""
"html-keyboard-response","260","410804","0.0-5.0-5.0-0.35","69e1d57facf90191d311cd0f","not_provided","desktop","0","0","1","","","","","","working_memory","","null","<div class=""fixation"">+</div>","null","","","","","","","","","","","","","","","","",""
"html-keyboard-response","261","411012","0.0-5.0-5.0-1.35","69e1d57facf90191d311cd0f","not_provided","desktop","0","0","1","","","","","","working_memory","","null","<img class='a' src=images/squares/black.png><img class='c' src=images/squares/magenta.png><img class='d' src=images/squares/red.png><img class='f' src=images/squares/yellow.png><img class='g' src=images/squares/brown.png><img class='i' src=images/squares/green.png><img class='k' src=images/squares/blue.png><img class='l' src=images/squares/cyan.png><div class=""fixation"">+</div>","null","","","memory","exp","35","","","","","","","","","","","",""
"html-keyboard-response","262","411920","0.0-5.0-5.0-2.35","69e1d57facf90191d311cd0f","not_provided","desktop","0","0","1","","","","","","working_memory","","null","<div class=""fixation"">+</div>","null","","","","","","","","","","","","","","","","",""
"html-keyboard-response","263","413319","0.0-5.0-5.0-3.35","69e1d57facf90191d311cd0f","not_provided","desktop","0","0","1","","","","","","working_memory","","1398","<img class='k' src=images/squares/orange.png><div class=""fixation"">+</div>","s","","","test_squares","exp","35","8","s","true","ks","d","","","","","","",""
"html-keyboard-response","264","413835","0.0-5.0-5.0-4.35","69e1d57facf90191d311cd0f","not_provided","desktop","0","0","1","","","","","","working_memory","","null","<div class=""fixation"">Correct</div>","null","","","","","","","","","","","","","","","","",""
"html-keyboard-response","265","414850","0.0-5.0-5.0-0.36","69e1d57facf90191d311cd0f","not_provided","desktop","0","0","1","","","","","","working_memory","","null","<div class=""fixation"">+</div>","null","","","","","","","","","","","","","","","","",""
"html-keyboard-response","266","415064","0.0-5.0-5.0-1.36","69e1d57facf90191d311cd0f","not_provided","desktop","0","0","1","","","","","","working_memory","","null","<img class='a' src=images/squares/brown.png><img class='f' src=images/squares/red.png><img class='g' src=images/squares/yellow.png><img class='j' src=images/squares/magenta.png><div class=""fixation"">+</div>","null","","","memory","exp","36","","","","","","","","","","","",""
"html-keyboard-response","267","415969","0.0-5.0-5.0-2.36","69e1d57facf90191d311cd0f","not_provided","desktop","0","0","1","","","","","","working_memory","","null","<div class=""fixation"">+</div>","null","","","","","","","","","","","","","","","","",""
"html-keyboard-response","268","416962","0.0-5.0-5.0-3.36","69e1d57facf90191d311cd0f","not_provided","desktop","0","0","1","","","","","","working_memory","","993","<img class='f' src=images/squares/red.png><div class=""fixation"">+</div>","s","","","test_squares","exp","36","4","k","false","ks","s","","","","","","",""
"html-keyboard-response","269","417467","0.0-5.0-5.0-4.36","69e1d57facf90191d311cd0f","not_provided","desktop","0","0","1","","","","","","working_memory","","null","<div class=""fixation"">Incorrect</div>","null","","","","","","","","","","","","","","","","",""
"html-keyboard-response","270","418478","0.0-5.0-5.0-0.37","69e1d57facf90191d311cd0f","not_provided","desktop","0","0","1","","","","","","working_memory","","null","<div class=""fixation"">+</div>","null","","","","","","","","","","","","","","","","",""
"html-keyboard-response","271","418691","0.0-5.0-5.0-1.37","69e1d57facf90191d311cd0f","not_provided","desktop","0","0","1","","","","","","working_memory","","null","<img class='c' src=images/squares/cyan.png><img class='e' src=images/squares/yellow.png><img class='h' src=images/squares/red.png><img class='k' src=images/squares/orange.png><div class=""fixation"">+</div>","null","","","memory","exp","37","","","","","","","","","","","",""
"html-keyboard-response","272","419592","0.0-5.0-5.0-2.37","69e1d57facf90191d311cd0f","not_provided","desktop","0","0","1","","","","","","working_memory","","null","<div class=""fixation"">+</div>","null","","","","","","","","","","","","","","","","",""
"html-keyboard-response","273","421413","0.0-5.0-5.0-3.37","69e1d57facf90191d311cd0f","not_provided","desktop","0","0","1","","","","","","working_memory","","1820","<img class='k' src=images/squares/orange.png><div class=""fixation"">+</div>","s","","","test_squares","exp","37","4","k","false","ks","s","","","","","","",""
"html-keyboard-response","274","421924","0.0-5.0-5.0-4.37","69e1d57facf90191d311cd0f","not_provided","desktop","0","0","1","","","","","","working_memory","","null","<div class=""fixation"">Incorrect</div>","null","","","","","","","","","","","","","","","","",""
"html-keyboard-response","275","422932","0.0-5.0-5.0-0.38","69e1d57facf90191d311cd0f","not_provided","desktop","0","0","1","","","","","","working_memory","","null","<div class=""fixation"">+</div>","null","","","","","","","","","","","","","","","","",""
"html-keyboard-response","276","423137","0.0-5.0-5.0-1.38","69e1d57facf90191d311cd0f","not_provided","desktop","0","0","1","","","","","","working_memory","","null","<img class='a' src=images/squares/magenta.png><img class='b' src=images/squares/red.png><img class='e' src=images/squares/blue.png><img class='d' src=images/squares/black.png><img class='h' src=images/squares/orange.png><img class='i' src=images/squares/green.png><img class='j' src=images/squares/yellow.png><img class='l' src=images/squares/cyan.png><div class=""fixation"">+</div>","null","","","memory","exp","38","","","","","","","","","","","",""
"html-keyboard-response","277","424053","0.0-5.0-5.0-2.38","69e1d57facf90191d311cd0f","not_provided","desktop","0","0","1","","","","","","working_memory","","null","<div class=""fixation"">+</div>","null","","","","","","","","","","","","","","","","",""
"html-keyboard-response","278","425053","0.0-5.0-5.0-3.38","69e1d57facf90191d311cd0f","not_provided","desktop","0","0","1","","","","","","working_memory","","998","<img class='l' src=images/squares/cyan.png><div class=""fixation"">+</div>","k","","","test_squares","exp","38","8","k","true","ks","s","","","","","","",""
"html-keyboard-response","279","425554","0.0-5.0-5.0-4.38","69e1d57facf90191d311cd0f","not_provided","desktop","0","0","1","","","","","","working_memory","","null","<div class=""fixation"">Correct</div>","null","","","","","","","","","","","","","","","","",""
"html-keyboard-response","280","426570","0.0-5.0-5.0-0.39","69e1d57facf90191d311cd0f","not_provided","desktop","0","0","1","","","","","","working_memory","","null","<div class=""fixation"">+</div>","null","","","","","","","","","","","","","","","","",""
"html-keyboard-response","281","426773","0.0-5.0-5.0-1.39","69e1d57facf90191d311cd0f","not_provided","desktop","0","0","1","","","","","","working_memory","","null","<img class='b' src=images/squares/brown.png><img class='c' src=images/squares/cyan.png><img class='d' src=images/squares/magenta.png><img class='f' src=images/squares/red.png><img class='i' src=images/squares/yellow.png><img class='h' src=images/squares/green.png><img class='k' src=images/squares/blue.png><img class='l' src=images/squares/orange.png><div class=""fixation"">+</div>","null","","","memory","exp","39","","","","","","","","","","","",""
"html-keyboard-response","282","427673","0.0-5.0-5.0-2.39","69e1d57facf90191d311cd0f","not_provided","desktop","0","0","1","","","","","","working_memory","","null","<div class=""fixation"">+</div>","null","","","","","","","","","","","","","","","","",""
"html-keyboard-response","283","428325","0.0-5.0-5.0-3.39","69e1d57facf90191d311cd0f","not_provided","desktop","0","0","1","","","","","","working_memory","","650","<img class='h' src=images/squares/black.png><div class=""fixation"">+</div>","k","","","test_squares","exp","39","8","s","false","ks","d","","","","","","",""
"html-keyboard-response","284","428836","0.0-5.0-5.0-4.39","69e1d57facf90191d311cd0f","not_provided","desktop","0","0","1","","","","","","working_memory","","null","<div class=""fixation"">Incorrect</div>","null","","","","","","","","","","","","","","","","",""
"html-keyboard-response","285","429840","0.0-5.0-5.0-0.40","69e1d57facf90191d311cd0f","not_provided","desktop","0","0","1","","","","","","working_memory","","null","<div class=""fixation"">+</div>","null","","","","","","","","","","","","","","","","",""
"html-keyboard-response","286","430052","0.0-5.0-5.0-1.40","69e1d57facf90191d311cd0f","not_provided","desktop","0","0","1","","","","","","working_memory","","null","<img class='b' src=images/squares/magenta.png><img class='c' src=images/squares/black.png><img class='f' src=images/squares/yellow.png><img class='d' src=images/squares/brown.png><img class='i' src=images/squares/orange.png><img class='g' src=images/squares/green.png><img class='k' src=images/squares/blue.png><img class='l' src=images/squares/red.png><div class=""fixation"">+</div>","null","","","memory","exp","40","","","","","","","","","","","",""
"html-keyboard-response","287","430956","0.0-5.0-5.0-2.40","69e1d57facf90191d311cd0f","not_provided","desktop","0","0","1","","","","","","working_memory","","null","<div class=""fixation"">+</div>","null","","","","","","","","","","","","","","","","",""
"html-keyboard-response","288","431669","0.0-5.0-5.0-3.40","69e1d57facf90191d311cd0f","not_provided","desktop","0","0","1","","","","","","working_memory","","712","<img class='d' src=images/squares/brown.png><div class=""fixation"">+</div>","k","","","test_squares","exp","40","8","k","true","ks","s","","","","","","",""
"html-keyboard-response","289","432172","0.0-5.0-5.0-4.40","69e1d57facf90191d311cd0f","not_provided","desktop","0","0","1","","","","","","working_memory","","null","<div class=""fixation"">Correct</div>","null","","","","","","","","","","","","","","","","",""
"html-keyboard-response","290","433187","0.0-5.0-5.0-0.41","69e1d57facf90191d311cd0f","not_provided","desktop","0","0","1","","","","","","working_memory","","null","<div class=""fixation"">+</div>","null","","","","","","","","","","","","","","","","",""
"html-keyboard-response","291","433402","0.0-5.0-5.0-1.41","69e1d57facf90191d311cd0f","not_provided","desktop","0","0","1","","","","","","working_memory","","null","<img class='c' src=images/squares/brown.png><img class='d' src=images/squares/blue.png><img class='g' src=images/squares/green.png><img class='j' src=images/squares/cyan.png><div class=""fixation"">+</div>","null","","","memory","exp","41","","","","","","","","","","","",""
"html-keyboard-response","292","434306","0.0-5.0-5.0-2.41","69e1d57facf90191d311cd0f","not_provided","desktop","0","0","1","","","","","","working_memory","","null","<div class=""fixation"">+</div>","null","","","","","","","","","","","","","","","","",""
"html-keyboard-response","293","435479","0.0-5.0-5.0-3.41","69e1d57facf90191d311cd0f","not_provided","desktop","0","0","1","","","","","","working_memory","","1172","<img class='j' src=images/squares/cyan.png><div class=""fixation"">+</div>","k","","","test_squares","exp","41","4","k","true","ks","s","","","","","","",""
"html-keyboard-response","294","435983","0.0-5.0-5.0-4.41","69e1d57facf90191d311cd0f","not_provided","desktop","0","0","1","","","","","","working_memory","","null","<div class=""fixation"">Correct</div>","null","","","","","","","","","","","","","","","","",""
"html-keyboard-response","295","437000","0.0-5.0-5.0-0.42","69e1d57facf90191d311cd0f","not_provided","desktop","0","0","1","","","","","","working_memory","","null","<div class=""fixation"">+</div>","null","","","","","","","","","","","","","","","","",""
"html-keyboard-response","296","437214","0.0-5.0-5.0-1.42","69e1d57facf90191d311cd0f","not_provided","desktop","0","0","1","","","","","","working_memory","","null","<img class='c' src=images/squares/black.png><img class='b' src=images/squares/magenta.png><img class='f' src=images/squares/green.png><img class='e' src=images/squares/red.png><img class='g' src=images/squares/yellow.png><img class='i' src=images/squares/blue.png><img class='j' src=images/squares/cyan.png><img class='l' src=images/squares/brown.png><div class=""fixation"">+</div>","null","","","memory","exp","42","","","","","","","","","","","",""
"html-keyboard-response","297","438130","0.0-5.0-5.0-2.42","69e1d57facf90191d311cd0f","not_provided","desktop","0","0","1","","","","","","working_memory","","null","<div class=""fixation"">+</div>","null","","","","","","","","","","","","","","","","",""
"html-keyboard-response","298","439208","0.0-5.0-5.0-3.42","69e1d57facf90191d311cd0f","not_provided","desktop","0","0","1","","","","","","working_memory","","1077","<img class='l' src=images/squares/brown.png><div class=""fixation"">+</div>","s","","","test_squares","exp","42","8","k","false","ks","s","","","","","","",""
"html-keyboard-response","299","439724","0.0-5.0-5.0-4.42","69e1d57facf90191d311cd0f","not_provided","desktop","0","0","1","","","","","","working_memory","","null","<div class=""fixation"">Incorrect</div>","null","","","","","","","","","","","","","","","","",""
"html-keyboard-response","300","440738","0.0-5.0-5.0-0.43","69e1d57facf90191d311cd0f","not_provided","desktop","0","0","1","","","","","","working_memory","","null","<div class=""fixation"">+</div>","null","","","","","","","","","","","","","","","","",""
"html-keyboard-response","301","440950","0.0-5.0-5.0-1.43","69e1d57facf90191d311cd0f","not_provided","desktop","0","0","1","","","","","","working_memory","","null","<img class='a' src=images/squares/green.png><img class='c' src=images/squares/brown.png><img class='d' src=images/squares/red.png><img class='e' src=images/squares/blue.png><img class='g' src=images/squares/cyan.png><img class='i' src=images/squares/orange.png><img class='k' src=images/squares/magenta.png><img class='j' src=images/squares/black.png><div class=""fixation"">+</div>","null","","","memory","exp","43","","","","","","","","","","","",""
"html-keyboard-response","302","441858","0.0-5.0-5.0-2.43","69e1d57facf90191d311cd0f","not_provided","desktop","0","0","1","","","","","","working_memory","","null","<div class=""fixation"">+</div>","null","","","","","","","","","","","","","","","","",""
"html-keyboard-response","303","443209","0.0-5.0-5.0-3.43","69e1d57facf90191d311cd0f","not_provided","desktop","0","0","1","","","","","","working_memory","","1350","<img class='a' src=images/squares/green.png><div class=""fixation"">+</div>","k","","","test_squares","exp","43","8","k","true","ks","s","","","","","","",""
"html-keyboard-response","304","443716","0.0-5.0-5.0-4.43","69e1d57facf90191d311cd0f","not_provided","desktop","0","0","1","","","","","","working_memory","","null","<div class=""fixation"">Correct</div>","null","","","","","","","","","","","","","","","","",""
"html-keyboard-response","305","444732","0.0-5.0-5.0-0.44","69e1d57facf90191d311cd0f","not_provided","desktop","0","0","1","","","","","","working_memory","","null","<div class=""fixation"">+</div>","null","","","","","","","","","","","","","","","","",""
"html-keyboard-response","306","444945","0.0-5.0-5.0-1.44","69e1d57facf90191d311cd0f","not_provided","desktop","0","0","1","","","","","","working_memory","","null","<img class='b' src=images/squares/black.png><img class='f' src=images/squares/cyan.png><img class='g' src=images/squares/blue.png><img class='j' src=images/squares/magenta.png><div class=""fixation"">+</div>","null","","","memory","exp","44","","","","","","","","","","","",""
