"trial_type","trial_index","time_elapsed","internal_node_id","subject_id","study_id","device_type","blur_count","fullscreen_exit_count","failed_attention_checks","success","timeout","failed_images","failed_audio","failed_video","phase","value","rt","stimulus","response","view_history","question_order","trial_name","block_type","trial_num","set_size","correct_response","accuracy","mapping","condition","prompt","flipped","attention","expected_answer","category","question_index","task"
"pavlovia","0","821","0.0-0.0","62ebe597372fdef388b734b3","not_provided","desktop","0","0","0","","","","","","","","","","","","","","","","","","","","","","","","","","",""
"preload","1","899","0.0-2.0","62ebe597372fdef388b734b3","not_provided","desktop","0","0","0","true","false","[]","[]","[]","","","","","","","","","","","","","","","","","","","","","",""
"html-keyboard-response","2","10367","0.0-3.0-0.0","62ebe597372fdef388b734b3","not_provided","desktop","0","0","0","","","","","","captcha","","","","","","","","","","","","","","","","","","","","",""
"fullscreen","3","14901","0.0-4.0","62ebe597372fdef388b734b3","not_provided","desktop","0","0","0","true","","","","","setup","","","","","","","","","","","","","","","","","","","","",""
"call-function","4","14902","0.0-5.0-0.0","62ebe597372fdef388b734b3","not_provided","desktop","0","0","0","","","","","","working_memory","","","","","","","","","","","","","","","","","","","","",""
"html-keyboard-response","5","24233","0.0-5.0-1.0","62ebe597372fdef388b734b3","not_provided","desktop","0","0","0","","","","","","working_memory","","9329","<div style=""text-align:center;font-family:sans-serif;""><p>Welcome to the luck game experiment!</p><p>This two-day experiment takes part in a study aimed at developing better clinical treatments.</p><p>We appreciate your participation and require your full concentration.</p><br><p>This is a two-day study. Payment (£6/hour) is only given upon completing both parts today and tomorrow.</p><p>You must finish the second part for compensation. After today, you'll receive an invitation for tomorrow's session.</p><p>Please ensure you can attend both sessions before proceeding. Otherwise, you may exit now.</p><p>If you have any questions, please contact us via prolific.</p><br><p>Please stay attentive and in fullscreen mode to ensure payment.</p><p>Thank you for participating!</p><br><p id=""continue-prompt"" style=""visibility:hidden;""><b>Press any key to continue.</b></p></div>"," ","","","","","","","","","","","","","","","","",""
"instructions","6","170132","0.0-5.0-2.0-0.0","62ebe597372fdef388b734b3","not_provided","desktop","0","0","0","","","","","","working_memory","","145894","","","[{""page_index"":0,""viewing_time"":1351},{""page_index"":1,""viewing_time"":933},{""page_index"":2,""viewing_time"":2301},{""page_index"":3,""viewing_time"":2017},{""page_index"":4,""viewing_time"":4217},{""page_index"":5,""viewing_time"":5617},{""page_index"":6,""viewing_time"":4184},{""page_index"":7,""viewing_time"":2750},{""page_index"":8,""viewing_time"":122525}]","","","","","","","","","","","","","","","",""
"survey-multi-choice","7","189753","0.0-5.0-2.0-1.0","62ebe597372fdef388b734b3","not_provided","desktop","0","0","0","","","","","","working_memory","","19617","","{""set_size"":""4 or 8"",""steps"":""True"",""choose_square"":""Press the 'k' or 's' key."",""remember"":""The colors and locations of the 'memory' squares"",""task"":""To tell if the 'test' square is in the same color as the square previously appearing in this location""}","","[0,1,2,3,4]","test_squares_quiz","","","","","","","","","","","","","",""
"html-keyboard-response","8","196901","0.0-5.0-3.0-0.0","62ebe597372fdef388b734b3","not_provided","desktop","0","0","0","","","","","","working_memory","","7146","<p>We will now start some practice trials.<br><b>The practice trials will also include some trials in which you will need to remember only one square to make sure you understood the instructions.</b><br>You may already want to be ready with your fingers on '<b>s</b>' and '<b>k</b>'.<br><img class=""wm-example-img"" src=""images/examples/keyboard.png""><br><b style=""font-size:1.2em;"">&lsquo;K&rsquo; = SAME &nbsp;&nbsp;&nbsp; &lsquo;S&rsquo; = DIFFERENT</b><br><br><u>Please try to be as accurate as possible.</u><br><br><b>Press any key to begin</b></p>"," ","","","","","","","","","","","","","","","","",""
"html-keyboard-response","9","198903","0.0-5.0-3.0-1.0-0.0","62ebe597372fdef388b734b3","not_provided","desktop","0","0","0","","","","","","working_memory","","null","<div class=""fixation"">+</div>","null","","","","","","","","","","","","","","","","",""
"html-keyboard-response","10","199105","0.0-5.0-3.0-1.0-1.0","62ebe597372fdef388b734b3","not_provided","desktop","0","0","0","","","","","","working_memory","","null","<img class='lower1' src=images/squares/yellow.png><div class=""fixation"">+</div>","null","","","memory","practice","0","1","","","","","","","","","","",""
"html-keyboard-response","11","200007","0.0-5.0-3.0-1.0-2.0","62ebe597372fdef388b734b3","not_provided","desktop","0","0","0","","","","","","working_memory","","null","<div class=""fixation"">+</div>","null","","","","","","","","","","","","","","","","",""
"html-keyboard-response","12","201173","0.0-5.0-3.0-1.0-3.0","62ebe597372fdef388b734b3","not_provided","desktop","0","0","0","","","","","","working_memory","","1166","<img class='lower1' src=images/squares/magenta.png><div class=""fixation"">+</div>","s","","","test","practice","0","1","s","true","","","","","","","","",""
"html-keyboard-response","13","201674","0.0-5.0-3.0-1.0-4.0","62ebe597372fdef388b734b3","not_provided","desktop","0","0","0","","","","","","working_memory","","null","<div class=""fixation"">Correct</div>","null","","","","","","","","","","","","","","","","",""
"html-keyboard-response","14","202676","0.0-5.0-3.0-1.0-0.1","62ebe597372fdef388b734b3","not_provided","desktop","0","0","0","","","","","","working_memory","","null","<div class=""fixation"">+</div>","null","","","","","","","","","","","","","","","","",""
"html-keyboard-response","15","202878","0.0-5.0-3.0-1.0-1.1","62ebe597372fdef388b734b3","not_provided","desktop","0","0","0","","","","","","working_memory","","null","<img class='lower1' src=images/squares/green.png><div class=""fixation"">+</div>","null","","","memory","practice","1","1","","","","","","","","","","",""
"html-keyboard-response","16","203780","0.0-5.0-3.0-1.0-2.1","62ebe597372fdef388b734b3","not_provided","desktop","0","0","0","","","","","","working_memory","","null","<div class=""fixation"">+</div>","null","","","","","","","","","","","","","","","","",""
"html-keyboard-response","17","204162","0.0-5.0-3.0-1.0-3.1","62ebe597372fdef388b734b3","not_provided","desktop","0","0","0","","","","","","working_memory","","381","<img class='lower1' src=images/squares/green.png><div class=""fixation"">+</div>","k","","","test","practice","1","1","k","true","","","","","","","","",""
"html-keyboard-response","18","204663","0.0-5.0-3.0-1.0-4.1","62ebe597372fdef388b734b3","not_provided","desktop","0","0","0","","","","","","working_memory","","null","<div class=""fixation"">Correct</div>","null","","","","","","","","","","","","","","","","",""
"html-keyboard-response","19","205664","0.0-5.0-3.0-1.0-0.2","62ebe597372fdef388b734b3","not_provided","desktop","0","0","0","","","","","","working_memory","","null","<div class=""fixation"">+</div>","null","","","","","","","","","","","","","","","","",""
"html-keyboard-response","20","205867","0.0-5.0-3.0-1.0-1.2","62ebe597372fdef388b734b3","not_provided","desktop","0","0","0","","","","","","working_memory","","null","<img class='lower3' src=images/squares/magenta.png><div class=""fixation"">+</div>","null","","","memory","practice","2","1","","","","","","","","","","",""
"html-keyboard-response","21","206769","0.0-5.0-3.0-1.0-2.2","62ebe597372fdef388b734b3","not_provided","desktop","0","0","0","","","","","","working_memory","","null","<div class=""fixation"">+</div>","null","","","","","","","","","","","","","","","","",""
"html-keyboard-response","22","207335","0.0-5.0-3.0-1.0-3.2","62ebe597372fdef388b734b3","not_provided","desktop","0","0","0","","","","","","working_memory","","565","<img class='lower3' src=images/squares/yellow.png><div class=""fixation"">+</div>","s","","","test","practice","2","1","s","true","","","","","","","","",""
"html-keyboard-response","23","207836","0.0-5.0-3.0-1.0-4.2","62ebe597372fdef388b734b3","not_provided","desktop","0","0","0","","","","","","working_memory","","null","<div class=""fixation"">Correct</div>","null","","","","","","","","","","","","","","","","",""
"html-keyboard-response","24","208838","0.0-5.0-3.0-1.0-0.3","62ebe597372fdef388b734b3","not_provided","desktop","0","0","0","","","","","","working_memory","","null","<div class=""fixation"">+</div>","null","","","","","","","","","","","","","","","","",""
"html-keyboard-response","25","209040","0.0-5.0-3.0-1.0-1.3","62ebe597372fdef388b734b3","not_provided","desktop","0","0","0","","","","","","working_memory","","null","<img class='c' src=images/squares/red.png><img class='f' src=images/squares/cyan.png><img class='g' src=images/squares/magenta.png><img class='k' src=images/squares/green.png><div class=""fixation"">+</div>","null","","","memory","practice","3","4","","","","","","","","","","",""
"html-keyboard-response","26","209942","0.0-5.0-3.0-1.0-2.3","62ebe597372fdef388b734b3","not_provided","desktop","0","0","0","","","","","","working_memory","","null","<div class=""fixation"">+</div>","null","","","","","","","","","","","","","","","","",""
"html-keyboard-response","27","210669","0.0-5.0-3.0-1.0-3.3","62ebe597372fdef388b734b3","not_provided","desktop","0","0","0","","","","","","working_memory","","725","<img class='f' src=images/squares/yellow.png><div class=""fixation"">+</div>","s","","","test","practice","3","4","s","true","","","","","","","","",""
"html-keyboard-response","28","211170","0.0-5.0-3.0-1.0-4.3","62ebe597372fdef388b734b3","not_provided","desktop","0","0","0","","","","","","working_memory","","null","<div class=""fixation"">Correct</div>","null","","","","","","","","","","","","","","","","",""
"html-keyboard-response","29","212173","0.0-5.0-3.0-1.0-0.4","62ebe597372fdef388b734b3","not_provided","desktop","0","0","0","","","","","","working_memory","","null","<div class=""fixation"">+</div>","null","","","","","","","","","","","","","","","","",""
"html-keyboard-response","30","212374","0.0-5.0-3.0-1.0-1.4","62ebe597372fdef388b734b3","not_provided","desktop","0","0","0","","","","","","working_memory","","null","<img class='c' src=images/squares/blue.png><img class='a' src=images/squares/red.png><img class='d' src=images/squares/green.png><img class='f' src=images/squares/yellow.png><img class='h' src=images/squares/magenta.png><img class='g' src=images/squares/black.png><img class='l' src=images/squares/cyan.png><img class='k' src=images/squares/orange.png><div class=""fixation"">+</div>","null","","","memory","practice","4","8","","","","","","","","","","",""
"html-keyboard-response","31","213275","0.0-5.0-3.0-1.0-2.4","62ebe597372fdef388b734b3","not_provided","desktop","0","0","0","","","","","","working_memory","","null","<div class=""fixation"">+</div>","null","","","","","","","","","","","","","","","","",""
"html-keyboard-response","32","213913","0.0-5.0-3.0-1.0-3.4","62ebe597372fdef388b734b3","not_provided","desktop","0","0","0","","","","","","working_memory","","637","<img class='d' src=images/squares/brown.png><div class=""fixation"">+</div>","s","","","test","practice","4","8","s","true","","","","","","","","",""
"html-keyboard-response","33","214415","0.0-5.0-3.0-1.0-4.4","62ebe597372fdef388b734b3","not_provided","desktop","0","0","0","","","","","","working_memory","","null","<div class=""fixation"">Correct</div>","null","","","","","","","","","","","","","","","","",""
"html-keyboard-response","34","215417","0.0-5.0-3.0-1.0-0.5","62ebe597372fdef388b734b3","not_provided","desktop","0","0","0","","","","","","working_memory","","null","<div class=""fixation"">+</div>","null","","","","","","","","","","","","","","","","",""
"html-keyboard-response","35","215620","0.0-5.0-3.0-1.0-1.5","62ebe597372fdef388b734b3","not_provided","desktop","0","0","0","","","","","","working_memory","","null","<img class='c' src=images/squares/green.png><img class='d' src=images/squares/red.png><img class='h' src=images/squares/brown.png><img class='l' src=images/squares/yellow.png><div class=""fixation"">+</div>","null","","","memory","practice","5","4","","","","","","","","","","",""
"html-keyboard-response","36","216522","0.0-5.0-3.0-1.0-2.5","62ebe597372fdef388b734b3","not_provided","desktop","0","0","0","","","","","","working_memory","","null","<div class=""fixation"">+</div>","null","","","","","","","","","","","","","","","","",""
"html-keyboard-response","37","217050","0.0-5.0-3.0-1.0-3.5","62ebe597372fdef388b734b3","not_provided","desktop","0","0","0","","","","","","working_memory","","527","<img class='h' src=images/squares/cyan.png><div class=""fixation"">+</div>","s","","","test","practice","5","4","s","true","","","","","","","","",""
"html-keyboard-response","38","217551","0.0-5.0-3.0-1.0-4.5","62ebe597372fdef388b734b3","not_provided","desktop","0","0","0","","","","","","working_memory","","null","<div class=""fixation"">Correct</div>","null","","","","","","","","","","","","","","","","",""
"html-keyboard-response","39","218554","0.0-5.0-3.0-1.0-0.6","62ebe597372fdef388b734b3","not_provided","desktop","0","0","0","","","","","","working_memory","","null","<div class=""fixation"">+</div>","null","","","","","","","","","","","","","","","","",""
"html-keyboard-response","40","218755","0.0-5.0-3.0-1.0-1.6","62ebe597372fdef388b734b3","not_provided","desktop","0","0","0","","","","","","working_memory","","null","<img class='lower2' src=images/squares/red.png><div class=""fixation"">+</div>","null","","","memory","practice","6","1","","","","","","","","","","",""
"html-keyboard-response","41","219657","0.0-5.0-3.0-1.0-2.6","62ebe597372fdef388b734b3","not_provided","desktop","0","0","0","","","","","","working_memory","","null","<div class=""fixation"">+</div>","null","","","","","","","","","","","","","","","","",""
"html-keyboard-response","42","220274","0.0-5.0-3.0-1.0-3.6","62ebe597372fdef388b734b3","not_provided","desktop","0","0","0","","","","","","working_memory","","616","<img class='lower2' src=images/squares/red.png><div class=""fixation"">+</div>","k","","","test","practice","6","1","k","true","","","","","","","","",""
"html-keyboard-response","43","220775","0.0-5.0-3.0-1.0-4.6","62ebe597372fdef388b734b3","not_provided","desktop","0","0","0","","","","","","working_memory","","null","<div class=""fixation"">Correct</div>","null","","","","","","","","","","","","","","","","",""
"html-keyboard-response","44","221778","0.0-5.0-3.0-1.0-0.7","62ebe597372fdef388b734b3","not_provided","desktop","0","0","0","","","","","","working_memory","","null","<div class=""fixation"">+</div>","null","","","","","","","","","","","","","","","","",""
"html-keyboard-response","45","221979","0.0-5.0-3.0-1.0-1.7","62ebe597372fdef388b734b3","not_provided","desktop","0","0","0","","","","","","working_memory","","null","<img class='upper1' src=images/squares/green.png><div class=""fixation"">+</div>","null","","","memory","practice","7","1","","","","","","","","","","",""
"html-keyboard-response","46","222880","0.0-5.0-3.0-1.0-2.7","62ebe597372fdef388b734b3","not_provided","desktop","0","0","0","","","","","","working_memory","","null","<div class=""fixation"">+</div>","null","","","","","","","","","","","","","","","","",""
"html-keyboard-response","47","223284","0.0-5.0-3.0-1.0-3.7","62ebe597372fdef388b734b3","not_provided","desktop","0","0","0","","","","","","working_memory","","403","<img class='upper1' src=images/squares/black.png><div class=""fixation"">+</div>","s","","","test","practice","7","1","s","true","","","","","","","","",""
"html-keyboard-response","48","223785","0.0-5.0-3.0-1.0-4.7","62ebe597372fdef388b734b3","not_provided","desktop","0","0","0","","","","","","working_memory","","null","<div class=""fixation"">Correct</div>","null","","","","","","","","","","","","","","","","",""
"html-keyboard-response","49","224788","0.0-5.0-3.0-1.0-0.8","62ebe597372fdef388b734b3","not_provided","desktop","0","0","0","","","","","","working_memory","","null","<div class=""fixation"">+</div>","null","","","","","","","","","","","","","","","","",""
"html-keyboard-response","50","224991","0.0-5.0-3.0-1.0-1.8","62ebe597372fdef388b734b3","not_provided","desktop","0","0","0","","","","","","working_memory","","null","<img class='c' src=images/squares/red.png><img class='e' src=images/squares/orange.png><img class='h' src=images/squares/cyan.png><img class='j' src=images/squares/brown.png><div class=""fixation"">+</div>","null","","","memory","practice","8","4","","","","","","","","","","",""
"html-keyboard-response","51","225893","0.0-5.0-3.0-1.0-2.8","62ebe597372fdef388b734b3","not_provided","desktop","0","0","0","","","","","","working_memory","","null","<div class=""fixation"">+</div>","null","","","","","","","","","","","","","","","","",""
"html-keyboard-response","52","226596","0.0-5.0-3.0-1.0-3.8","62ebe597372fdef388b734b3","not_provided","desktop","0","0","0","","","","","","working_memory","","703","<img class='h' src=images/squares/black.png><div class=""fixation"">+</div>","s","","","test","practice","8","4","s","true","","","","","","","","",""
"html-keyboard-response","53","227097","0.0-5.0-3.0-1.0-4.8","62ebe597372fdef388b734b3","not_provided","desktop","0","0","0","","","","","","working_memory","","null","<div class=""fixation"">Correct</div>","null","","","","","","","","","","","","","","","","",""
"html-keyboard-response","54","228099","0.0-5.0-3.0-1.0-0.9","62ebe597372fdef388b734b3","not_provided","desktop","0","0","0","","","","","","working_memory","","null","<div class=""fixation"">+</div>","null","","","","","","","","","","","","","","","","",""
"html-keyboard-response","55","228301","0.0-5.0-3.0-1.0-1.9","62ebe597372fdef388b734b3","not_provided","desktop","0","0","0","","","","","","working_memory","","null","<img class='lower3' src=images/squares/yellow.png><div class=""fixation"">+</div>","null","","","memory","practice","9","1","","","","","","","","","","",""
"html-keyboard-response","56","229204","0.0-5.0-3.0-1.0-2.9","62ebe597372fdef388b734b3","not_provided","desktop","0","0","0","","","","","","working_memory","","null","<div class=""fixation"">+</div>","null","","","","","","","","","","","","","","","","",""
"html-keyboard-response","57","229685","0.0-5.0-3.0-1.0-3.9","62ebe597372fdef388b734b3","not_provided","desktop","0","0","0","","","","","","working_memory","","480","<img class='lower3' src=images/squares/orange.png><div class=""fixation"">+</div>","s","","","test","practice","9","1","s","true","","","","","","","","",""
"html-keyboard-response","58","230186","0.0-5.0-3.0-1.0-4.9","62ebe597372fdef388b734b3","not_provided","desktop","0","0","0","","","","","","working_memory","","null","<div class=""fixation"">Correct</div>","null","","","","","","","","","","","","","","","","",""
"html-keyboard-response","59","231189","0.0-5.0-3.0-1.0-0.10","62ebe597372fdef388b734b3","not_provided","desktop","0","0","0","","","","","","working_memory","","null","<div class=""fixation"">+</div>","null","","","","","","","","","","","","","","","","",""
"html-keyboard-response","60","231391","0.0-5.0-3.0-1.0-1.10","62ebe597372fdef388b734b3","not_provided","desktop","0","0","0","","","","","","working_memory","","null","<img class='c' src=images/squares/red.png><img class='a' src=images/squares/blue.png><img class='d' src=images/squares/yellow.png><img class='e' src=images/squares/green.png><img class='i' src=images/squares/black.png><img class='g' src=images/squares/cyan.png><img class='l' src=images/squares/brown.png><img class='k' src=images/squares/magenta.png><div class=""fixation"">+</div>","null","","","memory","practice","10","8","","","","","","","","","","",""
"html-keyboard-response","61","232294","0.0-5.0-3.0-1.0-2.10","62ebe597372fdef388b734b3","not_provided","desktop","0","0","0","","","","","","working_memory","","null","<div class=""fixation"">+</div>","null","","","","","","","","","","","","","","","","",""
"html-keyboard-response","62","232928","0.0-5.0-3.0-1.0-3.10","62ebe597372fdef388b734b3","not_provided","desktop","0","0","0","","","","","","working_memory","","634","<img class='g' src=images/squares/cyan.png><div class=""fixation"">+</div>","s","","","test","practice","10","8","k","false","","","","","","","","",""
"html-keyboard-response","63","233430","0.0-5.0-3.0-1.0-4.10","62ebe597372fdef388b734b3","not_provided","desktop","0","0","0","","","","","","working_memory","","null","<div class=""fixation"">Incorrect</div>","null","","","","","","","","","","","","","","","","",""
"html-keyboard-response","64","234433","0.0-5.0-3.0-1.0-0.11","62ebe597372fdef388b734b3","not_provided","desktop","0","0","0","","","","","","working_memory","","null","<div class=""fixation"">+</div>","null","","","","","","","","","","","","","","","","",""
"html-keyboard-response","65","234635","0.0-5.0-3.0-1.0-1.11","62ebe597372fdef388b734b3","not_provided","desktop","0","0","0","","","","","","working_memory","","null","<img class='a' src=images/squares/brown.png><img class='b' src=images/squares/yellow.png><img class='d' src=images/squares/cyan.png><img class='f' src=images/squares/green.png><img class='g' src=images/squares/orange.png><img class='h' src=images/squares/magenta.png><img class='j' src=images/squares/red.png><img class='k' src=images/squares/blue.png><div class=""fixation"">+</div>","null","","","memory","practice","11","8","","","","","","","","","","",""
"html-keyboard-response","66","235538","0.0-5.0-3.0-1.0-2.11","62ebe597372fdef388b734b3","not_provided","desktop","0","0","0","","","","","","working_memory","","null","<div class=""fixation"">+</div>","null","","","","","","","","","","","","","","","","",""
"html-keyboard-response","67","236222","0.0-5.0-3.0-1.0-3.11","62ebe597372fdef388b734b3","not_provided","desktop","0","0","0","","","","","","working_memory","","683","<img class='k' src=images/squares/blue.png><div class=""fixation"">+</div>","s","","","test","practice","11","8","k","false","","","","","","","","",""
"html-keyboard-response","68","236723","0.0-5.0-3.0-1.0-4.11","62ebe597372fdef388b734b3","not_provided","desktop","0","0","0","","","","","","working_memory","","null","<div class=""fixation"">Incorrect</div>","null","","","","","","","","","","","","","","","","",""
"html-keyboard-response","69","237726","0.0-5.0-3.0-1.0-0.12","62ebe597372fdef388b734b3","not_provided","desktop","0","0","0","","","","","","working_memory","","null","<div class=""fixation"">+</div>","null","","","","","","","","","","","","","","","","",""
"html-keyboard-response","70","237928","0.0-5.0-3.0-1.0-1.12","62ebe597372fdef388b734b3","not_provided","desktop","0","0","0","","","","","","working_memory","","null","<img class='upper2' src=images/squares/blue.png><div class=""fixation"">+</div>","null","","","memory","practice","12","1","","","","","","","","","","",""
"html-keyboard-response","71","238831","0.0-5.0-3.0-1.0-2.12","62ebe597372fdef388b734b3","not_provided","desktop","0","0","0","","","","","","working_memory","","null","<div class=""fixation"">+</div>","null","","","","","","","","","","","","","","","","",""
"html-keyboard-response","72","239284","0.0-5.0-3.0-1.0-3.12","62ebe597372fdef388b734b3","not_provided","desktop","0","0","0","","","","","","working_memory","","453","<img class='upper2' src=images/squares/orange.png><div class=""fixation"">+</div>","s","","","test","practice","12","1","s","true","","","","","","","","",""
"html-keyboard-response","73","239785","0.0-5.0-3.0-1.0-4.12","62ebe597372fdef388b734b3","not_provided","desktop","0","0","0","","","","","","working_memory","","null","<div class=""fixation"">Correct</div>","null","","","","","","","","","","","","","","","","",""
"html-keyboard-response","74","240786","0.0-5.0-3.0-1.0-0.13","62ebe597372fdef388b734b3","not_provided","desktop","0","0","0","","","","","","working_memory","","null","<div class=""fixation"">+</div>","null","","","","","","","","","","","","","","","","",""
"html-keyboard-response","75","240989","0.0-5.0-3.0-1.0-1.13","62ebe597372fdef388b734b3","not_provided","desktop","0","0","0","","","","","","working_memory","","null","<img class='lower1' src=images/squares/cyan.png><div class=""fixation"">+</div>","null","","","memory","practice","13","1","","","","","","","","","","",""
"html-keyboard-response","76","241891","0.0-5.0-3.0-1.0-2.13","62ebe597372fdef388b734b3","not_provided","desktop","0","0","0","","","","","","working_memory","","null","<div class=""fixation"">+</div>","null","","","","","","","","","","","","","","","","",""
"html-keyboard-response","77","242404","0.0-5.0-3.0-1.0-3.13","62ebe597372fdef388b734b3","not_provided","desktop","0","0","0","","","","","","working_memory","","511","<img class='lower1' src=images/squares/cyan.png><div class=""fixation"">+</div>","k","","","test","practice","13","1","k","true","","","","","","","","",""
"html-keyboard-response","78","242905","0.0-5.0-3.0-1.0-4.13","62ebe597372fdef388b734b3","not_provided","desktop","0","0","0","","","","","","working_memory","","null","<div class=""fixation"">Correct</div>","null","","","","","","","","","","","","","","","","",""
"html-keyboard-response","79","243905","0.0-5.0-3.0-1.0-0.14","62ebe597372fdef388b734b3","not_provided","desktop","0","0","0","","","","","","working_memory","","null","<div class=""fixation"">+</div>","null","","","","","","","","","","","","","","","","",""
"html-keyboard-response","80","244107","0.0-5.0-3.0-1.0-1.14","62ebe597372fdef388b734b3","not_provided","desktop","0","0","0","","","","","","working_memory","","null","<img class='b' src=images/squares/yellow.png><img class='f' src=images/squares/magenta.png><img class='g' src=images/squares/green.png><img class='j' src=images/squares/red.png><div class=""fixation"">+</div>","null","","","memory","practice","14","4","","","","","","","","","","",""
"html-keyboard-response","81","245009","0.0-5.0-3.0-1.0-2.14","62ebe597372fdef388b734b3","not_provided","desktop","0","0","0","","","","","","working_memory","","null","<div class=""fixation"">+</div>","null","","","","","","","","","","","","","","","","",""
"html-keyboard-response","82","245469","0.0-5.0-3.0-1.0-3.14","62ebe597372fdef388b734b3","not_provided","desktop","0","0","0","","","","","","working_memory","","460","<img class='b' src=images/squares/blue.png><div class=""fixation"">+</div>","s","","","test","practice","14","4","s","true","","","","","","","","",""
"html-keyboard-response","83","245970","0.0-5.0-3.0-1.0-4.14","62ebe597372fdef388b734b3","not_provided","desktop","0","0","0","","","","","","working_memory","","null","<div class=""fixation"">Correct</div>","null","","","","","","","","","","","","","","","","",""
"html-keyboard-response","84","251535","0.0-5.0-4.0","62ebe597372fdef388b734b3","not_provided","desktop","0","0","0","","","","","","working_memory","","5563","<div style=""text-align:center;font-family:sans-serif;""><p>Good job! You have finished the practice.</p><p>We will now start the real experiment.</p><p>Please try to be as accurate as possible.</p><p><b><u>Note: random guessing may risk your payment.</u></b></p><br><p><b>Press any key to begin.</b></p></div>"," ","","","","","","","","","","","","","","","","",""
"html-keyboard-response","85","252537","0.0-5.0-5.0-0.0","62ebe597372fdef388b734b3","not_provided","desktop","0","0","0","","","","","","working_memory","","null","<div class=""fixation"">+</div>","null","","","","","","","","","","","","","","","","",""
"html-keyboard-response","86","252741","0.0-5.0-5.0-1.0","62ebe597372fdef388b734b3","not_provided","desktop","0","0","0","","","","","","working_memory","","null","<img class='a' src=images/squares/red.png><img class='e' src=images/squares/magenta.png><img class='g' src=images/squares/cyan.png><img class='l' src=images/squares/brown.png><div class=""fixation"">+</div>","null","","","memory","exp","0","","","","","","","","","","","",""
"html-keyboard-response","87","253643","0.0-5.0-5.0-2.0","62ebe597372fdef388b734b3","not_provided","desktop","0","0","0","","","","","","working_memory","","null","<div class=""fixation"">+</div>","null","","","","","","","","","","","","","","","","",""
"html-keyboard-response","88","254233","0.0-5.0-5.0-3.0","62ebe597372fdef388b734b3","not_provided","desktop","0","0","0","","","","","","working_memory","","589","<img class='g' src=images/squares/cyan.png><div class=""fixation"">+</div>","s","","","test_squares","exp","0","4","k","false","ks","s","","","","","","",""
"html-keyboard-response","89","254734","0.0-5.0-5.0-4.0","62ebe597372fdef388b734b3","not_provided","desktop","0","0","0","","","","","","working_memory","","null","<div class=""fixation"">Incorrect</div>","null","","","","","","","","","","","","","","","","",""
"html-keyboard-response","90","255736","0.0-5.0-5.0-0.1","62ebe597372fdef388b734b3","not_provided","desktop","0","0","0","","","","","","working_memory","","null","<div class=""fixation"">+</div>","null","","","","","","","","","","","","","","","","",""
"html-keyboard-response","91","255939","0.0-5.0-5.0-1.1","62ebe597372fdef388b734b3","not_provided","desktop","0","0","0","","","","","","working_memory","","null","<img class='b' src=images/squares/magenta.png><img class='a' src=images/squares/cyan.png><img class='d' src=images/squares/black.png><img class='e' src=images/squares/brown.png><img class='h' src=images/squares/green.png><img class='g' src=images/squares/red.png><img class='k' src=images/squares/yellow.png><img class='l' src=images/squares/orange.png><div class=""fixation"">+</div>","null","","","memory","exp","1","","","","","","","","","","","",""
"html-keyboard-response","92","256841","0.0-5.0-5.0-2.1","62ebe597372fdef388b734b3","not_provided","desktop","0","0","0","","","","","","working_memory","","null","<div class=""fixation"">+</div>","null","","","","","","","","","","","","","","","","",""
"html-keyboard-response","93","257458","0.0-5.0-5.0-3.1","62ebe597372fdef388b734b3","not_provided","desktop","0","0","0","","","","","","working_memory","","617","<img class='l' src=images/squares/blue.png><div class=""fixation"">+</div>","s","","","test_squares","exp","1","8","s","true","ks","d","","","","","","",""
"html-keyboard-response","94","257960","0.0-5.0-5.0-4.1","62ebe597372fdef388b734b3","not_provided","desktop","0","0","0","","","","","","working_memory","","null","<div class=""fixation"">Correct</div>","null","","","","","","","","","","","","","","","","",""
"html-keyboard-response","95","258962","0.0-5.0-5.0-0.2","62ebe597372fdef388b734b3","not_provided","desktop","0","0","0","","","","","","working_memory","","null","<div class=""fixation"">+</div>","null","","","","","","","","","","","","","","","","",""
"html-keyboard-response","96","259165","0.0-5.0-5.0-1.2","62ebe597372fdef388b734b3","not_provided","desktop","0","0","0","","","","","","working_memory","","null","<img class='a' src=images/squares/magenta.png><img class='c' src=images/squares/orange.png><img class='f' src=images/squares/black.png><img class='e' src=images/squares/red.png><img class='i' src=images/squares/yellow.png><img class='h' src=images/squares/cyan.png><img class='l' src=images/squares/green.png><img class='j' src=images/squares/blue.png><div class=""fixation"">+</div>","null","","","memory","exp","2","","","","","","","","","","","",""
"html-keyboard-response","97","260067","0.0-5.0-5.0-2.2","62ebe597372fdef388b734b3","not_provided","desktop","0","0","0","","","","","","working_memory","","null","<div class=""fixation"">+</div>","null","","","","","","","","","","","","","","","","",""
"html-keyboard-response","98","260494","0.0-5.0-5.0-3.2","62ebe597372fdef388b734b3","not_provided","desktop","0","0","0","","","","","","working_memory","","426","<img class='e' src=images/squares/red.png><div class=""fixation"">+</div>","k","","","test_squares","exp","2","8","k","true","ks","s","","","","","","",""
"html-keyboard-response","99","260995","0.0-5.0-5.0-4.2","62ebe597372fdef388b734b3","not_provided","desktop","0","0","0","","","","","","working_memory","","null","<div class=""fixation"">Correct</div>","null","","","","","","","","","","","","","","","","",""
"html-keyboard-response","100","261998","0.0-5.0-5.0-0.3","62ebe597372fdef388b734b3","not_provided","desktop","0","0","0","","","","","","working_memory","","null","<div class=""fixation"">+</div>","null","","","","","","","","","","","","","","","","",""
"html-keyboard-response","101","262200","0.0-5.0-5.0-1.3","62ebe597372fdef388b734b3","not_provided","desktop","0","0","0","","","","","","working_memory","","null","<img class='b' src=images/squares/blue.png><img class='d' src=images/squares/magenta.png><img class='h' src=images/squares/green.png><img class='j' src=images/squares/yellow.png><div class=""fixation"">+</div>","null","","","memory","exp","3","","","","","","","","","","","",""
"html-keyboard-response","102","263103","0.0-5.0-5.0-2.3","62ebe597372fdef388b734b3","not_provided","desktop","0","0","0","","","","","","working_memory","","null","<div class=""fixation"">+</div>","null","","","","","","","","","","","","","","","","",""
"html-keyboard-response","103","263746","0.0-5.0-5.0-3.3","62ebe597372fdef388b734b3","not_provided","desktop","0","0","0","","","","","","working_memory","","642","<img class='b' src=images/squares/blue.png><div class=""fixation"">+</div>","s","","","test_squares","exp","3","4","k","false","ks","s","","","","","","",""
"html-keyboard-response","104","264246","0.0-5.0-5.0-4.3","62ebe597372fdef388b734b3","not_provided","desktop","0","0","0","","","","","","working_memory","","null","<div class=""fixation"">Incorrect</div>","null","","","","","","","","","","","","","","","","",""
"html-keyboard-response","105","265249","0.0-5.0-5.0-0.4","62ebe597372fdef388b734b3","not_provided","desktop","0","0","0","","","","","","working_memory","","null","<div class=""fixation"">+</div>","null","","","","","","","","","","","","","","","","",""
"html-keyboard-response","106","265450","0.0-5.0-5.0-1.4","62ebe597372fdef388b734b3","not_provided","desktop","0","0","0","","","","","","working_memory","","null","<img class='b' src=images/squares/red.png><img class='e' src=images/squares/orange.png><img class='i' src=images/squares/green.png><img class='j' src=images/squares/blue.png><div class=""fixation"">+</div>","null","","","memory","exp","4","","","","","","","","","","","",""
"html-keyboard-response","107","266353","0.0-5.0-5.0-2.4","62ebe597372fdef388b734b3","not_provided","desktop","0","0","0","","","","","","working_memory","","null","<div class=""fixation"">+</div>","null","","","","","","","","","","","","","","","","",""
"html-keyboard-response","108","266782","0.0-5.0-5.0-3.4","62ebe597372fdef388b734b3","not_provided","desktop","0","0","0","","","","","","working_memory","","428","<img class='e' src=images/squares/black.png><div class=""fixation"">+</div>","s","","","test_squares","exp","4","4","s","true","ks","d","","","","","","",""
"html-keyboard-response","109","267283","0.0-5.0-5.0-4.4","62ebe597372fdef388b734b3","not_provided","desktop","0","0","0","","","","","","working_memory","","null","<div class=""fixation"">Correct</div>","null","","","","","","","","","","","","","","","","",""
"html-keyboard-response","110","268285","0.0-5.0-5.0-0.5","62ebe597372fdef388b734b3","not_provided","desktop","0","0","0","","","","","","working_memory","","null","<div class=""fixation"">+</div>","null","","","","","","","","","","","","","","","","",""
"html-keyboard-response","111","268487","0.0-5.0-5.0-1.5","62ebe597372fdef388b734b3","not_provided","desktop","0","0","0","","","","","","working_memory","","null","<img class='a' src=images/squares/red.png><img class='c' src=images/squares/cyan.png><img class='e' src=images/squares/green.png><img class='f' src=images/squares/blue.png><img class='h' src=images/squares/magenta.png><img class='g' src=images/squares/brown.png><img class='k' src=images/squares/orange.png><img class='l' src=images/squares/yellow.png><div class=""fixation"">+</div>","null","","","memory","exp","5","","","","","","","","","","","",""
"html-keyboard-response","112","269390","0.0-5.0-5.0-2.5","62ebe597372fdef388b734b3","not_provided","desktop","0","0","0","","","","","","working_memory","","null","<div class=""fixation"">+</div>","null","","","","","","","","","","","","","","","","",""
"html-keyboard-response","113","270186","0.0-5.0-5.0-3.5","62ebe597372fdef388b734b3","not_provided","desktop","0","0","0","","","","","","working_memory","","796","<img class='g' src=images/squares/brown.png><div class=""fixation"">+</div>","k","","","test_squares","exp","5","8","k","true","ks","s","","","","","","",""
"html-keyboard-response","114","270687","0.0-5.0-5.0-4.5","62ebe597372fdef388b734b3","not_provided","desktop","0","0","0","","","","","","working_memory","","null","<div class=""fixation"">Correct</div>","null","","","","","","","","","","","","","","","","",""
"html-keyboard-response","115","271689","0.0-5.0-5.0-0.6","62ebe597372fdef388b734b3","not_provided","desktop","0","0","0","","","","","","working_memory","","null","<div class=""fixation"">+</div>","null","","","","","","","","","","","","","","","","",""
"html-keyboard-response","116","271892","0.0-5.0-5.0-1.6","62ebe597372fdef388b734b3","not_provided","desktop","0","0","0","","","","","","working_memory","","null","<img class='a' src=images/squares/blue.png><img class='c' src=images/squares/black.png><img class='e' src=images/squares/red.png><img class='f' src=images/squares/cyan.png><img class='g' src=images/squares/magenta.png><img class='h' src=images/squares/brown.png><img class='l' src=images/squares/green.png><img class='k' src=images/squares/yellow.png><div class=""fixation"">+</div>","null","","","memory","exp","6","","","","","","","","","","","",""
"html-keyboard-response","117","272793","0.0-5.0-5.0-2.6","62ebe597372fdef388b734b3","not_provided","desktop","0","0","0","","","","","","working_memory","","null","<div class=""fixation"">+</div>","null","","","","","","","","","","","","","","","","",""
"html-keyboard-response","118","273306","0.0-5.0-5.0-3.6","62ebe597372fdef388b734b3","not_provided","desktop","0","0","0","","","","","","working_memory","","512","<img class='a' src=images/squares/blue.png><div class=""fixation"">+</div>","s","","","test_squares","exp","6","8","k","false","ks","s","","","","","","",""
"html-keyboard-response","119","273807","0.0-5.0-5.0-4.6","62ebe597372fdef388b734b3","not_provided","desktop","0","0","0","","","","","","working_memory","","null","<div class=""fixation"">Incorrect</div>","null","","","","","","","","","","","","","","","","",""
"html-keyboard-response","120","274809","0.0-5.0-5.0-0.7","62ebe597372fdef388b734b3","not_provided","desktop","0","0","0","","","","","","working_memory","","null","<div class=""fixation"">+</div>","null","","","","","","","","","","","","","","","","",""
"html-keyboard-response","121","275011","0.0-5.0-5.0-1.7","62ebe597372fdef388b734b3","not_provided","desktop","0","0","0","","","","","","working_memory","","null","<img class='c' src=images/squares/orange.png><img class='d' src=images/squares/yellow.png><img class='i' src=images/squares/black.png><img class='j' src=images/squares/blue.png><div class=""fixation"">+</div>","null","","","memory","exp","7","","","","","","","","","","","",""
"html-keyboard-response","122","275912","0.0-5.0-5.0-2.7","62ebe597372fdef388b734b3","not_provided","desktop","0","0","0","","","","","","working_memory","","null","<div class=""fixation"">+</div>","null","","","","","","","","","","","","","","","","",""
"html-keyboard-response","123","276594","0.0-5.0-5.0-3.7","62ebe597372fdef388b734b3","not_provided","desktop","0","0","0","","","","","","working_memory","","681","<img class='j' src=images/squares/blue.png><div class=""fixation"">+</div>","k","","","test_squares","exp","7","4","k","true","ks","s","","","","","","",""
"html-keyboard-response","124","277095","0.0-5.0-5.0-4.7","62ebe597372fdef388b734b3","not_provided","desktop","0","0","0","","","","","","working_memory","","null","<div class=""fixation"">Correct</div>","null","","","","","","","","","","","","","","","","",""
"html-keyboard-response","125","278097","0.0-5.0-5.0-0.8","62ebe597372fdef388b734b3","not_provided","desktop","0","0","0","","","","","","working_memory","","null","<div class=""fixation"">+</div>","null","","","","","","","","","","","","","","","","",""
"html-keyboard-response","126","278299","0.0-5.0-5.0-1.8","62ebe597372fdef388b734b3","not_provided","desktop","0","0","0","","","","","","working_memory","","null","<img class='b' src=images/squares/red.png><img class='f' src=images/squares/orange.png><img class='h' src=images/squares/green.png><img class='j' src=images/squares/cyan.png><div class=""fixation"">+</div>","null","","","memory","exp","8","","","","","","","","","","","",""
"html-keyboard-response","127","279201","0.0-5.0-5.0-2.8","62ebe597372fdef388b734b3","not_provided","desktop","0","0","0","","","","","","working_memory","","null","<div class=""fixation"">+</div>","null","","","","","","","","","","","","","","","","",""
"html-keyboard-response","128","279694","0.0-5.0-5.0-3.8","62ebe597372fdef388b734b3","not_provided","desktop","0","0","0","","","","","","working_memory","","492","<img class='f' src=images/squares/brown.png><div class=""fixation"">+</div>","s","","","test_squares","exp","8","4","s","true","ks","d","","","","","","",""
"html-keyboard-response","129","280195","0.0-5.0-5.0-4.8","62ebe597372fdef388b734b3","not_provided","desktop","0","0","0","","","","","","working_memory","","null","<div class=""fixation"">Correct</div>","null","","","","","","","","","","","","","","","","",""
"html-keyboard-response","130","281197","0.0-5.0-5.0-0.9","62ebe597372fdef388b734b3","not_provided","desktop","0","0","0","","","","","","working_memory","","null","<div class=""fixation"">+</div>","null","","","","","","","","","","","","","","","","",""
"html-keyboard-response","131","281400","0.0-5.0-5.0-1.9","62ebe597372fdef388b734b3","not_provided","desktop","0","0","0","","","","","","working_memory","","null","<img class='b' src=images/squares/yellow.png><img class='f' src=images/squares/red.png><img class='i' src=images/squares/green.png><img class='l' src=images/squares/orange.png><div class=""fixation"">+</div>","null","","","memory","exp","9","","","","","","","","","","","",""
"html-keyboard-response","132","282302","0.0-5.0-5.0-2.9","62ebe597372fdef388b734b3","not_provided","desktop","0","0","0","","","","","","working_memory","","null","<div class=""fixation"">+</div>","null","","","","","","","","","","","","","","","","",""
"html-keyboard-response","133","282773","0.0-5.0-5.0-3.9","62ebe597372fdef388b734b3","not_provided","desktop","0","0","0","","","","","","working_memory","","470","<img class='i' src=images/squares/cyan.png><div class=""fixation"">+</div>","s","","","test_squares","exp","9","4","s","true","ks","d","","","","","","",""
"html-keyboard-response","134","283274","0.0-5.0-5.0-4.9","62ebe597372fdef388b734b3","not_provided","desktop","0","0","0","","","","","","working_memory","","null","<div class=""fixation"">Correct</div>","null","","","","","","","","","","","","","","","","",""
"html-keyboard-response","135","284277","0.0-5.0-5.0-0.10","62ebe597372fdef388b734b3","not_provided","desktop","0","0","0","","","","","","working_memory","","null","<div class=""fixation"">+</div>","null","","","","","","","","","","","","","","","","",""
"html-keyboard-response","136","284479","0.0-5.0-5.0-1.10","62ebe597372fdef388b734b3","not_provided","desktop","0","0","0","","","","","","working_memory","","null","<img class='a' src=images/squares/yellow.png><img class='e' src=images/squares/cyan.png><img class='h' src=images/squares/blue.png><img class='l' src=images/squares/magenta.png><div class=""fixation"">+</div>","null","","","memory","exp","10","","","","","","","","","","","",""
"html-keyboard-response","137","285380","0.0-5.0-5.0-2.10","62ebe597372fdef388b734b3","not_provided","desktop","0","0","0","","","","","","working_memory","","null","<div class=""fixation"">+</div>","null","","","","","","","","","","","","","","","","",""
"html-keyboard-response","138","286033","0.0-5.0-5.0-3.10","62ebe597372fdef388b734b3","not_provided","desktop","0","0","0","","","","","","working_memory","","652","<img class='a' src=images/squares/yellow.png><div class=""fixation"">+</div>","k","","","test_squares","exp","10","4","k","true","ks","s","","","","","","",""
"html-keyboard-response","139","286534","0.0-5.0-5.0-4.10","62ebe597372fdef388b734b3","not_provided","desktop","0","0","0","","","","","","working_memory","","null","<div class=""fixation"">Correct</div>","null","","","","","","","","","","","","","","","","",""
"html-keyboard-response","140","287536","0.0-5.0-5.0-0.11","62ebe597372fdef388b734b3","not_provided","desktop","0","0","0","","","","","","working_memory","","null","<div class=""fixation"">+</div>","null","","","","","","","","","","","","","","","","",""
"html-keyboard-response","141","287738","0.0-5.0-5.0-1.11","62ebe597372fdef388b734b3","not_provided","desktop","0","0","0","","","","","","working_memory","","null","<img class='b' src=images/squares/black.png><img class='d' src=images/squares/magenta.png><img class='h' src=images/squares/yellow.png><img class='j' src=images/squares/brown.png><div class=""fixation"">+</div>","null","","","memory","exp","11","","","","","","","","","","","",""
"html-keyboard-response","142","288640","0.0-5.0-5.0-2.11","62ebe597372fdef388b734b3","not_provided","desktop","0","0","0","","","","","","working_memory","","null","<div class=""fixation"">+</div>","null","","","","","","","","","","","","","","","","",""
"html-keyboard-response","143","289066","0.0-5.0-5.0-3.11","62ebe597372fdef388b734b3","not_provided","desktop","0","0","0","","","","","","working_memory","","425","<img class='h' src=images/squares/green.png><div class=""fixation"">+</div>","s","","","test_squares","exp","11","4","s","true","ks","d","","","","","","",""
"html-keyboard-response","144","289567","0.0-5.0-5.0-4.11","62ebe597372fdef388b734b3","not_provided","desktop","0","0","0","","","","","","working_memory","","null","<div class=""fixation"">Correct</div>","null","","","","","","","","","","","","","","","","",""
"html-keyboard-response","145","290569","0.0-5.0-5.0-0.12","62ebe597372fdef388b734b3","not_provided","desktop","0","0","0","","","","","","working_memory","","null","<div class=""fixation"">+</div>","null","","","","","","","","","","","","","","","","",""
"html-keyboard-response","146","290772","0.0-5.0-5.0-1.12","62ebe597372fdef388b734b3","not_provided","desktop","0","0","0","","","","","","working_memory","","null","<img class='a' src=images/squares/magenta.png><img class='c' src=images/squares/blue.png><img class='d' src=images/squares/cyan.png><img class='e' src=images/squares/red.png><img class='h' src=images/squares/brown.png><img class='i' src=images/squares/orange.png><img class='j' src=images/squares/yellow.png><img class='k' src=images/squares/black.png><div class=""fixation"">+</div>","null","","","memory","exp","12","","","","","","","","","","","",""
"html-keyboard-response","147","291674","0.0-5.0-5.0-2.12","62ebe597372fdef388b734b3","not_provided","desktop","0","0","0","","","","","","working_memory","","null","<div class=""fixation"">+</div>","null","","","","","","","","","","","","","","","","",""
"html-keyboard-response","148","292176","0.0-5.0-5.0-3.12","62ebe597372fdef388b734b3","not_provided","desktop","0","0","0","","","","","","working_memory","","501","<img class='a' src=images/squares/magenta.png><div class=""fixation"">+</div>","k","","","test_squares","exp","12","8","k","true","ks","s","","","","","","",""
"html-keyboard-response","149","292677","0.0-5.0-5.0-4.12","62ebe597372fdef388b734b3","not_provided","desktop","0","0","0","","","","","","working_memory","","null","<div class=""fixation"">Correct</div>","null","","","","","","","","","","","","","","","","",""
"html-keyboard-response","150","293680","0.0-5.0-5.0-0.13","62ebe597372fdef388b734b3","not_provided","desktop","0","0","0","","","","","","working_memory","","null","<div class=""fixation"">+</div>","null","","","","","","","","","","","","","","","","",""
"html-keyboard-response","151","293881","0.0-5.0-5.0-1.13","62ebe597372fdef388b734b3","not_provided","desktop","0","0","0","","","","","","working_memory","","null","<img class='b' src=images/squares/orange.png><img class='d' src=images/squares/yellow.png><img class='i' src=images/squares/cyan.png><img class='l' src=images/squares/green.png><div class=""fixation"">+</div>","null","","","memory","exp","13","","","","","","","","","","","",""
"html-keyboard-response","152","294782","0.0-5.0-5.0-2.13","62ebe597372fdef388b734b3","not_provided","desktop","0","0","0","","","","","","working_memory","","null","<div class=""fixation"">+</div>","null","","","","","","","","","","","","","","","","",""
"html-keyboard-response","153","295325","0.0-5.0-5.0-3.13","62ebe597372fdef388b734b3","not_provided","desktop","0","0","0","","","","","","working_memory","","541","<img class='d' src=images/squares/yellow.png><div class=""fixation"">+</div>","k","","","test_squares","exp","13","4","k","true","ks","s","","","","","","",""
"html-keyboard-response","154","295826","0.0-5.0-5.0-4.13","62ebe597372fdef388b734b3","not_provided","desktop","0","0","0","","","","","","working_memory","","null","<div class=""fixation"">Correct</div>","null","","","","","","","","","","","","","","","","",""
"html-keyboard-response","155","296828","0.0-5.0-5.0-0.14","62ebe597372fdef388b734b3","not_provided","desktop","0","0","0","","","","","","working_memory","","null","<div class=""fixation"">+</div>","null","","","","","","","","","","","","","","","","",""
"html-keyboard-response","156","297030","0.0-5.0-5.0-1.14","62ebe597372fdef388b734b3","not_provided","desktop","0","0","0","","","","","","working_memory","","null","<img class='c' src=images/squares/brown.png><img class='e' src=images/squares/yellow.png><img class='h' src=images/squares/magenta.png><img class='l' src=images/squares/black.png><div class=""fixation"">+</div>","null","","","memory","exp","14","","","","","","","","","","","",""
"html-keyboard-response","157","297932","0.0-5.0-5.0-2.14","62ebe597372fdef388b734b3","not_provided","desktop","0","0","0","","","","","","working_memory","","null","<div class=""fixation"">+</div>","null","","","","","","","","","","","","","","","","",""
"html-keyboard-response","158","298627","0.0-5.0-5.0-3.14","62ebe597372fdef388b734b3","not_provided","desktop","0","0","0","","","","","","working_memory","","694","<img class='c' src=images/squares/cyan.png><div class=""fixation"">+</div>","s","","","test_squares","exp","14","4","s","true","ks","d","","","","","","",""
"html-keyboard-response","159","299128","0.0-5.0-5.0-4.14","62ebe597372fdef388b734b3","not_provided","desktop","0","0","0","","","","","","working_memory","","null","<div class=""fixation"">Correct</div>","null","","","","","","","","","","","","","","","","",""
"html-keyboard-response","160","300131","0.0-5.0-5.0-0.15","62ebe597372fdef388b734b3","not_provided","desktop","0","0","0","","","","","","working_memory","","null","<div class=""fixation"">+</div>","null","","","","","","","","","","","","","","","","",""
"html-keyboard-response","161","300333","0.0-5.0-5.0-1.15","62ebe597372fdef388b734b3","not_provided","desktop","0","0","0","","","","","","working_memory","","null","<img class='b' src=images/squares/black.png><img class='c' src=images/squares/green.png><img class='d' src=images/squares/magenta.png><img class='f' src=images/squares/brown.png><img class='g' src=images/squares/red.png><img class='h' src=images/squares/blue.png><img class='j' src=images/squares/yellow.png><img class='k' src=images/squares/cyan.png><div class=""fixation"">+</div>","null","","","memory","exp","15","","","","","","","","","","","",""
"html-keyboard-response","162","301236","0.0-5.0-5.0-2.15","62ebe597372fdef388b734b3","not_provided","desktop","0","0","0","","","","","","working_memory","","null","<div class=""fixation"">+</div>","null","","","","","","","","","","","","","","","","",""
"html-keyboard-response","163","301674","0.0-5.0-5.0-3.15","62ebe597372fdef388b734b3","not_provided","desktop","0","0","0","","","","","","working_memory","","437","<img class='d' src=images/squares/magenta.png><div class=""fixation"">+</div>","k","","","test_squares","exp","15","8","k","true","ks","s","","","","","","",""
"html-keyboard-response","164","302176","0.0-5.0-5.0-4.15","62ebe597372fdef388b734b3","not_provided","desktop","0","0","0","","","","","","working_memory","","null","<div class=""fixation"">Correct</div>","null","","","","","","","","","","","","","","","","",""
"html-keyboard-response","165","303178","0.0-5.0-5.0-0.16","62ebe597372fdef388b734b3","not_provided","desktop","0","0","0","","","","","","working_memory","","null","<div class=""fixation"">+</div>","null","","","","","","","","","","","","","","","","",""
"html-keyboard-response","166","303380","0.0-5.0-5.0-1.16","62ebe597372fdef388b734b3","not_provided","desktop","0","0","0","","","","","","working_memory","","null","<img class='b' src=images/squares/cyan.png><img class='e' src=images/squares/green.png><img class='h' src=images/squares/blue.png><img class='l' src=images/squares/brown.png><div class=""fixation"">+</div>","null","","","memory","exp","16","","","","","","","","","","","",""
"html-keyboard-response","167","304281","0.0-5.0-5.0-2.16","62ebe597372fdef388b734b3","not_provided","desktop","0","0","0","","","","","","working_memory","","null","<div class=""fixation"">+</div>","null","","","","","","","","","","","","","","","","",""
"html-keyboard-response","168","304706","0.0-5.0-5.0-3.16","62ebe597372fdef388b734b3","not_provided","desktop","0","0","0","","","","","","working_memory","","425","<img class='b' src=images/squares/red.png><div class=""fixation"">+</div>","s","","","test_squares","exp","16","4","s","true","ks","d","","","","","","",""
"html-keyboard-response","169","305207","0.0-5.0-5.0-4.16","62ebe597372fdef388b734b3","not_provided","desktop","0","0","0","","","","","","working_memory","","null","<div class=""fixation"">Correct</div>","null","","","","","","","","","","","","","","","","",""
"html-keyboard-response","170","306209","0.0-5.0-5.0-0.17","62ebe597372fdef388b734b3","not_provided","desktop","0","0","0","","","","","","working_memory","","null","<div class=""fixation"">+</div>","null","","","","","","","","","","","","","","","","",""
"html-keyboard-response","171","306411","0.0-5.0-5.0-1.17","62ebe597372fdef388b734b3","not_provided","desktop","0","0","0","","","","","","working_memory","","null","<img class='c' src=images/squares/yellow.png><img class='a' src=images/squares/orange.png><img class='e' src=images/squares/brown.png><img class='f' src=images/squares/blue.png><img class='i' src=images/squares/black.png><img class='g' src=images/squares/green.png><img class='j' src=images/squares/magenta.png><img class='l' src=images/squares/red.png><div class=""fixation"">+</div>","null","","","memory","exp","17","","","","","","","","","","","",""
"html-keyboard-response","172","307313","0.0-5.0-5.0-2.17","62ebe597372fdef388b734b3","not_provided","desktop","0","0","0","","","","","","working_memory","","null","<div class=""fixation"">+</div>","null","","","","","","","","","","","","","","","","",""
"html-keyboard-response","173","307925","0.0-5.0-5.0-3.17","62ebe597372fdef388b734b3","not_provided","desktop","0","0","0","","","","","","working_memory","","611","<img class='a' src=images/squares/orange.png><div class=""fixation"">+</div>","k","","","test_squares","exp","17","8","k","true","ks","s","","","","","","",""
"html-keyboard-response","174","308426","0.0-5.0-5.0-4.17","62ebe597372fdef388b734b3","not_provided","desktop","0","0","0","","","","","","working_memory","","null","<div class=""fixation"">Correct</div>","null","","","","","","","","","","","","","","","","",""
"html-keyboard-response","175","309428","0.0-5.0-5.0-0.18","62ebe597372fdef388b734b3","not_provided","desktop","0","0","0","","","","","","working_memory","","null","<div class=""fixation"">+</div>","null","","","","","","","","","","","","","","","","",""
"html-keyboard-response","176","309631","0.0-5.0-5.0-1.18","62ebe597372fdef388b734b3","not_provided","desktop","0","0","0","","","","","","working_memory","","null","<img class='b' src=images/squares/black.png><img class='a' src=images/squares/blue.png><img class='e' src=images/squares/brown.png><img class='f' src=images/squares/red.png><img class='h' src=images/squares/orange.png><img class='g' src=images/squares/magenta.png><img class='l' src=images/squares/yellow.png><img class='k' src=images/squares/cyan.png><div class=""fixation"">+</div>","null","","","memory","exp","18","","","","","","","","","","","",""
"html-keyboard-response","177","310533","0.0-5.0-5.0-2.18","62ebe597372fdef388b734b3","not_provided","desktop","0","0","0","","","","","","working_memory","","null","<div class=""fixation"">+</div>","null","","","","","","","","","","","","","","","","",""
"html-keyboard-response","178","310978","0.0-5.0-5.0-3.18","62ebe597372fdef388b734b3","not_provided","desktop","0","0","0","","","","","","working_memory","","444","<img class='k' src=images/squares/cyan.png><div class=""fixation"">+</div>","s","","","test_squares","exp","18","8","k","false","ks","s","","","","","","",""
"html-keyboard-response","179","311479","0.0-5.0-5.0-4.18","62ebe597372fdef388b734b3","not_provided","desktop","0","0","0","","","","","","working_memory","","null","<div class=""fixation"">Incorrect</div>","null","","","","","","","","","","","","","","","","",""
"html-keyboard-response","180","312481","0.0-5.0-5.0-0.19","62ebe597372fdef388b734b3","not_provided","desktop","0","0","0","","","","","","working_memory","","null","<div class=""fixation"">+</div>","null","","","","","","","","","","","","","","","","",""
"html-keyboard-response","181","312683","0.0-5.0-5.0-1.19","62ebe597372fdef388b734b3","not_provided","desktop","0","0","0","","","","","","working_memory","","null","<img class='b' src=images/squares/magenta.png><img class='d' src=images/squares/orange.png><img class='g' src=images/squares/red.png><img class='k' src=images/squares/blue.png><div class=""fixation"">+</div>","null","","","memory","exp","19","","","","","","","","","","","",""
"html-keyboard-response","182","313584","0.0-5.0-5.0-2.19","62ebe597372fdef388b734b3","not_provided","desktop","0","0","0","","","","","","working_memory","","null","<div class=""fixation"">+</div>","null","","","","","","","","","","","","","","","","",""
"html-keyboard-response","183","314318","0.0-5.0-5.0-3.19","62ebe597372fdef388b734b3","not_provided","desktop","0","0","0","","","","","","working_memory","","732","<img class='b' src=images/squares/cyan.png><div class=""fixation"">+</div>","s","","","test_squares","exp","19","4","s","true","ks","d","","","","","","",""
"html-keyboard-response","184","314819","0.0-5.0-5.0-4.19","62ebe597372fdef388b734b3","not_provided","desktop","0","0","0","","","","","","working_memory","","null","<div class=""fixation"">Correct</div>","null","","","","","","","","","","","","","","","","",""
"html-keyboard-response","185","315821","0.0-5.0-5.0-0.20","62ebe597372fdef388b734b3","not_provided","desktop","0","0","0","","","","","","working_memory","","null","<div class=""fixation"">+</div>","null","","","","","","","","","","","","","","","","",""
"html-keyboard-response","186","316024","0.0-5.0-5.0-1.20","62ebe597372fdef388b734b3","not_provided","desktop","0","0","0","","","","","","working_memory","","null","<img class='c' src=images/squares/yellow.png><img class='b' src=images/squares/red.png><img class='e' src=images/squares/cyan.png><img class='d' src=images/squares/magenta.png><img class='h' src=images/squares/green.png><img class='i' src=images/squares/brown.png><img class='l' src=images/squares/blue.png><img class='k' src=images/squares/black.png><div class=""fixation"">+</div>","null","","","memory","exp","20","","","","","","","","","","","",""
"html-keyboard-response","187","316926","0.0-5.0-5.0-2.20","62ebe597372fdef388b734b3","not_provided","desktop","0","0","0","","","","","","working_memory","","null","<div class=""fixation"">+</div>","null","","","","","","","","","","","","","","","","",""
"html-keyboard-response","188","317342","0.0-5.0-5.0-3.20","62ebe597372fdef388b734b3","not_provided","desktop","0","0","0","","","","","","working_memory","","415","<img class='e' src=images/squares/cyan.png><div class=""fixation"">+</div>","k","","","test_squares","exp","20","8","k","true","ks","s","","","","","","",""
"html-keyboard-response","189","317844","0.0-5.0-5.0-4.20","62ebe597372fdef388b734b3","not_provided","desktop","0","0","0","","","","","","working_memory","","null","<div class=""fixation"">Correct</div>","null","","","","","","","","","","","","","","","","",""
"html-keyboard-response","190","318845","0.0-5.0-5.0-0.21","62ebe597372fdef388b734b3","not_provided","desktop","0","0","0","","","","","","working_memory","","null","<div class=""fixation"">+</div>","null","","","","","","","","","","","","","","","","",""
"html-keyboard-response","191","319048","0.0-5.0-5.0-1.21","62ebe597372fdef388b734b3","not_provided","desktop","0","0","0","","","","","","working_memory","","null","<img class='b' src=images/squares/brown.png><img class='c' src=images/squares/orange.png><img class='e' src=images/squares/red.png><img class='d' src=images/squares/cyan.png><img class='i' src=images/squares/magenta.png><img class='g' src=images/squares/green.png><img class='j' src=images/squares/yellow.png><img class='l' src=images/squares/black.png><div class=""fixation"">+</div>","null","","","memory","exp","21","","","","","","","","","","","",""
"html-keyboard-response","192","319950","0.0-5.0-5.0-2.21","62ebe597372fdef388b734b3","not_provided","desktop","0","0","0","","","","","","working_memory","","null","<div class=""fixation"">+</div>","null","","","","","","","","","","","","","","","","",""
"html-keyboard-response","193","320714","0.0-5.0-5.0-3.21","62ebe597372fdef388b734b3","not_provided","desktop","0","0","0","","","","","","working_memory","","762","<img class='g' src=images/squares/blue.png><div class=""fixation"">+</div>","k","","","test_squares","exp","21","8","s","false","ks","d","","","","","","",""
"html-keyboard-response","194","321215","0.0-5.0-5.0-4.21","62ebe597372fdef388b734b3","not_provided","desktop","0","0","0","","","","","","working_memory","","null","<div class=""fixation"">Incorrect</div>","null","","","","","","","","","","","","","","","","",""
"html-keyboard-response","195","322217","0.0-5.0-5.0-0.22","62ebe597372fdef388b734b3","not_provided","desktop","0","0","0","","","","","","working_memory","","null","<div class=""fixation"">+</div>","null","","","","","","","","","","","","","","","","",""
"html-keyboard-response","196","322420","0.0-5.0-5.0-1.22","62ebe597372fdef388b734b3","not_provided","desktop","0","0","0","","","","","","working_memory","","null","<img class='c' src=images/squares/green.png><img class='a' src=images/squares/brown.png><img class='e' src=images/squares/blue.png><img class='f' src=images/squares/cyan.png><img class='g' src=images/squares/black.png><img class='h' src=images/squares/yellow.png><img class='k' src=images/squares/red.png><img class='l' src=images/squares/magenta.png><div class=""fixation"">+</div>","null","","","memory","exp","22","","","","","","","","","","","",""
"html-keyboard-response","197","323323","0.0-5.0-5.0-2.22","62ebe597372fdef388b734b3","not_provided","desktop","0","0","0","","","","","","working_memory","","null","<div class=""fixation"">+</div>","null","","","","","","","","","","","","","","","","",""
"html-keyboard-response","198","323897","0.0-5.0-5.0-3.22","62ebe597372fdef388b734b3","not_provided","desktop","0","0","0","","","","","","working_memory","","573","<img class='h' src=images/squares/yellow.png><div class=""fixation"">+</div>","k","","","test_squares","exp","22","8","k","true","ks","s","","","","","","",""
"html-keyboard-response","199","324399","0.0-5.0-5.0-4.22","62ebe597372fdef388b734b3","not_provided","desktop","0","0","0","","","","","","working_memory","","null","<div class=""fixation"">Correct</div>","null","","","","","","","","","","","","","","","","",""
"html-keyboard-response","200","325401","0.0-5.0-5.0-0.23","62ebe597372fdef388b734b3","not_provided","desktop","0","0","0","","","","","","working_memory","","null","<div class=""fixation"">+</div>","null","","","","","","","","","","","","","","","","",""
"html-keyboard-response","201","325604","0.0-5.0-5.0-1.23","62ebe597372fdef388b734b3","not_provided","desktop","0","0","0","","","","","","working_memory","","null","<img class='c' src=images/squares/magenta.png><img class='a' src=images/squares/red.png><img class='d' src=images/squares/blue.png><img class='e' src=images/squares/yellow.png><img class='h' src=images/squares/black.png><img class='i' src=images/squares/orange.png><img class='j' src=images/squares/cyan.png><img class='k' src=images/squares/brown.png><div class=""fixation"">+</div>","null","","","memory","exp","23","","","","","","","","","","","",""
"html-keyboard-response","202","326507","0.0-5.0-5.0-2.23","62ebe597372fdef388b734b3","not_provided","desktop","0","0","0","","","","","","working_memory","","null","<div class=""fixation"">+</div>","null","","","","","","","","","","","","","","","","",""
"html-keyboard-response","203","327043","0.0-5.0-5.0-3.23","62ebe597372fdef388b734b3","not_provided","desktop","0","0","0","","","","","","working_memory","","536","<img class='e' src=images/squares/green.png><div class=""fixation"">+</div>","s","","","test_squares","exp","23","8","s","true","ks","d","","","","","","",""
"html-keyboard-response","204","327544","0.0-5.0-5.0-4.23","62ebe597372fdef388b734b3","not_provided","desktop","0","0","0","","","","","","working_memory","","null","<div class=""fixation"">Correct</div>","null","","","","","","","","","","","","","","","","",""
"html-keyboard-response","205","328546","0.0-5.0-5.0-0.24","62ebe597372fdef388b734b3","not_provided","desktop","0","0","0","","","","","","working_memory","","null","<div class=""fixation"">+</div>","null","","","","","","","","","","","","","","","","",""
"html-keyboard-response","206","328748","0.0-5.0-5.0-1.24","62ebe597372fdef388b734b3","not_provided","desktop","0","0","0","","","","","","working_memory","","null","<img class='a' src=images/squares/red.png><img class='e' src=images/squares/magenta.png><img class='i' src=images/squares/brown.png><img class='j' src=images/squares/cyan.png><div class=""fixation"">+</div>","null","","","memory","exp","24","","","","","","","","","","","",""
"html-keyboard-response","207","329651","0.0-5.0-5.0-2.24","62ebe597372fdef388b734b3","not_provided","desktop","0","0","0","","","","","","working_memory","","null","<div class=""fixation"">+</div>","null","","","","","","","","","","","","","","","","",""
"html-keyboard-response","208","330196","0.0-5.0-5.0-3.24","62ebe597372fdef388b734b3","not_provided","desktop","0","0","0","","","","","","working_memory","","544","<img class='a' src=images/squares/yellow.png><div class=""fixation"">+</div>","s","","","test_squares","exp","24","4","s","true","ks","d","","","","","","",""
"html-keyboard-response","209","330697","0.0-5.0-5.0-4.24","62ebe597372fdef388b734b3","not_provided","desktop","0","0","0","","","","","","working_memory","","null","<div class=""fixation"">Correct</div>","null","","","","","","","","","","","","","","","","",""
"html-keyboard-response","210","331699","0.0-5.0-5.0-0.25","62ebe597372fdef388b734b3","not_provided","desktop","0","0","0","","","","","","working_memory","","null","<div class=""fixation"">+</div>","null","","","","","","","","","","","","","","","","",""
"html-keyboard-response","211","331902","0.0-5.0-5.0-1.25","62ebe597372fdef388b734b3","not_provided","desktop","0","0","0","","","","","","working_memory","","null","<img class='b' src=images/squares/green.png><img class='e' src=images/squares/blue.png><img class='h' src=images/squares/brown.png><img class='l' src=images/squares/yellow.png><div class=""fixation"">+</div>","null","","","memory","exp","25","","","","","","","","","","","",""
"html-keyboard-response","212","332804","0.0-5.0-5.0-2.25","62ebe597372fdef388b734b3","not_provided","desktop","0","0","0","","","","","","working_memory","","null","<div class=""fixation"">+</div>","null","","","","","","","","","","","","","","","","",""
"html-keyboard-response","213","333303","0.0-5.0-5.0-3.25","62ebe597372fdef388b734b3","not_provided","desktop","0","0","0","","","","","","working_memory","","498","<img class='e' src=images/squares/magenta.png><div class=""fixation"">+</div>","s","","","test_squares","exp","25","4","s","true","ks","d","","","","","","",""
"html-keyboard-response","214","333805","0.0-5.0-5.0-4.25","62ebe597372fdef388b734b3","not_provided","desktop","0","0","0","","","","","","working_memory","","null","<div class=""fixation"">Correct</div>","null","","","","","","","","","","","","","","","","",""
"html-keyboard-response","215","334807","0.0-5.0-5.0-0.26","62ebe597372fdef388b734b3","not_provided","desktop","0","0","0","","","","","","working_memory","","null","<div class=""fixation"">+</div>","null","","","","","","","","","","","","","","","","",""
"html-keyboard-response","216","335009","0.0-5.0-5.0-1.26","62ebe597372fdef388b734b3","not_provided","desktop","0","0","0","","","","","","working_memory","","null","<img class='c' src=images/squares/cyan.png><img class='a' src=images/squares/brown.png><img class='f' src=images/squares/red.png><img class='e' src=images/squares/green.png><img class='g' src=images/squares/yellow.png><img class='h' src=images/squares/magenta.png><img class='l' src=images/squares/orange.png><img class='j' src=images/squares/blue.png><div class=""fixation"">+</div>","null","","","memory","exp","26","","","","","","","","","","","",""
"html-keyboard-response","217","335911","0.0-5.0-5.0-2.26","62ebe597372fdef388b734b3","not_provided","desktop","0","0","0","","","","","","working_memory","","null","<div class=""fixation"">+</div>","null","","","","","","","","","","","","","","","","",""
"html-keyboard-response","218","336455","0.0-5.0-5.0-3.26","62ebe597372fdef388b734b3","not_provided","desktop","0","0","0","","","","","","working_memory","","543","<img class='a' src=images/squares/black.png><div class=""fixation"">+</div>","s","","","test_squares","exp","26","8","s","true","ks","d","","","","","","",""
"html-keyboard-response","219","336956","0.0-5.0-5.0-4.26","62ebe597372fdef388b734b3","not_provided","desktop","0","0","0","","","","","","working_memory","","null","<div class=""fixation"">Correct</div>","null","","","","","","","","","","","","","","","","",""
"html-keyboard-response","220","337958","0.0-5.0-5.0-0.27","62ebe597372fdef388b734b3","not_provided","desktop","0","0","0","","","","","","working_memory","","null","<div class=""fixation"">+</div>","null","","","","","","","","","","","","","","","","",""
"html-keyboard-response","221","338160","0.0-5.0-5.0-1.27","62ebe597372fdef388b734b3","not_provided","desktop","0","0","0","","","","","","working_memory","","null","<img class='c' src=images/squares/black.png><img class='f' src=images/squares/orange.png><img class='i' src=images/squares/yellow.png><img class='j' src=images/squares/green.png><div class=""fixation"">+</div>","null","","","memory","exp","27","","","","","","","","","","","",""
"html-keyboard-response","222","339062","0.0-5.0-5.0-2.27","62ebe597372fdef388b734b3","not_provided","desktop","0","0","0","","","","","","working_memory","","null","<div class=""fixation"">+</div>","null","","","","","","","","","","","","","","","","",""
"html-keyboard-response","223","339605","0.0-5.0-5.0-3.27","62ebe597372fdef388b734b3","not_provided","desktop","0","0","0","","","","","","working_memory","","542","<img class='j' src=images/squares/green.png><div class=""fixation"">+</div>","k","","","test_squares","exp","27","4","k","true","ks","s","","","","","","",""
"html-keyboard-response","224","340106","0.0-5.0-5.0-4.27","62ebe597372fdef388b734b3","not_provided","desktop","0","0","0","","","","","","working_memory","","null","<div class=""fixation"">Correct</div>","null","","","","","","","","","","","","","","","","",""
"html-keyboard-response","225","341108","0.0-5.0-5.0-0.28","62ebe597372fdef388b734b3","not_provided","desktop","0","0","0","","","","","","working_memory","","null","<div class=""fixation"">+</div>","null","","","","","","","","","","","","","","","","",""
"html-keyboard-response","226","341310","0.0-5.0-5.0-1.28","62ebe597372fdef388b734b3","not_provided","desktop","0","0","0","","","","","","working_memory","","null","<img class='a' src=images/squares/magenta.png><img class='d' src=images/squares/blue.png><img class='i' src=images/squares/brown.png><img class='k' src=images/squares/cyan.png><div class=""fixation"">+</div>","null","","","memory","exp","28","","","","","","","","","","","",""
"html-keyboard-response","227","342212","0.0-5.0-5.0-2.28","62ebe597372fdef388b734b3","not_provided","desktop","0","0","0","","","","","","working_memory","","null","<div class=""fixation"">+</div>","null","","","","","","","","","","","","","","","","",""
"html-keyboard-response","228","342711","0.0-5.0-5.0-3.28","62ebe597372fdef388b734b3","not_provided","desktop","0","0","0","","","","","","working_memory","","498","<img class='i' src=images/squares/brown.png><div class=""fixation"">+</div>","s","","","test_squares","exp","28","4","k","false","ks","s","","","","","","",""
"html-keyboard-response","229","343211","0.0-5.0-5.0-4.28","62ebe597372fdef388b734b3","not_provided","desktop","0","0","0","","","","","","working_memory","","null","<div class=""fixation"">Incorrect</div>","null","","","","","","","","","","","","","","","","",""
"html-keyboard-response","230","344213","0.0-5.0-5.0-0.29","62ebe597372fdef388b734b3","not_provided","desktop","0","0","0","","","","","","working_memory","","null","<div class=""fixation"">+</div>","null","","","","","","","","","","","","","","","","",""
"html-keyboard-response","231","344416","0.0-5.0-5.0-1.29","62ebe597372fdef388b734b3","not_provided","desktop","0","0","0","","","","","","working_memory","","null","<img class='b' src=images/squares/red.png><img class='c' src=images/squares/orange.png><img class='e' src=images/squares/cyan.png><img class='f' src=images/squares/blue.png><img class='g' src=images/squares/green.png><img class='h' src=images/squares/black.png><img class='j' src=images/squares/brown.png><img class='l' src=images/squares/magenta.png><div class=""fixation"">+</div>","null","","","memory","exp","29","","","","","","","","","","","",""
"html-keyboard-response","232","345318","0.0-5.0-5.0-2.29","62ebe597372fdef388b734b3","not_provided","desktop","0","0","0","","","","","","working_memory","","null","<div class=""fixation"">+</div>","null","","","","","","","","","","","","","","","","",""
"html-keyboard-response","233","345842","0.0-5.0-5.0-3.29","62ebe597372fdef388b734b3","not_provided","desktop","0","0","0","","","","","","working_memory","","523","<img class='b' src=images/squares/red.png><div class=""fixation"">+</div>","k","","","test_squares","exp","29","8","k","true","ks","s","","","","","","",""
"html-keyboard-response","234","346343","0.0-5.0-5.0-4.29","62ebe597372fdef388b734b3","not_provided","desktop","0","0","0","","","","","","working_memory","","null","<div class=""fixation"">Correct</div>","null","","","","","","","","","","","","","","","","",""
"html-keyboard-response","235","347346","0.0-5.0-5.0-0.30","62ebe597372fdef388b734b3","not_provided","desktop","0","0","0","","","","","","working_memory","","null","<div class=""fixation"">+</div>","null","","","","","","","","","","","","","","","","",""
"html-keyboard-response","236","347549","0.0-5.0-5.0-1.30","62ebe597372fdef388b734b3","not_provided","desktop","0","0","0","","","","","","working_memory","","null","<img class='b' src=images/squares/black.png><img class='a' src=images/squares/brown.png><img class='f' src=images/squares/magenta.png><img class='e' src=images/squares/blue.png><img class='g' src=images/squares/cyan.png><img class='h' src=images/squares/orange.png><img class='j' src=images/squares/red.png><img class='k' src=images/squares/green.png><div class=""fixation"">+</div>","null","","","memory","exp","30","","","","","","","","","","","",""
"html-keyboard-response","237","348451","0.0-5.0-5.0-2.30","62ebe597372fdef388b734b3","not_provided","desktop","0","0","0","","","","","","working_memory","","null","<div class=""fixation"">+</div>","null","","","","","","","","","","","","","","","","",""
"html-keyboard-response","238","348962","0.0-5.0-5.0-3.30","62ebe597372fdef388b734b3","not_provided","desktop","0","0","0","","","","","","working_memory","","511","<img class='h' src=images/squares/orange.png><div class=""fixation"">+</div>","k","","","test_squares","exp","30","8","k","true","ks","s","","","","","","",""
"html-keyboard-response","239","349464","0.0-5.0-5.0-4.30","62ebe597372fdef388b734b3","not_provided","desktop","0","0","0","","","","","","working_memory","","null","<div class=""fixation"">Correct</div>","null","","","","","","","","","","","","","","","","",""
"html-keyboard-response","240","350466","0.0-5.0-5.0-0.31","62ebe597372fdef388b734b3","not_provided","desktop","0","0","0","","","","","","working_memory","","null","<div class=""fixation"">+</div>","null","","","","","","","","","","","","","","","","",""
"html-keyboard-response","241","350669","0.0-5.0-5.0-1.31","62ebe597372fdef388b734b3","not_provided","desktop","0","0","0","","","","","","working_memory","","null","<img class='b' src=images/squares/brown.png><img class='c' src=images/squares/yellow.png><img class='d' src=images/squares/black.png><img class='e' src=images/squares/cyan.png><img class='i' src=images/squares/red.png><img class='g' src=images/squares/magenta.png><img class='l' src=images/squares/blue.png><img class='k' src=images/squares/green.png><div class=""fixation"">+</div>","null","","","memory","exp","31","","","","","","","","","","","",""
"html-keyboard-response","242","351571","0.0-5.0-5.0-2.31","62ebe597372fdef388b734b3","not_provided","desktop","0","0","0","","","","","","working_memory","","null","<div class=""fixation"">+</div>","null","","","","","","","","","","","","","","","","",""
"html-keyboard-response","243","351960","0.0-5.0-5.0-3.31","62ebe597372fdef388b734b3","not_provided","desktop","0","0","0","","","","","","working_memory","","388","<img class='k' src=images/squares/green.png><div class=""fixation"">+</div>","s","","","test_squares","exp","31","8","k","false","ks","s","","","","","","",""
"html-keyboard-response","244","352462","0.0-5.0-5.0-4.31","62ebe597372fdef388b734b3","not_provided","desktop","0","0","0","","","","","","working_memory","","null","<div class=""fixation"">Incorrect</div>","null","","","","","","","","","","","","","","","","",""
"html-keyboard-response","245","353465","0.0-5.0-5.0-0.32","62ebe597372fdef388b734b3","not_provided","desktop","0","0","0","","","","","","working_memory","","null","<div class=""fixation"">+</div>","null","","","","","","","","","","","","","","","","",""
"html-keyboard-response","246","353667","0.0-5.0-5.0-1.32","62ebe597372fdef388b734b3","not_provided","desktop","0","0","0","","","","","","working_memory","","null","<img class='c' src=images/squares/black.png><img class='a' src=images/squares/red.png><img class='e' src=images/squares/yellow.png><img class='d' src=images/squares/cyan.png><img class='i' src=images/squares/orange.png><img class='h' src=images/squares/brown.png><img class='l' src=images/squares/green.png><img class='k' src=images/squares/magenta.png><div class=""fixation"">+</div>","null","","","memory","exp","32","","","","","","","","","","","",""
"html-keyboard-response","247","354569","0.0-5.0-5.0-2.32","62ebe597372fdef388b734b3","not_provided","desktop","0","0","0","","","","","","working_memory","","null","<div class=""fixation"">+</div>","null","","","","","","","","","","","","","","","","",""
"html-keyboard-response","248","355218","0.0-5.0-5.0-3.32","62ebe597372fdef388b734b3","not_provided","desktop","0","0","0","","","","","","working_memory","","648","<img class='k' src=images/squares/blue.png><div class=""fixation"">+</div>","k","","","test_squares","exp","32","8","s","false","ks","d","","","","","","",""
"html-keyboard-response","249","355719","0.0-5.0-5.0-4.32","62ebe597372fdef388b734b3","not_provided","desktop","0","0","0","","","","","","working_memory","","null","<div class=""fixation"">Incorrect</div>","null","","","","","","","","","","","","","","","","",""
"html-keyboard-response","250","356721","0.0-5.0-5.0-0.33","62ebe597372fdef388b734b3","not_provided","desktop","0","0","0","","","","","","working_memory","","null","<div class=""fixation"">+</div>","null","","","","","","","","","","","","","","","","",""
"html-keyboard-response","251","356924","0.0-5.0-5.0-1.33","62ebe597372fdef388b734b3","not_provided","desktop","0","0","0","","","","","","working_memory","","null","<img class='b' src=images/squares/blue.png><img class='e' src=images/squares/black.png><img class='h' src=images/squares/yellow.png><img class='j' src=images/squares/green.png><div class=""fixation"">+</div>","null","","","memory","exp","33","","","","","","","","","","","",""
"html-keyboard-response","252","357825","0.0-5.0-5.0-2.33","62ebe597372fdef388b734b3","not_provided","desktop","0","0","0","","","","","","working_memory","","null","<div class=""fixation"">+</div>","null","","","","","","","","","","","","","","","","",""
"html-keyboard-response","253","358315","0.0-5.0-5.0-3.33","62ebe597372fdef388b734b3","not_provided","desktop","0","0","0","","","","","","working_memory","","489","<img class='b' src=images/squares/cyan.png><div class=""fixation"">+</div>","s","","","test_squares","exp","33","4","s","true","ks","d","","","","","","",""
"html-keyboard-response","254","358817","0.0-5.0-5.0-4.33","62ebe597372fdef388b734b3","not_provided","desktop","0","0","0","","","","","","working_memory","","null","<div class=""fixation"">Correct</div>","null","","","","","","","","","","","","","","","","",""
"html-keyboard-response","255","359819","0.0-5.0-5.0-0.34","62ebe597372fdef388b734b3","not_provided","desktop","0","0","0","","","","","","working_memory","","null","<div class=""fixation"">+</div>","null","","","","","","","","","","","","","","","","",""
"html-keyboard-response","256","360021","0.0-5.0-5.0-1.34","62ebe597372fdef388b734b3","not_provided","desktop","0","0","0","","","","","","working_memory","","null","<img class='c' src=images/squares/black.png><img class='f' src=images/squares/cyan.png><img class='h' src=images/squares/green.png><img class='j' src=images/squares/orange.png><div class=""fixation"">+</div>","null","","","memory","exp","34","","","","","","","","","","","",""
"html-keyboard-response","257","360923","0.0-5.0-5.0-2.34","62ebe597372fdef388b734b3","not_provided","desktop","0","0","0","","","","","","working_memory","","null","<div class=""fixation"">+</div>","null","","","","","","","","","","","","","","","","",""
"html-keyboard-response","258","361446","0.0-5.0-5.0-3.34","62ebe597372fdef388b734b3","not_provided","desktop","0","0","0","","","","","","working_memory","","522","<img class='j' src=images/squares/brown.png><div class=""fixation"">+</div>","s","","","test_squares","exp","34","4","s","true","ks","d","","","","","","",""
"html-keyboard-response","259","361947","0.0-5.0-5.0-4.34","62ebe597372fdef388b734b3","not_provided","desktop","0","0","0","","","","","","working_memory","","null","<div class=""fixation"">Correct</div>","null","","","","","","","","","","","","","","","","",""
"html-keyboard-response","260","362949","0.0-5.0-5.0-0.35","62ebe597372fdef388b734b3","not_provided","desktop","0","0","0","","","","","","working_memory","","null","<div class=""fixation"">+</div>","null","","","","","","","","","","","","","","","","",""
"html-keyboard-response","261","363151","0.0-5.0-5.0-1.35","62ebe597372fdef388b734b3","not_provided","desktop","0","0","0","","","","","","working_memory","","null","<img class='c' src=images/squares/cyan.png><img class='a' src=images/squares/red.png><img class='d' src=images/squares/brown.png><img class='f' src=images/squares/blue.png><img class='i' src=images/squares/green.png><img class='h' src=images/squares/orange.png><img class='k' src=images/squares/black.png><img class='j' src=images/squares/magenta.png><div class=""fixation"">+</div>","null","","","memory","exp","35","","","","","","","","","","","",""
"html-keyboard-response","262","364053","0.0-5.0-5.0-2.35","62ebe597372fdef388b734b3","not_provided","desktop","0","0","0","","","","","","working_memory","","null","<div class=""fixation"">+</div>","null","","","","","","","","","","","","","","","","",""
"html-keyboard-response","263","364607","0.0-5.0-5.0-3.35","62ebe597372fdef388b734b3","not_provided","desktop","0","0","0","","","","","","working_memory","","552","<img class='d' src=images/squares/brown.png><div class=""fixation"">+</div>","k","","","test_squares","exp","35","8","k","true","ks","s","","","","","","",""
"html-keyboard-response","264","365108","0.0-5.0-5.0-4.35","62ebe597372fdef388b734b3","not_provided","desktop","0","0","0","","","","","","working_memory","","null","<div class=""fixation"">Correct</div>","null","","","","","","","","","","","","","","","","",""
"html-keyboard-response","265","366110","0.0-5.0-5.0-0.36","62ebe597372fdef388b734b3","not_provided","desktop","0","0","0","","","","","","working_memory","","null","<div class=""fixation"">+</div>","null","","","","","","","","","","","","","","","","",""
"html-keyboard-response","266","366312","0.0-5.0-5.0-1.36","62ebe597372fdef388b734b3","not_provided","desktop","0","0","0","","","","","","working_memory","","null","<img class='a' src=images/squares/cyan.png><img class='b' src=images/squares/yellow.png><img class='d' src=images/squares/brown.png><img class='e' src=images/squares/green.png><img class='h' src=images/squares/magenta.png><img class='g' src=images/squares/black.png><img class='k' src=images/squares/red.png><img class='l' src=images/squares/blue.png><div class=""fixation"">+</div>","null","","","memory","exp","36","","","","","","","","","","","",""
"html-keyboard-response","267","367215","0.0-5.0-5.0-2.36","62ebe597372fdef388b734b3","not_provided","desktop","0","0","0","","","","","","working_memory","","null","<div class=""fixation"">+</div>","null","","","","","","","","","","","","","","","","",""
"html-keyboard-response","268","368031","0.0-5.0-5.0-3.36","62ebe597372fdef388b734b3","not_provided","desktop","0","0","0","","","","","","working_memory","","815","<img class='b' src=images/squares/orange.png><div class=""fixation"">+</div>","s","","","test_squares","exp","36","8","s","true","ks","d","","","","","","",""
"html-keyboard-response","269","368532","0.0-5.0-5.0-4.36","62ebe597372fdef388b734b3","not_provided","desktop","0","0","0","","","","","","working_memory","","null","<div class=""fixation"">Correct</div>","null","","","","","","","","","","","","","","","","",""
"html-keyboard-response","270","369534","0.0-5.0-5.0-0.37","62ebe597372fdef388b734b3","not_provided","desktop","0","0","0","","","","","","working_memory","","null","<div class=""fixation"">+</div>","null","","","","","","","","","","","","","","","","",""
"html-keyboard-response","271","369737","0.0-5.0-5.0-1.37","62ebe597372fdef388b734b3","not_provided","desktop","0","0","0","","","","","","working_memory","","null","<img class='b' src=images/squares/blue.png><img class='a' src=images/squares/cyan.png><img class='e' src=images/squares/black.png><img class='d' src=images/squares/yellow.png><img class='i' src=images/squares/magenta.png><img class='h' src=images/squares/red.png><img class='j' src=images/squares/orange.png><img class='k' src=images/squares/green.png><div class=""fixation"">+</div>","null","","","memory","exp","37","","","","","","","","","","","",""
"html-keyboard-response","272","370639","0.0-5.0-5.0-2.37","62ebe597372fdef388b734b3","not_provided","desktop","0","0","0","","","","","","working_memory","","null","<div class=""fixation"">+</div>","null","","","","","","","","","","","","","","","","",""
"html-keyboard-response","273","371114","0.0-5.0-5.0-3.37","62ebe597372fdef388b734b3","not_provided","desktop","0","0","0","","","","","","working_memory","","474","<img class='a' src=images/squares/brown.png><div class=""fixation"">+</div>","s","","","test_squares","exp","37","8","s","true","ks","d","","","","","","",""
"html-keyboard-response","274","371615","0.0-5.0-5.0-4.37","62ebe597372fdef388b734b3","not_provided","desktop","0","0","0","","","","","","working_memory","","null","<div class=""fixation"">Correct</div>","null","","","","","","","","","","","","","","","","",""
"html-keyboard-response","275","372616","0.0-5.0-5.0-0.38","62ebe597372fdef388b734b3","not_provided","desktop","0","0","0","","","","","","working_memory","","null","<div class=""fixation"">+</div>","null","","","","","","","","","","","","","","","","",""
"html-keyboard-response","276","372818","0.0-5.0-5.0-1.38","62ebe597372fdef388b734b3","not_provided","desktop","0","0","0","","","","","","working_memory","","null","<img class='c' src=images/squares/orange.png><img class='e' src=images/squares/red.png><img class='h' src=images/squares/yellow.png><img class='j' src=images/squares/green.png><div class=""fixation"">+</div>","null","","","memory","exp","38","","","","","","","","","","","",""
"html-keyboard-response","277","373720","0.0-5.0-5.0-2.38","62ebe597372fdef388b734b3","not_provided","desktop","0","0","0","","","","","","working_memory","","null","<div class=""fixation"">+</div>","null","","","","","","","","","","","","","","","","",""
"html-keyboard-response","278","374281","0.0-5.0-5.0-3.38","62ebe597372fdef388b734b3","not_provided","desktop","0","0","0","","","","","","working_memory","","560","<img class='e' src=images/squares/red.png><div class=""fixation"">+</div>","k","","","test_squares","exp","38","4","k","true","ks","s","","","","","","",""
"html-keyboard-response","279","374783","0.0-5.0-5.0-4.38","62ebe597372fdef388b734b3","not_provided","desktop","0","0","0","","","","","","working_memory","","null","<div class=""fixation"">Correct</div>","null","","","","","","","","","","","","","","","","",""
"html-keyboard-response","280","375784","0.0-5.0-5.0-0.39","62ebe597372fdef388b734b3","not_provided","desktop","0","0","0","","","","","","working_memory","","null","<div class=""fixation"">+</div>","null","","","","","","","","","","","","","","","","",""
"html-keyboard-response","281","375987","0.0-5.0-5.0-1.39","62ebe597372fdef388b734b3","not_provided","desktop","0","0","0","","","","","","working_memory","","null","<img class='b' src=images/squares/brown.png><img class='c' src=images/squares/red.png><img class='d' src=images/squares/blue.png><img class='e' src=images/squares/yellow.png><img class='h' src=images/squares/cyan.png><img class='i' src=images/squares/orange.png><img class='j' src=images/squares/green.png><img class='k' src=images/squares/black.png><div class=""fixation"">+</div>","null","","","memory","exp","39","","","","","","","","","","","",""
"html-keyboard-response","282","376889","0.0-5.0-5.0-2.39","62ebe597372fdef388b734b3","not_provided","desktop","0","0","0","","","","","","working_memory","","null","<div class=""fixation"">+</div>","null","","","","","","","","","","","","","","","","",""
"html-keyboard-response","283","377695","0.0-5.0-5.0-3.39","62ebe597372fdef388b734b3","not_provided","desktop","0","0","0","","","","","","working_memory","","805","<img class='h' src=images/squares/magenta.png><div class=""fixation"">+</div>","s","","","test_squares","exp","39","8","s","true","ks","d","","","","","","",""
"html-keyboard-response","284","378197","0.0-5.0-5.0-4.39","62ebe597372fdef388b734b3","not_provided","desktop","0","0","0","","","","","","working_memory","","null","<div class=""fixation"">Correct</div>","null","","","","","","","","","","","","","","","","",""
"html-keyboard-response","285","379199","0.0-5.0-5.0-0.40","62ebe597372fdef388b734b3","not_provided","desktop","0","0","0","","","","","","working_memory","","null","<div class=""fixation"">+</div>","null","","","","","","","","","","","","","","","","",""
"html-keyboard-response","286","379402","0.0-5.0-5.0-1.40","62ebe597372fdef388b734b3","not_provided","desktop","0","0","0","","","","","","working_memory","","null","<img class='a' src=images/squares/magenta.png><img class='b' src=images/squares/black.png><img class='e' src=images/squares/yellow.png><img class='d' src=images/squares/cyan.png><img class='h' src=images/squares/blue.png><img class='g' src=images/squares/red.png><img class='j' src=images/squares/orange.png><img class='l' src=images/squares/brown.png><div class=""fixation"">+</div>","null","","","memory","exp","40","","","","","","","","","","","",""
"html-keyboard-response","287","380304","0.0-5.0-5.0-2.40","62ebe597372fdef388b734b3","not_provided","desktop","0","0","0","","","","","","working_memory","","null","<div class=""fixation"">+</div>","null","","","","","","","","","","","","","","","","",""
"html-keyboard-response","288","380693","0.0-5.0-5.0-3.40","62ebe597372fdef388b734b3","not_provided","desktop","0","0","0","","","","","","working_memory","","388","<img class='e' src=images/squares/yellow.png><div class=""fixation"">+</div>","k","","","test_squares","exp","40","8","k","true","ks","s","","","","","","",""
"html-keyboard-response","289","381194","0.0-5.0-5.0-4.40","62ebe597372fdef388b734b3","not_provided","desktop","0","0","0","","","","","","working_memory","","null","<div class=""fixation"">Correct</div>","null","","","","","","","","","","","","","","","","",""
"html-keyboard-response","290","382197","0.0-5.0-5.0-0.41","62ebe597372fdef388b734b3","not_provided","desktop","0","0","0","","","","","","working_memory","","null","<div class=""fixation"">+</div>","null","","","","","","","","","","","","","","","","",""
"html-keyboard-response","291","382400","0.0-5.0-5.0-1.41","62ebe597372fdef388b734b3","not_provided","desktop","0","0","0","","","","","","working_memory","","null","<img class='b' src=images/squares/green.png><img class='a' src=images/squares/orange.png><img class='e' src=images/squares/blue.png><img class='f' src=images/squares/yellow.png><img class='i' src=images/squares/magenta.png><img class='g' src=images/squares/red.png><img class='k' src=images/squares/black.png><img class='j' src=images/squares/brown.png><div class=""fixation"">+</div>","null","","","memory","exp","41","","","","","","","","","","","",""
"html-keyboard-response","292","383302","0.0-5.0-5.0-2.41","62ebe597372fdef388b734b3","not_provided","desktop","0","0","0","","","","","","working_memory","","null","<div class=""fixation"">+</div>","null","","","","","","","","","","","","","","","","",""
"html-keyboard-response","293","383936","0.0-5.0-5.0-3.41","62ebe597372fdef388b734b3","not_provided","desktop","0","0","0","","","","","","working_memory","","633","<img class='f' src=images/squares/cyan.png><div class=""fixation"">+</div>","s","","","test_squares","exp","41","8","s","true","ks","d","","","","","","",""
"html-keyboard-response","294","384438","0.0-5.0-5.0-4.41","62ebe597372fdef388b734b3","not_provided","desktop","0","0","0","","","","","","working_memory","","null","<div class=""fixation"">Correct</div>","null","","","","","","","","","","","","","","","","",""
"html-keyboard-response","295","385440","0.0-5.0-5.0-0.42","62ebe597372fdef388b734b3","not_provided","desktop","0","0","0","","","","","","working_memory","","null","<div class=""fixation"">+</div>","null","","","","","","","","","","","","","","","","",""
"html-keyboard-response","296","385643","0.0-5.0-5.0-1.42","62ebe597372fdef388b734b3","not_provided","desktop","0","0","0","","","","","","working_memory","","null","<img class='c' src=images/squares/brown.png><img class='a' src=images/squares/yellow.png><img class='e' src=images/squares/orange.png><img class='f' src=images/squares/red.png><img class='i' src=images/squares/green.png><img class='h' src=images/squares/blue.png><img class='l' src=images/squares/magenta.png><img class='j' src=images/squares/black.png><div class=""fixation"">+</div>","null","","","memory","exp","42","","","","","","","","","","","",""
"html-keyboard-response","297","386546","0.0-5.0-5.0-2.42","62ebe597372fdef388b734b3","not_provided","desktop","0","0","0","","","","","","working_memory","","null","<div class=""fixation"">+</div>","null","","","","","","","","","","","","","","","","",""
"html-keyboard-response","298","386961","0.0-5.0-5.0-3.42","62ebe597372fdef388b734b3","not_provided","desktop","0","0","0","","","","","","working_memory","","415","<img class='a' src=images/squares/yellow.png><div class=""fixation"">+</div>","k","","","test_squares","exp","42","8","k","true","ks","s","","","","","","",""
"html-keyboard-response","299","387463","0.0-5.0-5.0-4.42","62ebe597372fdef388b734b3","not_provided","desktop","0","0","0","","","","","","working_memory","","null","<div class=""fixation"">Correct</div>","null","","","","","","","","","","","","","","","","",""
"html-keyboard-response","300","388465","0.0-5.0-5.0-0.43","62ebe597372fdef388b734b3","not_provided","desktop","0","0","0","","","","","","working_memory","","null","<div class=""fixation"">+</div>","null","","","","","","","","","","","","","","","","",""
"html-keyboard-response","301","388667","0.0-5.0-5.0-1.43","62ebe597372fdef388b734b3","not_provided","desktop","0","0","0","","","","","","working_memory","","null","<img class='a' src=images/squares/brown.png><img class='c' src=images/squares/black.png><img class='d' src=images/squares/red.png><img class='e' src=images/squares/orange.png><img class='i' src=images/squares/magenta.png><img class='g' src=images/squares/yellow.png><img class='j' src=images/squares/blue.png><img class='k' src=images/squares/green.png><div class=""fixation"">+</div>","null","","","memory","exp","43","","","","","","","","","","","",""
"html-keyboard-response","302","389570","0.0-5.0-5.0-2.43","62ebe597372fdef388b734b3","not_provided","desktop","0","0","0","","","","","","working_memory","","null","<div class=""fixation"">+</div>","null","","","","","","","","","","","","","","","","",""
"html-keyboard-response","303","390265","0.0-5.0-5.0-3.43","62ebe597372fdef388b734b3","not_provided","desktop","0","0","0","","","","","","working_memory","","695","<img class='i' src=images/squares/cyan.png><div class=""fixation"">+</div>","s","","","test_squares","exp","43","8","s","true","ks","d","","","","","","",""
