"trial_type","trial_index","time_elapsed","internal_node_id","subject_id","study_id","device_type","blur_count","fullscreen_exit_count","failed_attention_checks","success","timeout","failed_images","failed_audio","failed_video","phase","value","rt","stimulus","response","view_history","question_order","trial_name","block_type","trial_num","set_size","correct_response","accuracy","mapping","condition","prompt","flipped","attention","expected_answer","category","question_index","task"
"pavlovia","0","2506","0.0-0.0","60f19a691466276fe085b461","not_provided","desktop","0","0","1","","","","","","","","","","","","","","","","","","","","","","","","","","",""
"preload","1","3912","0.0-2.0","60f19a691466276fe085b461","not_provided","desktop","0","0","1","true","false","[]","[]","[]","","","","","","","","","","","","","","","","","","","","","",""
"html-keyboard-response","2","25108","0.0-3.0-0.0","60f19a691466276fe085b461","not_provided","desktop","0","0","1","","","","","","captcha","","","","","","","","","","","","","","","","","","","","",""
"fullscreen","3","29408","0.0-4.0","60f19a691466276fe085b461","not_provided","desktop","0","0","1","true","","","","","setup","","","","","","","","","","","","","","","","","","","","",""
"call-function","4","29409","0.0-5.0-0.0","60f19a691466276fe085b461","not_provided","desktop","0","0","1","","","","","","working_memory","","","","","","","","","","","","","","","","","","","","",""
"html-keyboard-response","5","64813","0.0-5.0-1.0","60f19a691466276fe085b461","not_provided","desktop","0","0","1","","","","","","working_memory","","35403","<div style=""text-align:center;font-family:sans-serif;""><p>Welcome to the luck game experiment!</p><p>This two-day experiment takes part in a study aimed at developing better clinical treatments.</p><p>We appreciate your participation and require your full concentration.</p><br><p>This is a two-day study. Payment (£6/hour) is only given upon completing both parts today and tomorrow.</p><p>You must finish the second part for compensation. After today, you'll receive an invitation for tomorrow's session.</p><p>Please ensure you can attend both sessions before proceeding. Otherwise, you may exit now.</p><p>If you have any questions, please contact us via prolific.</p><br><p>Please stay attentive and in fullscreen mode to ensure payment.</p><p>Thank you for participating!</p><br><p id=""continue-prompt"" style=""visibility:hidden;""><b>Press any key to continue.</b></p></div>"," ","","","","","","","","","","","","","","","","",""
"instructions","6","252753","0.0-5.0-2.0-0.0","60f19a691466276fe085b461","not_provided","desktop","1","1","1","","","","","","working_memory","","187938","","","[{""page_index"":0,""viewing_time"":6296},{""page_index"":1,""viewing_time"":4283},{""page_index"":2,""viewing_time"":46536},{""page_index"":3,""viewing_time"":3387},{""page_index"":4,""viewing_time"":11548},{""page_index"":5,""viewing_time"":72260},{""page_index"":6,""viewing_time"":23780},{""page_index"":7,""viewing_time"":10217},{""page_index"":8,""viewing_time"":9631}]","","","","","","","","","","","","","","","",""
"survey-multi-choice","7","302479","0.0-5.0-2.0-1.0","60f19a691466276fe085b461","not_provided","desktop","1","1","1","","","","","","working_memory","","49721","","{""set_size"":""4 or 8"",""steps"":""True"",""choose_square"":""Press the 'k' or 's' key."",""remember"":""The colors and locations of the 'memory' squares"",""task"":""To tell if the 'test' square is in the same color as the square previously appearing in this location""}","","[0,1,2,3,4]","test_squares_quiz","","","","","","","","","","","","","",""
"html-keyboard-response","8","319491","0.0-5.0-3.0-0.0","60f19a691466276fe085b461","not_provided","desktop","1","1","1","","","","","","working_memory","","17008","<p>We will now start some practice trials.<br><b>The practice trials will also include some trials in which you will need to remember only one square to make sure you understood the instructions.</b><br>You may already want to be ready with your fingers on '<b>s</b>' and '<b>k</b>'.<br><img class=""wm-example-img"" src=""images/examples/keyboard.png""><br><b style=""font-size:1.2em;"">&lsquo;K&rsquo; = SAME &nbsp;&nbsp;&nbsp; &lsquo;S&rsquo; = DIFFERENT</b><br><br><u>Please try to be as accurate as possible.</u><br><br><b>Press any key to begin</b></p>"," ","","","","","","","","","","","","","","","","",""
"html-keyboard-response","9","321500","0.0-5.0-3.0-1.0-0.0","60f19a691466276fe085b461","not_provided","desktop","1","1","1","","","","","","working_memory","","null","<div class=""fixation"">+</div>","null","","","","","","","","","","","","","","","","",""
"html-keyboard-response","10","321716","0.0-5.0-3.0-1.0-1.0","60f19a691466276fe085b461","not_provided","desktop","1","1","1","","","","","","working_memory","","null","<img class='lower1' src=images/squares/cyan.png><div class=""fixation"">+</div>","null","","","memory","practice","0","1","","","","","","","","","","",""
"html-keyboard-response","11","322625","0.0-5.0-3.0-1.0-2.0","60f19a691466276fe085b461","not_provided","desktop","1","1","1","","","","","","working_memory","","null","<div class=""fixation"">+</div>","null","","","","","","","","","","","","","","","","",""
"html-keyboard-response","12","327353","0.0-5.0-3.0-1.0-3.0","60f19a691466276fe085b461","not_provided","desktop","1","1","1","","","","","","working_memory","","4726","<img class='lower1' src=images/squares/orange.png><div class=""fixation"">+</div>","s","","","test","practice","0","1","s","true","","","","","","","","",""
"html-keyboard-response","13","327860","0.0-5.0-3.0-1.0-4.0","60f19a691466276fe085b461","not_provided","desktop","1","1","1","","","","","","working_memory","","null","<div class=""fixation"">Correct</div>","null","","","","","","","","","","","","","","","","",""
"html-keyboard-response","14","328868","0.0-5.0-3.0-1.0-0.1","60f19a691466276fe085b461","not_provided","desktop","1","1","1","","","","","","working_memory","","null","<div class=""fixation"">+</div>","null","","","","","","","","","","","","","","","","",""
"html-keyboard-response","15","329080","0.0-5.0-3.0-1.0-1.1","60f19a691466276fe085b461","not_provided","desktop","1","1","1","","","","","","working_memory","","null","<img class='c' src=images/squares/yellow.png><img class='b' src=images/squares/red.png><img class='e' src=images/squares/magenta.png><img class='f' src=images/squares/black.png><img class='h' src=images/squares/blue.png><img class='g' src=images/squares/cyan.png><img class='k' src=images/squares/orange.png><img class='l' src=images/squares/green.png><div class=""fixation"">+</div>","null","","","memory","practice","1","8","","","","","","","","","","",""
"html-keyboard-response","16","329993","0.0-5.0-3.0-1.0-2.1","60f19a691466276fe085b461","not_provided","desktop","1","1","1","","","","","","working_memory","","null","<div class=""fixation"">+</div>","null","","","","","","","","","","","","","","","","",""
"html-keyboard-response","17","331007","0.0-5.0-3.0-1.0-3.1","60f19a691466276fe085b461","not_provided","desktop","1","1","1","","","","","","working_memory","","1012","<img class='h' src=images/squares/blue.png><div class=""fixation"">+</div>","s","","","test","practice","1","8","k","false","","","","","","","","",""
"html-keyboard-response","18","331511","0.0-5.0-3.0-1.0-4.1","60f19a691466276fe085b461","not_provided","desktop","1","1","1","","","","","","working_memory","","null","<div class=""fixation"">Incorrect</div>","null","","","","","","","","","","","","","","","","",""
"html-keyboard-response","19","332517","0.0-5.0-3.0-1.0-0.2","60f19a691466276fe085b461","not_provided","desktop","1","1","1","","","","","","working_memory","","null","<div class=""fixation"">+</div>","null","","","","","","","","","","","","","","","","",""
"html-keyboard-response","20","332729","0.0-5.0-3.0-1.0-1.2","60f19a691466276fe085b461","not_provided","desktop","1","1","1","","","","","","working_memory","","null","<img class='c' src=images/squares/green.png><img class='a' src=images/squares/magenta.png><img class='e' src=images/squares/brown.png><img class='f' src=images/squares/cyan.png><img class='h' src=images/squares/black.png><img class='i' src=images/squares/blue.png><img class='j' src=images/squares/yellow.png><img class='k' src=images/squares/orange.png><div class=""fixation"">+</div>","null","","","memory","practice","2","8","","","","","","","","","","",""
"html-keyboard-response","21","333640","0.0-5.0-3.0-1.0-2.2","60f19a691466276fe085b461","not_provided","desktop","1","1","1","","","","","","working_memory","","null","<div class=""fixation"">+</div>","null","","","","","","","","","","","","","","","","",""
"html-keyboard-response","22","334892","0.0-5.0-3.0-1.0-3.2","60f19a691466276fe085b461","not_provided","desktop","1","1","1","","","","","","working_memory","","1251","<img class='c' src=images/squares/red.png><div class=""fixation"">+</div>","k","","","test","practice","2","8","s","false","","","","","","","","",""
"html-keyboard-response","23","335407","0.0-5.0-3.0-1.0-4.2","60f19a691466276fe085b461","not_provided","desktop","1","1","1","","","","","","working_memory","","null","<div class=""fixation"">Incorrect</div>","null","","","","","","","","","","","","","","","","",""
"html-keyboard-response","24","336412","0.0-5.0-3.0-1.0-0.3","60f19a691466276fe085b461","not_provided","desktop","1","1","1","","","","","","working_memory","","null","<div class=""fixation"">+</div>","null","","","","","","","","","","","","","","","","",""
"html-keyboard-response","25","336628","0.0-5.0-3.0-1.0-1.3","60f19a691466276fe085b461","not_provided","desktop","1","1","1","","","","","","working_memory","","null","<img class='b' src=images/squares/red.png><img class='e' src=images/squares/brown.png><img class='h' src=images/squares/blue.png><img class='j' src=images/squares/black.png><div class=""fixation"">+</div>","null","","","memory","practice","3","4","","","","","","","","","","",""
"html-keyboard-response","26","337544","0.0-5.0-3.0-1.0-2.3","60f19a691466276fe085b461","not_provided","desktop","1","1","1","","","","","","working_memory","","null","<div class=""fixation"">+</div>","null","","","","","","","","","","","","","","","","",""
"html-keyboard-response","27","338446","0.0-5.0-3.0-1.0-3.3","60f19a691466276fe085b461","not_provided","desktop","1","1","1","","","","","","working_memory","","901","<img class='h' src=images/squares/orange.png><div class=""fixation"">+</div>","s","","","test","practice","3","4","s","true","","","","","","","","",""
"html-keyboard-response","28","338962","0.0-5.0-3.0-1.0-4.3","60f19a691466276fe085b461","not_provided","desktop","1","1","1","","","","","","working_memory","","null","<div class=""fixation"">Correct</div>","null","","","","","","","","","","","","","","","","",""
"html-keyboard-response","29","339978","0.0-5.0-3.0-1.0-0.4","60f19a691466276fe085b461","not_provided","desktop","1","1","1","","","","","","working_memory","","null","<div class=""fixation"">+</div>","null","","","","","","","","","","","","","","","","",""
"html-keyboard-response","30","340182","0.0-5.0-3.0-1.0-1.4","60f19a691466276fe085b461","not_provided","desktop","1","1","1","","","","","","working_memory","","null","<img class='upper3' src=images/squares/magenta.png><div class=""fixation"">+</div>","null","","","memory","practice","4","1","","","","","","","","","","",""
"html-keyboard-response","31","341086","0.0-5.0-3.0-1.0-2.4","60f19a691466276fe085b461","not_provided","desktop","1","1","1","","","","","","working_memory","","null","<div class=""fixation"">+</div>","null","","","","","","","","","","","","","","","","",""
"html-keyboard-response","32","342262","0.0-5.0-3.0-1.0-3.4","60f19a691466276fe085b461","not_provided","desktop","1","1","1","","","","","","working_memory","","1176","<img class='upper3' src=images/squares/black.png><div class=""fixation"">+</div>","s","","","test","practice","4","1","s","true","","","","","","","","",""
"html-keyboard-response","33","342764","0.0-5.0-3.0-1.0-4.4","60f19a691466276fe085b461","not_provided","desktop","1","1","1","","","","","","working_memory","","null","<div class=""fixation"">Correct</div>","null","","","","","","","","","","","","","","","","",""
"html-keyboard-response","34","343773","0.0-5.0-3.0-1.0-0.5","60f19a691466276fe085b461","not_provided","desktop","1","1","1","","","","","","working_memory","","null","<div class=""fixation"">+</div>","null","","","","","","","","","","","","","","","","",""
"html-keyboard-response","35","343980","0.0-5.0-3.0-1.0-1.5","60f19a691466276fe085b461","not_provided","desktop","1","1","1","","","","","","working_memory","","null","<img class='c' src=images/squares/magenta.png><img class='d' src=images/squares/cyan.png><img class='i' src=images/squares/black.png><img class='j' src=images/squares/orange.png><div class=""fixation"">+</div>","null","","","memory","practice","5","4","","","","","","","","","","",""
"html-keyboard-response","36","344881","0.0-5.0-3.0-1.0-2.5","60f19a691466276fe085b461","not_provided","desktop","1","1","1","","","","","","working_memory","","null","<div class=""fixation"">+</div>","null","","","","","","","","","","","","","","","","",""
"html-keyboard-response","37","345783","0.0-5.0-3.0-1.0-3.5","60f19a691466276fe085b461","not_provided","desktop","1","1","1","","","","","","working_memory","","902","<img class='d' src=images/squares/cyan.png><div class=""fixation"">+</div>","k","","","test","practice","5","4","k","true","","","","","","","","",""
"html-keyboard-response","38","346286","0.0-5.0-3.0-1.0-4.5","60f19a691466276fe085b461","not_provided","desktop","1","1","1","","","","","","working_memory","","null","<div class=""fixation"">Correct</div>","null","","","","","","","","","","","","","","","","",""
"html-keyboard-response","39","347298","0.0-5.0-3.0-1.0-0.6","60f19a691466276fe085b461","not_provided","desktop","1","1","1","","","","","","working_memory","","null","<div class=""fixation"">+</div>","null","","","","","","","","","","","","","","","","",""
"html-keyboard-response","40","347521","0.0-5.0-3.0-1.0-1.6","60f19a691466276fe085b461","not_provided","desktop","1","1","1","","","","","","working_memory","","null","<img class='b' src=images/squares/brown.png><img class='c' src=images/squares/red.png><img class='d' src=images/squares/orange.png><img class='e' src=images/squares/yellow.png><img class='h' src=images/squares/cyan.png><img class='g' src=images/squares/green.png><img class='k' src=images/squares/black.png><img class='j' src=images/squares/magenta.png><div class=""fixation"">+</div>","null","","","memory","practice","6","8","","","","","","","","","","",""
"html-keyboard-response","41","348428","0.0-5.0-3.0-1.0-2.6","60f19a691466276fe085b461","not_provided","desktop","1","1","1","","","","","","working_memory","","null","<div class=""fixation"">+</div>","null","","","","","","","","","","","","","","","","",""
"html-keyboard-response","42","349362","0.0-5.0-3.0-1.0-3.6","60f19a691466276fe085b461","not_provided","desktop","1","1","1","","","","","","working_memory","","930","<img class='h' src=images/squares/blue.png><div class=""fixation"">+</div>","s","","","test","practice","6","8","s","true","","","","","","","","",""
"html-keyboard-response","43","349879","0.0-5.0-3.0-1.0-4.6","60f19a691466276fe085b461","not_provided","desktop","1","1","1","","","","","","working_memory","","null","<div class=""fixation"">Correct</div>","null","","","","","","","","","","","","","","","","",""
"html-keyboard-response","44","350895","0.0-5.0-3.0-1.0-0.7","60f19a691466276fe085b461","not_provided","desktop","1","1","1","","","","","","working_memory","","null","<div class=""fixation"">+</div>","null","","","","","","","","","","","","","","","","",""
"html-keyboard-response","45","351098","0.0-5.0-3.0-1.0-1.7","60f19a691466276fe085b461","not_provided","desktop","1","1","1","","","","","","working_memory","","null","<img class='b' src=images/squares/magenta.png><img class='f' src=images/squares/red.png><img class='g' src=images/squares/blue.png><img class='l' src=images/squares/orange.png><div class=""fixation"">+</div>","null","","","memory","practice","7","4","","","","","","","","","","",""
"html-keyboard-response","46","352005","0.0-5.0-3.0-1.0-2.7","60f19a691466276fe085b461","not_provided","desktop","1","1","1","","","","","","working_memory","","null","<div class=""fixation"">+</div>","null","","","","","","","","","","","","","","","","",""
"html-keyboard-response","47","352826","0.0-5.0-3.0-1.0-3.7","60f19a691466276fe085b461","not_provided","desktop","1","1","1","","","","","","working_memory","","820","<img class='b' src=images/squares/black.png><div class=""fixation"">+</div>","k","","","test","practice","7","4","s","false","","","","","","","","",""
"html-keyboard-response","48","353331","0.0-5.0-3.0-1.0-4.7","60f19a691466276fe085b461","not_provided","desktop","1","1","1","","","","","","working_memory","","null","<div class=""fixation"">Incorrect</div>","null","","","","","","","","","","","","","","","","",""
"html-keyboard-response","49","354347","0.0-5.0-3.0-1.0-0.8","60f19a691466276fe085b461","not_provided","desktop","1","1","1","","","","","","working_memory","","null","<div class=""fixation"">+</div>","null","","","","","","","","","","","","","","","","",""
"html-keyboard-response","50","354557","0.0-5.0-3.0-1.0-1.8","60f19a691466276fe085b461","not_provided","desktop","1","1","1","","","","","","working_memory","","null","<img class='c' src=images/squares/black.png><img class='e' src=images/squares/magenta.png><img class='h' src=images/squares/red.png><img class='l' src=images/squares/green.png><div class=""fixation"">+</div>","null","","","memory","practice","8","4","","","","","","","","","","",""
"html-keyboard-response","51","355461","0.0-5.0-3.0-1.0-2.8","60f19a691466276fe085b461","not_provided","desktop","1","1","1","","","","","","working_memory","","null","<div class=""fixation"">+</div>","null","","","","","","","","","","","","","","","","",""
"html-keyboard-response","52","356856","0.0-5.0-3.0-1.0-3.8","60f19a691466276fe085b461","not_provided","desktop","1","1","1","","","","","","working_memory","","1394","<img class='l' src=images/squares/yellow.png><div class=""fixation"">+</div>","s","","","test","practice","8","4","s","true","","","","","","","","",""
"html-keyboard-response","53","357379","0.0-5.0-3.0-1.0-4.8","60f19a691466276fe085b461","not_provided","desktop","1","1","1","","","","","","working_memory","","null","<div class=""fixation"">Correct</div>","null","","","","","","","","","","","","","","","","",""
"html-keyboard-response","54","358404","0.0-5.0-3.0-1.0-0.9","60f19a691466276fe085b461","not_provided","desktop","1","1","1","","","","","","working_memory","","null","<div class=""fixation"">+</div>","null","","","","","","","","","","","","","","","","",""
"html-keyboard-response","55","358638","0.0-5.0-3.0-1.0-1.9","60f19a691466276fe085b461","not_provided","desktop","1","1","1","","","","","","working_memory","","null","<img class='lower3' src=images/squares/orange.png><div class=""fixation"">+</div>","null","","","memory","practice","9","1","","","","","","","","","","",""
"html-keyboard-response","56","359554","0.0-5.0-3.0-1.0-2.9","60f19a691466276fe085b461","not_provided","desktop","1","1","1","","","","","","working_memory","","null","<div class=""fixation"">+</div>","null","","","","","","","","","","","","","","","","",""
"html-keyboard-response","57","360725","0.0-5.0-3.0-1.0-3.9","60f19a691466276fe085b461","not_provided","desktop","1","1","1","","","","","","working_memory","","1170","<img class='lower3' src=images/squares/orange.png><div class=""fixation"">+</div>","k","","","test","practice","9","1","k","true","","","","","","","","",""
"html-keyboard-response","58","361254","0.0-5.0-3.0-1.0-4.9","60f19a691466276fe085b461","not_provided","desktop","1","1","1","","","","","","working_memory","","null","<div class=""fixation"">Correct</div>","null","","","","","","","","","","","","","","","","",""
"html-keyboard-response","59","362266","0.0-5.0-3.0-1.0-0.10","60f19a691466276fe085b461","not_provided","desktop","1","1","1","","","","","","working_memory","","null","<div class=""fixation"">+</div>","null","","","","","","","","","","","","","","","","",""
"html-keyboard-response","60","362479","0.0-5.0-3.0-1.0-1.10","60f19a691466276fe085b461","not_provided","desktop","1","1","1","","","","","","working_memory","","null","<img class='a' src=images/squares/green.png><img class='b' src=images/squares/magenta.png><img class='f' src=images/squares/brown.png><img class='d' src=images/squares/blue.png><img class='i' src=images/squares/yellow.png><img class='g' src=images/squares/red.png><img class='l' src=images/squares/orange.png><img class='j' src=images/squares/black.png><div class=""fixation"">+</div>","null","","","memory","practice","10","8","","","","","","","","","","",""
"html-keyboard-response","61","363421","0.0-5.0-3.0-1.0-2.10","60f19a691466276fe085b461","not_provided","desktop","1","1","1","","","","","","working_memory","","null","<div class=""fixation"">+</div>","null","","","","","","","","","","","","","","","","",""
"html-keyboard-response","62","367086","0.0-5.0-3.0-1.0-3.10","60f19a691466276fe085b461","not_provided","desktop","1","1","1","","","","","","working_memory","","3664","<img class='d' src=images/squares/cyan.png><div class=""fixation"">+</div>","k","","","test","practice","10","8","s","false","","","","","","","","",""
"html-keyboard-response","63","367588","0.0-5.0-3.0-1.0-4.10","60f19a691466276fe085b461","not_provided","desktop","1","1","1","","","","","","working_memory","","null","<div class=""fixation"">Incorrect</div>","null","","","","","","","","","","","","","","","","",""
"html-keyboard-response","64","368597","0.0-5.0-3.0-1.0-0.11","60f19a691466276fe085b461","not_provided","desktop","1","1","1","","","","","","working_memory","","null","<div class=""fixation"">+</div>","null","","","","","","","","","","","","","","","","",""
"html-keyboard-response","65","368814","0.0-5.0-3.0-1.0-1.11","60f19a691466276fe085b461","not_provided","desktop","1","1","1","","","","","","working_memory","","null","<img class='lower3' src=images/squares/yellow.png><div class=""fixation"">+</div>","null","","","memory","practice","11","1","","","","","","","","","","",""
"html-keyboard-response","66","369722","0.0-5.0-3.0-1.0-2.11","60f19a691466276fe085b461","not_provided","desktop","1","1","1","","","","","","working_memory","","null","<div class=""fixation"">+</div>","null","","","","","","","","","","","","","","","","",""
"html-keyboard-response","67","370647","0.0-5.0-3.0-1.0-3.11","60f19a691466276fe085b461","not_provided","desktop","1","1","1","","","","","","working_memory","","924","<img class='lower3' src=images/squares/yellow.png><div class=""fixation"">+</div>","s","","","test","practice","11","1","k","false","","","","","","","","",""
"html-keyboard-response","68","371155","0.0-5.0-3.0-1.0-4.11","60f19a691466276fe085b461","not_provided","desktop","1","1","1","","","","","","working_memory","","null","<div class=""fixation"">Incorrect</div>","null","","","","","","","","","","","","","","","","",""
"html-keyboard-response","69","372166","0.0-5.0-3.0-1.0-0.12","60f19a691466276fe085b461","not_provided","desktop","1","1","1","","","","","","working_memory","","null","<div class=""fixation"">+</div>","null","","","","","","","","","","","","","","","","",""
"html-keyboard-response","70","372373","0.0-5.0-3.0-1.0-1.12","60f19a691466276fe085b461","not_provided","desktop","1","1","1","","","","","","working_memory","","null","<img class='a' src=images/squares/black.png><img class='c' src=images/squares/orange.png><img class='d' src=images/squares/red.png><img class='e' src=images/squares/yellow.png><img class='g' src=images/squares/blue.png><img class='h' src=images/squares/magenta.png><img class='j' src=images/squares/brown.png><img class='l' src=images/squares/cyan.png><div class=""fixation"">+</div>","null","","","memory","practice","12","8","","","","","","","","","","",""
"html-keyboard-response","71","373284","0.0-5.0-3.0-1.0-2.12","60f19a691466276fe085b461","not_provided","desktop","1","1","1","","","","","","working_memory","","null","<div class=""fixation"">+</div>","null","","","","","","","","","","","","","","","","",""
"html-keyboard-response","72","374586","0.0-5.0-3.0-1.0-3.12","60f19a691466276fe085b461","not_provided","desktop","1","1","1","","","","","","working_memory","","1301","<img class='a' src=images/squares/green.png><div class=""fixation"">+</div>","s","","","test","practice","12","8","s","true","","","","","","","","",""
"html-keyboard-response","73","375088","0.0-5.0-3.0-1.0-4.12","60f19a691466276fe085b461","not_provided","desktop","1","1","1","","","","","","working_memory","","null","<div class=""fixation"">Correct</div>","null","","","","","","","","","","","","","","","","",""
"html-keyboard-response","74","376097","0.0-5.0-3.0-1.0-0.13","60f19a691466276fe085b461","not_provided","desktop","1","1","1","","","","","","working_memory","","null","<div class=""fixation"">+</div>","null","","","","","","","","","","","","","","","","",""
"html-keyboard-response","75","376301","0.0-5.0-3.0-1.0-1.13","60f19a691466276fe085b461","not_provided","desktop","1","1","1","","","","","","working_memory","","null","<img class='c' src=images/squares/cyan.png><img class='f' src=images/squares/green.png><img class='h' src=images/squares/yellow.png><img class='k' src=images/squares/brown.png><div class=""fixation"">+</div>","null","","","memory","practice","13","4","","","","","","","","","","",""
"html-keyboard-response","76","377214","0.0-5.0-3.0-1.0-2.13","60f19a691466276fe085b461","not_provided","desktop","1","1","1","","","","","","working_memory","","null","<div class=""fixation"">+</div>","null","","","","","","","","","","","","","","","","",""
"html-keyboard-response","77","377688","0.0-5.0-3.0-1.0-3.13","60f19a691466276fe085b461","not_provided","desktop","1","1","1","","","","","","working_memory","","473","<img class='h' src=images/squares/yellow.png><div class=""fixation"">+</div>","k","","","test","practice","13","4","k","true","","","","","","","","",""
"html-keyboard-response","78","378201","0.0-5.0-3.0-1.0-4.13","60f19a691466276fe085b461","not_provided","desktop","1","1","1","","","","","","working_memory","","null","<div class=""fixation"">Correct</div>","null","","","","","","","","","","","","","","","","",""
"html-keyboard-response","79","379216","0.0-5.0-3.0-1.0-0.14","60f19a691466276fe085b461","not_provided","desktop","1","1","1","","","","","","working_memory","","null","<div class=""fixation"">+</div>","null","","","","","","","","","","","","","","","","",""
"html-keyboard-response","80","379426","0.0-5.0-3.0-1.0-1.14","60f19a691466276fe085b461","not_provided","desktop","1","1","1","","","","","","working_memory","","null","<img class='b' src=images/squares/green.png><img class='e' src=images/squares/blue.png><img class='i' src=images/squares/red.png><img class='j' src=images/squares/cyan.png><div class=""fixation"">+</div>","null","","","memory","practice","14","4","","","","","","","","","","",""
"html-keyboard-response","81","380333","0.0-5.0-3.0-1.0-2.14","60f19a691466276fe085b461","not_provided","desktop","1","1","1","","","","","","working_memory","","null","<div class=""fixation"">+</div>","null","","","","","","","","","","","","","","","","",""
"html-keyboard-response","82","380983","0.0-5.0-3.0-1.0-3.14","60f19a691466276fe085b461","not_provided","desktop","1","1","1","","","","","","working_memory","","649","<img class='j' src=images/squares/cyan.png><div class=""fixation"">+</div>","s","","","test","practice","14","4","k","false","","","","","","","","",""
"html-keyboard-response","83","381489","0.0-5.0-3.0-1.0-4.14","60f19a691466276fe085b461","not_provided","desktop","1","1","1","","","","","","working_memory","","null","<div class=""fixation"">Incorrect</div>","null","","","","","","","","","","","","","","","","",""
"html-keyboard-response","84","386106","0.0-5.0-3.0-2.0-0.0","60f19a691466276fe085b461","not_provided","desktop","1","1","1","","","","","","working_memory","","4615","<p>Sorry. You made too many mistakes.<br>Let's do the practice session once again.<br><br><b>Press any key to continue</b></p>"," ","","","","","","","","","","","","","","","","",""
"html-keyboard-response","85","392112","0.0-5.0-3.1-0.1","60f19a691466276fe085b461","not_provided","desktop","1","1","1","","","","","","working_memory","","6005","<p>We will now start some practice trials.<br><b>The practice trials will also include some trials in which you will need to remember only one square to make sure you understood the instructions.</b><br>You may already want to be ready with your fingers on '<b>s</b>' and '<b>k</b>'.<br><img class=""wm-example-img"" src=""images/examples/keyboard.png""><br><b style=""font-size:1.2em;"">&lsquo;K&rsquo; = SAME &nbsp;&nbsp;&nbsp; &lsquo;S&rsquo; = DIFFERENT</b><br><br><u>Please try to be as accurate as possible.</u><br><br><b>Press any key to begin</b></p>"," ","","","","","","","","","","","","","","","","",""
"html-keyboard-response","86","394132","0.0-5.0-3.1-1.1-0.15","60f19a691466276fe085b461","not_provided","desktop","1","1","1","","","","","","working_memory","","null","<div class=""fixation"">+</div>","null","","","","","","","","","","","","","","","","",""
"html-keyboard-response","87","394344","0.0-5.0-3.1-1.1-1.15","60f19a691466276fe085b461","not_provided","desktop","1","1","1","","","","","","working_memory","","null","<img class='c' src=images/squares/black.png><img class='f' src=images/squares/orange.png><img class='i' src=images/squares/magenta.png><img class='l' src=images/squares/green.png><div class=""fixation"">+</div>","null","","","memory","practice","15","4","","","","","","","","","","",""
"html-keyboard-response","88","395252","0.0-5.0-3.1-1.1-2.15","60f19a691466276fe085b461","not_provided","desktop","1","1","1","","","","","","working_memory","","null","<div class=""fixation"">+</div>","null","","","","","","","","","","","","","","","","",""
"html-keyboard-response","89","396481","0.0-5.0-3.1-1.1-3.15","60f19a691466276fe085b461","not_provided","desktop","1","1","1","","","","","","working_memory","","1227","<img class='f' src=images/squares/cyan.png><div class=""fixation"">+</div>","k","","","test","practice","15","4","s","false","","","","","","","","",""
"html-keyboard-response","90","396991","0.0-5.0-3.1-1.1-4.15","60f19a691466276fe085b461","not_provided","desktop","1","1","1","","","","","","working_memory","","null","<div class=""fixation"">Incorrect</div>","null","","","","","","","","","","","","","","","","",""
"html-keyboard-response","91","397999","0.0-5.0-3.1-1.1-0.16","60f19a691466276fe085b461","not_provided","desktop","1","1","1","","","","","","working_memory","","null","<div class=""fixation"">+</div>","null","","","","","","","","","","","","","","","","",""
"html-keyboard-response","92","398206","0.0-5.0-3.1-1.1-1.16","60f19a691466276fe085b461","not_provided","desktop","1","1","1","","","","","","working_memory","","null","<img class='a' src=images/squares/yellow.png><img class='c' src=images/squares/blue.png><img class='e' src=images/squares/brown.png><img class='f' src=images/squares/cyan.png><img class='h' src=images/squares/magenta.png><img class='g' src=images/squares/orange.png><img class='j' src=images/squares/black.png><img class='k' src=images/squares/red.png><div class=""fixation"">+</div>","null","","","memory","practice","16","8","","","","","","","","","","",""
"html-keyboard-response","93","399125","0.0-5.0-3.1-1.1-2.16","60f19a691466276fe085b461","not_provided","desktop","1","1","1","","","","","","working_memory","","null","<div class=""fixation"">+</div>","null","","","","","","","","","","","","","","","","",""
"html-keyboard-response","94","399754","0.0-5.0-3.1-1.1-3.16","60f19a691466276fe085b461","not_provided","desktop","1","1","1","","","","","","working_memory","","627","<img class='c' src=images/squares/blue.png><div class=""fixation"">+</div>","s","","","test","practice","16","8","k","false","","","","","","","","",""
"html-keyboard-response","95","400269","0.0-5.0-3.1-1.1-4.16","60f19a691466276fe085b461","not_provided","desktop","1","1","1","","","","","","working_memory","","null","<div class=""fixation"">Incorrect</div>","null","","","","","","","","","","","","","","","","",""
"html-keyboard-response","96","401274","0.0-5.0-3.1-1.1-0.17","60f19a691466276fe085b461","not_provided","desktop","1","1","1","","","","","","working_memory","","null","<div class=""fixation"">+</div>","null","","","","","","","","","","","","","","","","",""
"html-keyboard-response","97","401482","0.0-5.0-3.1-1.1-1.17","60f19a691466276fe085b461","not_provided","desktop","1","1","1","","","","","","working_memory","","null","<img class='lower1' src=images/squares/blue.png><div class=""fixation"">+</div>","null","","","memory","practice","17","1","","","","","","","","","","",""
"html-keyboard-response","98","402390","0.0-5.0-3.1-1.1-2.17","60f19a691466276fe085b461","not_provided","desktop","1","1","1","","","","","","working_memory","","null","<div class=""fixation"">+</div>","null","","","","","","","","","","","","","","","","",""
"html-keyboard-response","99","404758","0.0-5.0-3.1-1.1-3.17","60f19a691466276fe085b461","not_provided","desktop","1","1","1","","","","","","working_memory","","2366","<img class='lower1' src=images/squares/red.png><div class=""fixation"">+</div>","k","","","test","practice","17","1","s","false","","","","","","","","",""
"html-keyboard-response","100","405266","0.0-5.0-3.1-1.1-4.17","60f19a691466276fe085b461","not_provided","desktop","1","1","1","","","","","","working_memory","","null","<div class=""fixation"">Incorrect</div>","null","","","","","","","","","","","","","","","","",""
"html-keyboard-response","101","406274","0.0-5.0-3.1-1.1-0.18","60f19a691466276fe085b461","not_provided","desktop","1","1","1","","","","","","working_memory","","null","<div class=""fixation"">+</div>","null","","","","","","","","","","","","","","","","",""
"html-keyboard-response","102","406483","0.0-5.0-3.1-1.1-1.18","60f19a691466276fe085b461","not_provided","desktop","1","1","1","","","","","","working_memory","","null","<img class='a' src=images/squares/yellow.png><img class='d' src=images/squares/green.png><img class='h' src=images/squares/orange.png><img class='l' src=images/squares/cyan.png><div class=""fixation"">+</div>","null","","","memory","practice","18","4","","","","","","","","","","",""
"html-keyboard-response","103","407400","0.0-5.0-3.1-1.1-2.18","60f19a691466276fe085b461","not_provided","desktop","1","1","1","","","","","","working_memory","","null","<div class=""fixation"">+</div>","null","","","","","","","","","","","","","","","","",""
"html-keyboard-response","104","409660","0.0-5.0-3.1-1.1-3.18","60f19a691466276fe085b461","not_provided","desktop","1","1","1","","","","","","working_memory","","2259","<img class='h' src=images/squares/orange.png><div class=""fixation"">+</div>","s","","","test","practice","18","4","k","false","","","","","","","","",""
"html-keyboard-response","105","410170","0.0-5.0-3.1-1.1-4.18","60f19a691466276fe085b461","not_provided","desktop","1","1","1","","","","","","working_memory","","null","<div class=""fixation"">Incorrect</div>","null","","","","","","","","","","","","","","","","",""
"html-keyboard-response","106","411186","0.0-5.0-3.1-1.1-0.19","60f19a691466276fe085b461","not_provided","desktop","1","1","1","","","","","","working_memory","","null","<div class=""fixation"">+</div>","null","","","","","","","","","","","","","","","","",""
"html-keyboard-response","107","411391","0.0-5.0-3.1-1.1-1.19","60f19a691466276fe085b461","not_provided","desktop","1","1","1","","","","","","working_memory","","null","<img class='upper2' src=images/squares/yellow.png><div class=""fixation"">+</div>","null","","","memory","practice","19","1","","","","","","","","","","",""
"html-keyboard-response","108","412301","0.0-5.0-3.1-1.1-2.19","60f19a691466276fe085b461","not_provided","desktop","1","1","1","","","","","","working_memory","","null","<div class=""fixation"">+</div>","null","","","","","","","","","","","","","","","","",""
"html-keyboard-response","109","415234","0.0-5.0-3.1-1.1-3.19","60f19a691466276fe085b461","not_provided","desktop","1","1","1","","","","","","working_memory","","2932","<img class='upper2' src=images/squares/green.png><div class=""fixation"">+</div>","k","","","test","practice","19","1","s","false","","","","","","","","",""
"html-keyboard-response","110","415748","0.0-5.0-3.1-1.1-4.19","60f19a691466276fe085b461","not_provided","desktop","1","1","1","","","","","","working_memory","","null","<div class=""fixation"">Incorrect</div>","null","","","","","","","","","","","","","","","","",""
"html-keyboard-response","111","416755","0.0-5.0-3.1-1.1-0.20","60f19a691466276fe085b461","not_provided","desktop","1","1","1","","","","","","working_memory","","null","<div class=""fixation"">+</div>","null","","","","","","","","","","","","","","","","",""
"html-keyboard-response","112","416960","0.0-5.0-3.1-1.1-1.20","60f19a691466276fe085b461","not_provided","desktop","1","1","1","","","","","","working_memory","","null","<img class='a' src=images/squares/brown.png><img class='b' src=images/squares/green.png><img class='e' src=images/squares/black.png><img class='d' src=images/squares/magenta.png><img class='i' src=images/squares/red.png><img class='h' src=images/squares/cyan.png><img class='k' src=images/squares/blue.png><img class='l' src=images/squares/yellow.png><div class=""fixation"">+</div>","null","","","memory","practice","20","8","","","","","","","","","","",""
"html-keyboard-response","113","417869","0.0-5.0-3.1-1.1-2.20","60f19a691466276fe085b461","not_provided","desktop","1","1","1","","","","","","working_memory","","null","<div class=""fixation"">+</div>","null","","","","","","","","","","","","","","","","",""
"html-keyboard-response","114","418799","0.0-5.0-3.1-1.1-3.20","60f19a691466276fe085b461","not_provided","desktop","1","1","1","","","","","","working_memory","","928","<img class='a' src=images/squares/brown.png><div class=""fixation"">+</div>","s","","","test","practice","20","8","k","false","","","","","","","","",""
"html-keyboard-response","115","419302","0.0-5.0-3.1-1.1-4.20","60f19a691466276fe085b461","not_provided","desktop","1","1","1","","","","","","working_memory","","null","<div class=""fixation"">Incorrect</div>","null","","","","","","","","","","","","","","","","",""
"html-keyboard-response","116","420320","0.0-5.0-3.1-1.1-0.21","60f19a691466276fe085b461","not_provided","desktop","1","1","1","","","","","","working_memory","","null","<div class=""fixation"">+</div>","null","","","","","","","","","","","","","","","","",""
"html-keyboard-response","117","420529","0.0-5.0-3.1-1.1-1.21","60f19a691466276fe085b461","not_provided","desktop","1","1","1","","","","","","working_memory","","null","<img class='a' src=images/squares/blue.png><img class='b' src=images/squares/brown.png><img class='f' src=images/squares/magenta.png><img class='e' src=images/squares/green.png><img class='h' src=images/squares/yellow.png><img class='g' src=images/squares/cyan.png><img class='j' src=images/squares/red.png><img class='l' src=images/squares/orange.png><div class=""fixation"">+</div>","null","","","memory","practice","21","8","","","","","","","","","","",""
"html-keyboard-response","118","421434","0.0-5.0-3.1-1.1-2.21","60f19a691466276fe085b461","not_provided","desktop","1","1","1","","","","","","working_memory","","null","<div class=""fixation"">+</div>","null","","","","","","","","","","","","","","","","",""
"html-keyboard-response","119","422318","0.0-5.0-3.1-1.1-3.21","60f19a691466276fe085b461","not_provided","desktop","1","1","1","","","","","","working_memory","","883","<img class='j' src=images/squares/red.png><div class=""fixation"">+</div>","s","","","test","practice","21","8","k","false","","","","","","","","",""
"html-keyboard-response","120","422822","0.0-5.0-3.1-1.1-4.21","60f19a691466276fe085b461","not_provided","desktop","1","1","1","","","","","","working_memory","","null","<div class=""fixation"">Incorrect</div>","null","","","","","","","","","","","","","","","","",""
"html-keyboard-response","121","423827","0.0-5.0-3.1-1.1-0.22","60f19a691466276fe085b461","not_provided","desktop","1","1","1","","","","","","working_memory","","null","<div class=""fixation"">+</div>","null","","","","","","","","","","","","","","","","",""
"html-keyboard-response","122","424039","0.0-5.0-3.1-1.1-1.22","60f19a691466276fe085b461","not_provided","desktop","1","1","1","","","","","","working_memory","","null","<img class='a' src=images/squares/black.png><img class='b' src=images/squares/red.png><img class='d' src=images/squares/magenta.png><img class='f' src=images/squares/green.png><img class='i' src=images/squares/cyan.png><img class='g' src=images/squares/orange.png><img class='l' src=images/squares/yellow.png><img class='j' src=images/squares/blue.png><div class=""fixation"">+</div>","null","","","memory","practice","22","8","","","","","","","","","","",""
"html-keyboard-response","123","424943","0.0-5.0-3.1-1.1-2.22","60f19a691466276fe085b461","not_provided","desktop","1","1","1","","","","","","working_memory","","null","<div class=""fixation"">+</div>","null","","","","","","","","","","","","","","","","",""
"html-keyboard-response","124","425588","0.0-5.0-3.1-1.1-3.22","60f19a691466276fe085b461","not_provided","desktop","1","1","1","","","","","","working_memory","","643","<img class='d' src=images/squares/magenta.png><div class=""fixation"">+</div>","k","","","test","practice","22","8","k","true","","","","","","","","",""
"html-keyboard-response","125","426106","0.0-5.0-3.1-1.1-4.22","60f19a691466276fe085b461","not_provided","desktop","1","1","1","","","","","","working_memory","","null","<div class=""fixation"">Correct</div>","null","","","","","","","","","","","","","","","","",""
"html-keyboard-response","126","427117","0.0-5.0-3.1-1.1-0.23","60f19a691466276fe085b461","not_provided","desktop","1","1","1","","","","","","working_memory","","null","<div class=""fixation"">+</div>","null","","","","","","","","","","","","","","","","",""
"html-keyboard-response","127","427335","0.0-5.0-3.1-1.1-1.23","60f19a691466276fe085b461","not_provided","desktop","1","1","1","","","","","","working_memory","","null","<img class='b' src=images/squares/yellow.png><img class='c' src=images/squares/green.png><img class='f' src=images/squares/red.png><img class='d' src=images/squares/orange.png><img class='h' src=images/squares/black.png><img class='i' src=images/squares/cyan.png><img class='j' src=images/squares/blue.png><img class='l' src=images/squares/magenta.png><div class=""fixation"">+</div>","null","","","memory","practice","23","8","","","","","","","","","","",""
"html-keyboard-response","128","428255","0.0-5.0-3.1-1.1-2.23","60f19a691466276fe085b461","not_provided","desktop","1","1","1","","","","","","working_memory","","null","<div class=""fixation"">+</div>","null","","","","","","","","","","","","","","","","",""
"html-keyboard-response","129","430154","0.0-5.0-3.1-1.1-3.23","60f19a691466276fe085b461","not_provided","desktop","1","1","1","","","","","","working_memory","","1898","<img class='f' src=images/squares/brown.png><div class=""fixation"">+</div>","k","","","test","practice","23","8","s","false","","","","","","","","",""
"html-keyboard-response","130","430659","0.0-5.0-3.1-1.1-4.23","60f19a691466276fe085b461","not_provided","desktop","1","1","1","","","","","","working_memory","","null","<div class=""fixation"">Incorrect</div>","null","","","","","","","","","","","","","","","","",""
"html-keyboard-response","131","431668","0.0-5.0-3.1-1.1-0.24","60f19a691466276fe085b461","not_provided","desktop","1","1","1","","","","","","working_memory","","null","<div class=""fixation"">+</div>","null","","","","","","","","","","","","","","","","",""
"html-keyboard-response","132","431876","0.0-5.0-3.1-1.1-1.24","60f19a691466276fe085b461","not_provided","desktop","1","1","1","","","","","","working_memory","","null","<img class='a' src=images/squares/yellow.png><img class='e' src=images/squares/green.png><img class='g' src=images/squares/black.png><img class='l' src=images/squares/red.png><div class=""fixation"">+</div>","null","","","memory","practice","24","4","","","","","","","","","","",""
"html-keyboard-response","133","432785","0.0-5.0-3.1-1.1-2.24","60f19a691466276fe085b461","not_provided","desktop","1","1","1","","","","","","working_memory","","null","<div class=""fixation"">+</div>","null","","","","","","","","","","","","","","","","",""
"html-keyboard-response","134","433060","0.0-5.0-3.1-1.1-3.24","60f19a691466276fe085b461","not_provided","desktop","1","1","1","","","","","","working_memory","","274","<img class='l' src=images/squares/red.png><div class=""fixation"">+</div>","s","","","test","practice","24","4","k","false","","","","","","","","",""
"html-keyboard-response","135","433561","0.0-5.0-3.1-1.1-4.24","60f19a691466276fe085b461","not_provided","desktop","1","1","1","","","","","","working_memory","","null","<div class=""fixation"">Incorrect</div>","null","","","","","","","","","","","","","","","","",""
"html-keyboard-response","136","434568","0.0-5.0-3.1-1.1-0.25","60f19a691466276fe085b461","not_provided","desktop","1","1","1","","","","","","working_memory","","null","<div class=""fixation"">+</div>","null","","","","","","","","","","","","","","","","",""
"html-keyboard-response","137","434788","0.0-5.0-3.1-1.1-1.25","60f19a691466276fe085b461","not_provided","desktop","1","1","1","","","","","","working_memory","","null","<img class='b' src=images/squares/blue.png><img class='f' src=images/squares/yellow.png><img class='g' src=images/squares/orange.png><img class='k' src=images/squares/red.png><div class=""fixation"">+</div>","null","","","memory","practice","25","4","","","","","","","","","","",""
"html-keyboard-response","138","435699","0.0-5.0-3.1-1.1-2.25","60f19a691466276fe085b461","not_provided","desktop","1","1","1","","","","","","working_memory","","null","<div class=""fixation"">+</div>","null","","","","","","","","","","","","","","","","",""
"html-keyboard-response","139","436323","0.0-5.0-3.1-1.1-3.25","60f19a691466276fe085b461","not_provided","desktop","1","1","1","","","","","","working_memory","","623","<img class='b' src=images/squares/blue.png><div class=""fixation"">+</div>","s","","","test","practice","25","4","k","false","","","","","","","","",""
"html-keyboard-response","140","436826","0.0-5.0-3.1-1.1-4.25","60f19a691466276fe085b461","not_provided","desktop","1","1","1","","","","","","working_memory","","null","<div class=""fixation"">Incorrect</div>","null","","","","","","","","","","","","","","","","",""
"html-keyboard-response","141","437835","0.0-5.0-3.1-1.1-0.26","60f19a691466276fe085b461","not_provided","desktop","1","1","1","","","","","","working_memory","","null","<div class=""fixation"">+</div>","null","","","","","","","","","","","","","","","","",""
"html-keyboard-response","142","438055","0.0-5.0-3.1-1.1-1.26","60f19a691466276fe085b461","not_provided","desktop","1","1","1","","","","","","working_memory","","null","<img class='lower3' src=images/squares/orange.png><div class=""fixation"">+</div>","null","","","memory","practice","26","1","","","","","","","","","","",""
"html-keyboard-response","143","438959","0.0-5.0-3.1-1.1-2.26","60f19a691466276fe085b461","not_provided","desktop","1","1","1","","","","","","working_memory","","null","<div class=""fixation"">+</div>","null","","","","","","","","","","","","","","","","",""
"html-keyboard-response","144","439712","0.0-5.0-3.1-1.1-3.26","60f19a691466276fe085b461","not_provided","desktop","1","1","1","","","","","","working_memory","","751","<img class='lower3' src=images/squares/blue.png><div class=""fixation"">+</div>","s","","","test","practice","26","1","s","true","","","","","","","","",""
"html-keyboard-response","145","440220","0.0-5.0-3.1-1.1-4.26","60f19a691466276fe085b461","not_provided","desktop","1","1","1","","","","","","working_memory","","null","<div class=""fixation"">Correct</div>","null","","","","","","","","","","","","","","","","",""
"html-keyboard-response","146","441226","0.0-5.0-3.1-1.1-0.27","60f19a691466276fe085b461","not_provided","desktop","1","1","1","","","","","","working_memory","","null","<div class=""fixation"">+</div>","null","","","","","","","","","","","","","","","","",""
"html-keyboard-response","147","441435","0.0-5.0-3.1-1.1-1.27","60f19a691466276fe085b461","not_provided","desktop","1","1","1","","","","","","working_memory","","null","<img class='a' src=images/squares/black.png><img class='c' src=images/squares/brown.png><img class='f' src=images/squares/green.png><img class='e' src=images/squares/cyan.png><img class='i' src=images/squares/orange.png><img class='h' src=images/squares/red.png><img class='k' src=images/squares/yellow.png><img class='l' src=images/squares/magenta.png><div class=""fixation"">+</div>","null","","","memory","practice","27","8","","","","","","","","","","",""
"html-keyboard-response","148","442351","0.0-5.0-3.1-1.1-2.27","60f19a691466276fe085b461","not_provided","desktop","1","1","1","","","","","","working_memory","","null","<div class=""fixation"">+</div>","null","","","","","","","","","","","","","","","","",""
"html-keyboard-response","149","442996","0.0-5.0-3.1-1.1-3.27","60f19a691466276fe085b461","not_provided","desktop","1","1","1","","","","","","working_memory","","644","<img class='k' src=images/squares/blue.png><div class=""fixation"">+</div>","s","","","test","practice","27","8","s","true","","","","","","","","",""
"html-keyboard-response","150","443498","0.0-5.0-3.1-1.1-4.27","60f19a691466276fe085b461","not_provided","desktop","1","1","1","","","","","","working_memory","","null","<div class=""fixation"">Correct</div>","null","","","","","","","","","","","","","","","","",""
"html-keyboard-response","151","444503","0.0-5.0-3.1-1.1-0.28","60f19a691466276fe085b461","not_provided","desktop","1","1","1","","","","","","working_memory","","null","<div class=""fixation"">+</div>","null","","","","","","","","","","","","","","","","",""
"html-keyboard-response","152","444719","0.0-5.0-3.1-1.1-1.28","60f19a691466276fe085b461","not_provided","desktop","1","1","1","","","","","","working_memory","","null","<img class='lower1' src=images/squares/magenta.png><div class=""fixation"">+</div>","null","","","memory","practice","28","1","","","","","","","","","","",""
"html-keyboard-response","153","445627","0.0-5.0-3.1-1.1-2.28","60f19a691466276fe085b461","not_provided","desktop","1","1","1","","","","","","working_memory","","null","<div class=""fixation"">+</div>","null","","","","","","","","","","","","","","","","",""
"html-keyboard-response","154","446462","0.0-5.0-3.1-1.1-3.28","60f19a691466276fe085b461","not_provided","desktop","1","1","1","","","","","","working_memory","","834","<img class='lower1' src=images/squares/black.png><div class=""fixation"">+</div>","s","","","test","practice","28","1","s","true","","","","","","","","",""
"html-keyboard-response","155","446969","0.0-5.0-3.1-1.1-4.28","60f19a691466276fe085b461","not_provided","desktop","1","1","1","","","","","","working_memory","","null","<div class=""fixation"">Correct</div>","null","","","","","","","","","","","","","","","","",""
"html-keyboard-response","156","447986","0.0-5.0-3.1-1.1-0.29","60f19a691466276fe085b461","not_provided","desktop","1","1","1","","","","","","working_memory","","null","<div class=""fixation"">+</div>","null","","","","","","","","","","","","","","","","",""
"html-keyboard-response","157","448189","0.0-5.0-3.1-1.1-1.29","60f19a691466276fe085b461","not_provided","desktop","1","1","1","","","","","","working_memory","","null","<img class='c' src=images/squares/brown.png><img class='a' src=images/squares/blue.png><img class='d' src=images/squares/orange.png><img class='f' src=images/squares/black.png><img class='h' src=images/squares/magenta.png><img class='g' src=images/squares/cyan.png><img class='l' src=images/squares/red.png><img class='j' src=images/squares/yellow.png><div class=""fixation"">+</div>","null","","","memory","practice","29","8","","","","","","","","","","",""
"html-keyboard-response","158","449093","0.0-5.0-3.1-1.1-2.29","60f19a691466276fe085b461","not_provided","desktop","1","1","1","","","","","","working_memory","","null","<div class=""fixation"">+</div>","null","","","","","","","","","","","","","","","","",""
"html-keyboard-response","159","450019","0.0-5.0-3.1-1.1-3.29","60f19a691466276fe085b461","not_provided","desktop","1","1","1","","","","","","working_memory","","923","<img class='c' src=images/squares/brown.png><div class=""fixation"">+</div>","s","","","test","practice","29","8","k","false","","","","","","","","",""
"html-keyboard-response","160","450527","0.0-5.0-3.1-1.1-4.29","60f19a691466276fe085b461","not_provided","desktop","1","1","1","","","","","","working_memory","","null","<div class=""fixation"">Incorrect</div>","null","","","","","","","","","","","","","","","","",""
"html-keyboard-response","161","453502","0.0-5.0-3.1-2.1-0.1","60f19a691466276fe085b461","not_provided","desktop","1","1","1","","","","","","working_memory","","2973","<p>Sorry. You made too many mistakes.<br>Let's do the practice session once again.<br><br><b>Press any key to continue</b></p>"," ","","","","","","","","","","","","","","","","",""
"html-keyboard-response","162","462805","0.0-5.0-3.2-0.2","60f19a691466276fe085b461","not_provided","desktop","1","1","1","","","","","","working_memory","","9301","<p>We will now start some practice trials.<br><b>The practice trials will also include some trials in which you will need to remember only one square to make sure you understood the instructions.</b><br>You may already want to be ready with your fingers on '<b>s</b>' and '<b>k</b>'.<br><img class=""wm-example-img"" src=""images/examples/keyboard.png""><br><b style=""font-size:1.2em;"">&lsquo;K&rsquo; = SAME &nbsp;&nbsp;&nbsp; &lsquo;S&rsquo; = DIFFERENT</b><br><br><u>Please try to be as accurate as possible.</u><br><br><b>Press any key to begin</b></p>"," ","","","","","","","","","","","","","","","","",""
"html-keyboard-response","163","464837","0.0-5.0-3.2-1.2-0.30","60f19a691466276fe085b461","not_provided","desktop","1","1","1","","","","","","working_memory","","null","<div class=""fixation"">+</div>","null","","","","","","","","","","","","","","","","",""
"html-keyboard-response","164","465057","0.0-5.0-3.2-1.2-1.30","60f19a691466276fe085b461","not_provided","desktop","1","1","1","","","","","","working_memory","","null","<img class='b' src=images/squares/black.png><img class='f' src=images/squares/brown.png><img class='h' src=images/squares/green.png><img class='l' src=images/squares/magenta.png><div class=""fixation"">+</div>","null","","","memory","practice","30","4","","","","","","","","","","",""
"html-keyboard-response","165","465965","0.0-5.0-3.2-1.2-2.30","60f19a691466276fe085b461","not_provided","desktop","1","1","1","","","","","","working_memory","","null","<div class=""fixation"">+</div>","null","","","","","","","","","","","","","","","","",""
"html-keyboard-response","166","466926","0.0-5.0-3.2-1.2-3.30","60f19a691466276fe085b461","not_provided","desktop","1","1","1","","","","","","working_memory","","959","<img class='l' src=images/squares/magenta.png><div class=""fixation"">+</div>","k","","","test","practice","30","4","k","true","","","","","","","","",""
"html-keyboard-response","167","467442","0.0-5.0-3.2-1.2-4.30","60f19a691466276fe085b461","not_provided","desktop","1","1","1","","","","","","working_memory","","null","<div class=""fixation"">Correct</div>","null","","","","","","","","","","","","","","","","",""
"html-keyboard-response","168","468446","0.0-5.0-3.2-1.2-0.31","60f19a691466276fe085b461","not_provided","desktop","1","1","1","","","","","","working_memory","","null","<div class=""fixation"">+</div>","null","","","","","","","","","","","","","","","","",""
"html-keyboard-response","169","468664","0.0-5.0-3.2-1.2-1.31","60f19a691466276fe085b461","not_provided","desktop","1","1","1","","","","","","working_memory","","null","<img class='a' src=images/squares/blue.png><img class='b' src=images/squares/brown.png><img class='d' src=images/squares/red.png><img class='e' src=images/squares/orange.png><img class='g' src=images/squares/cyan.png><img class='i' src=images/squares/black.png><img class='k' src=images/squares/magenta.png><img class='l' src=images/squares/green.png><div class=""fixation"">+</div>","null","","","memory","practice","31","8","","","","","","","","","","",""
"html-keyboard-response","170","469582","0.0-5.0-3.2-1.2-2.31","60f19a691466276fe085b461","not_provided","desktop","1","1","1","","","","","","working_memory","","null","<div class=""fixation"">+</div>","null","","","","","","","","","","","","","","","","",""
"html-keyboard-response","171","470539","0.0-5.0-3.2-1.2-3.31","60f19a691466276fe085b461","not_provided","desktop","1","1","1","","","","","","working_memory","","956","<img class='g' src=images/squares/cyan.png><div class=""fixation"">+</div>","k","","","test","practice","31","8","k","true","","","","","","","","",""
"html-keyboard-response","172","471041","0.0-5.0-3.2-1.2-4.31","60f19a691466276fe085b461","not_provided","desktop","1","1","1","","","","","","working_memory","","null","<div class=""fixation"">Correct</div>","null","","","","","","","","","","","","","","","","",""
"html-keyboard-response","173","472056","0.0-5.0-3.2-1.2-0.32","60f19a691466276fe085b461","not_provided","desktop","1","1","1","","","","","","working_memory","","null","<div class=""fixation"">+</div>","null","","","","","","","","","","","","","","","","",""
"html-keyboard-response","174","472268","0.0-5.0-3.2-1.2-1.32","60f19a691466276fe085b461","not_provided","desktop","1","1","1","","","","","","working_memory","","null","<img class='lower3' src=images/squares/black.png><div class=""fixation"">+</div>","null","","","memory","practice","32","1","","","","","","","","","","",""
"html-keyboard-response","175","473179","0.0-5.0-3.2-1.2-2.32","60f19a691466276fe085b461","not_provided","desktop","1","1","1","","","","","","working_memory","","null","<div class=""fixation"">+</div>","null","","","","","","","","","","","","","","","","",""
"html-keyboard-response","176","474395","0.0-5.0-3.2-1.2-3.32","60f19a691466276fe085b461","not_provided","desktop","1","1","1","","","","","","working_memory","","1215","<img class='lower3' src=images/squares/brown.png><div class=""fixation"">+</div>","k","","","test","practice","32","1","s","false","","","","","","","","",""
"html-keyboard-response","177","474895","0.0-5.0-3.2-1.2-4.32","60f19a691466276fe085b461","not_provided","desktop","1","1","1","","","","","","working_memory","","null","<div class=""fixation"">Incorrect</div>","null","","","","","","","","","","","","","","","","",""
"html-keyboard-response","178","475905","0.0-5.0-3.2-1.2-0.33","60f19a691466276fe085b461","not_provided","desktop","1","1","1","","","","","","working_memory","","null","<div class=""fixation"">+</div>","null","","","","","","","","","","","","","","","","",""
"html-keyboard-response","179","476121","0.0-5.0-3.2-1.2-1.33","60f19a691466276fe085b461","not_provided","desktop","1","1","1","","","","","","working_memory","","null","<img class='c' src=images/squares/black.png><img class='f' src=images/squares/yellow.png><img class='i' src=images/squares/orange.png><img class='j' src=images/squares/red.png><div class=""fixation"">+</div>","null","","","memory","practice","33","4","","","","","","","","","","",""
"html-keyboard-response","180","477038","0.0-5.0-3.2-1.2-2.33","60f19a691466276fe085b461","not_provided","desktop","1","1","1","","","","","","working_memory","","null","<div class=""fixation"">+</div>","null","","","","","","","","","","","","","","","","",""
"html-keyboard-response","181","479129","0.0-5.0-3.2-1.2-3.33","60f19a691466276fe085b461","not_provided","desktop","1","1","1","","","","","","working_memory","","2090","<img class='c' src=images/squares/cyan.png><div class=""fixation"">+</div>","s","","","test","practice","33","4","s","true","","","","","","","","",""
"html-keyboard-response","182","479644","0.0-5.0-3.2-1.2-4.33","60f19a691466276fe085b461","not_provided","desktop","1","1","1","","","","","","working_memory","","null","<div class=""fixation"">Correct</div>","null","","","","","","","","","","","","","","","","",""
"html-keyboard-response","183","480663","0.0-5.0-3.2-1.2-0.34","60f19a691466276fe085b461","not_provided","desktop","1","1","1","","","","","","working_memory","","null","<div class=""fixation"">+</div>","null","","","","","","","","","","","","","","","","",""
"html-keyboard-response","184","480871","0.0-5.0-3.2-1.2-1.34","60f19a691466276fe085b461","not_provided","desktop","1","1","1","","","","","","working_memory","","null","<img class='lower3' src=images/squares/brown.png><div class=""fixation"">+</div>","null","","","memory","practice","34","1","","","","","","","","","","",""
"html-keyboard-response","185","481782","0.0-5.0-3.2-1.2-2.34","60f19a691466276fe085b461","not_provided","desktop","1","1","1","","","","","","working_memory","","null","<div class=""fixation"">+</div>","null","","","","","","","","","","","","","","","","",""
"html-keyboard-response","186","482689","0.0-5.0-3.2-1.2-3.34","60f19a691466276fe085b461","not_provided","desktop","1","1","1","","","","","","working_memory","","906","<img class='lower3' src=images/squares/brown.png><div class=""fixation"">+</div>","s","","","test","practice","34","1","k","false","","","","","","","","",""
"html-keyboard-response","187","483205","0.0-5.0-3.2-1.2-4.34","60f19a691466276fe085b461","not_provided","desktop","1","1","1","","","","","","working_memory","","null","<div class=""fixation"">Incorrect</div>","null","","","","","","","","","","","","","","","","",""
"html-keyboard-response","188","484213","0.0-5.0-3.2-1.2-0.35","60f19a691466276fe085b461","not_provided","desktop","1","1","1","","","","","","working_memory","","null","<div class=""fixation"">+</div>","null","","","","","","","","","","","","","","","","",""
"html-keyboard-response","189","484421","0.0-5.0-3.2-1.2-1.35","60f19a691466276fe085b461","not_provided","desktop","1","1","1","","","","","","working_memory","","null","<img class='a' src=images/squares/orange.png><img class='e' src=images/squares/blue.png><img class='i' src=images/squares/red.png><img class='l' src=images/squares/yellow.png><div class=""fixation"">+</div>","null","","","memory","practice","35","4","","","","","","","","","","",""
"html-keyboard-response","190","485342","0.0-5.0-3.2-1.2-2.35","60f19a691466276fe085b461","not_provided","desktop","1","1","1","","","","","","working_memory","","null","<div class=""fixation"">+</div>","null","","","","","","","","","","","","","","","","",""
"html-keyboard-response","191","486411","0.0-5.0-3.2-1.2-3.35","60f19a691466276fe085b461","not_provided","desktop","1","1","1","","","","","","working_memory","","1067","<img class='i' src=images/squares/cyan.png><div class=""fixation"">+</div>","k","","","test","practice","35","4","s","false","","","","","","","","",""
"html-keyboard-response","192","486922","0.0-5.0-3.2-1.2-4.35","60f19a691466276fe085b461","not_provided","desktop","1","1","1","","","","","","working_memory","","null","<div class=""fixation"">Incorrect</div>","null","","","","","","","","","","","","","","","","",""
"html-keyboard-response","193","487930","0.0-5.0-3.2-1.2-0.36","60f19a691466276fe085b461","not_provided","desktop","1","1","1","","","","","","working_memory","","null","<div class=""fixation"">+</div>","null","","","","","","","","","","","","","","","","",""
"html-keyboard-response","194","488139","0.0-5.0-3.2-1.2-1.36","60f19a691466276fe085b461","not_provided","desktop","1","1","1","","","","","","working_memory","","null","<img class='a' src=images/squares/green.png><img class='c' src=images/squares/orange.png><img class='e' src=images/squares/cyan.png><img class='d' src=images/squares/magenta.png><img class='g' src=images/squares/red.png><img class='h' src=images/squares/black.png><img class='k' src=images/squares/brown.png><img class='l' src=images/squares/yellow.png><div class=""fixation"">+</div>","null","","","memory","practice","36","8","","","","","","","","","","",""
"html-keyboard-response","195","489058","0.0-5.0-3.2-1.2-2.36","60f19a691466276fe085b461","not_provided","desktop","1","1","1","","","","","","working_memory","","null","<div class=""fixation"">+</div>","null","","","","","","","","","","","","","","","","",""
"html-keyboard-response","196","489966","0.0-5.0-3.2-1.2-3.36","60f19a691466276fe085b461","not_provided","desktop","1","1","1","","","","","","working_memory","","907","<img class='a' src=images/squares/green.png><div class=""fixation"">+</div>","s","","","test","practice","36","8","k","false","","","","","","","","",""
"html-keyboard-response","197","490472","0.0-5.0-3.2-1.2-4.36","60f19a691466276fe085b461","not_provided","desktop","1","1","1","","","","","","working_memory","","null","<div class=""fixation"">Incorrect</div>","null","","","","","","","","","","","","","","","","",""
"html-keyboard-response","198","491480","0.0-5.0-3.2-1.2-0.37","60f19a691466276fe085b461","not_provided","desktop","1","1","1","","","","","","working_memory","","null","<div class=""fixation"">+</div>","null","","","","","","","","","","","","","","","","",""
"html-keyboard-response","199","491689","0.0-5.0-3.2-1.2-1.37","60f19a691466276fe085b461","not_provided","desktop","1","1","1","","","","","","working_memory","","null","<img class='lower1' src=images/squares/red.png><div class=""fixation"">+</div>","null","","","memory","practice","37","1","","","","","","","","","","",""
"html-keyboard-response","200","492597","0.0-5.0-3.2-1.2-2.37","60f19a691466276fe085b461","not_provided","desktop","1","1","1","","","","","","working_memory","","null","<div class=""fixation"">+</div>","null","","","","","","","","","","","","","","","","",""
"html-keyboard-response","201","493564","0.0-5.0-3.2-1.2-3.37","60f19a691466276fe085b461","not_provided","desktop","1","1","1","","","","","","working_memory","","966","<img class='lower1' src=images/squares/orange.png><div class=""fixation"">+</div>","k","","","test","practice","37","1","s","false","","","","","","","","",""
"html-keyboard-response","202","494075","0.0-5.0-3.2-1.2-4.37","60f19a691466276fe085b461","not_provided","desktop","1","1","1","","","","","","working_memory","","null","<div class=""fixation"">Incorrect</div>","null","","","","","","","","","","","","","","","","",""
"html-keyboard-response","203","495091","0.0-5.0-3.2-1.2-0.38","60f19a691466276fe085b461","not_provided","desktop","1","1","1","","","","","","working_memory","","null","<div class=""fixation"">+</div>","null","","","","","","","","","","","","","","","","",""
"html-keyboard-response","204","495293","0.0-5.0-3.2-1.2-1.38","60f19a691466276fe085b461","not_provided","desktop","1","1","1","","","","","","working_memory","","null","<img class='c' src=images/squares/red.png><img class='b' src=images/squares/orange.png><img class='d' src=images/squares/blue.png><img class='e' src=images/squares/green.png><img class='g' src=images/squares/brown.png><img class='h' src=images/squares/cyan.png><img class='j' src=images/squares/black.png><img class='l' src=images/squares/magenta.png><div class=""fixation"">+</div>","null","","","memory","practice","38","8","","","","","","","","","","",""
"html-keyboard-response","205","496197","0.0-5.0-3.2-1.2-2.38","60f19a691466276fe085b461","not_provided","desktop","1","1","1","","","","","","working_memory","","null","<div class=""fixation"">+</div>","null","","","","","","","","","","","","","","","","",""
"html-keyboard-response","206","497267","0.0-5.0-3.2-1.2-3.38","60f19a691466276fe085b461","not_provided","desktop","1","1","1","","","","","","working_memory","","1069","<img class='j' src=images/squares/yellow.png><div class=""fixation"">+</div>","k","","","test","practice","38","8","s","false","","","","","","","","",""
"html-keyboard-response","207","497773","0.0-5.0-3.2-1.2-4.38","60f19a691466276fe085b461","not_provided","desktop","1","1","1","","","","","","working_memory","","null","<div class=""fixation"">Incorrect</div>","null","","","","","","","","","","","","","","","","",""
"html-keyboard-response","208","498790","0.0-5.0-3.2-1.2-0.39","60f19a691466276fe085b461","not_provided","desktop","1","1","1","","","","","","working_memory","","null","<div class=""fixation"">+</div>","null","","","","","","","","","","","","","","","","",""
"html-keyboard-response","209","499006","0.0-5.0-3.2-1.2-1.39","60f19a691466276fe085b461","not_provided","desktop","1","1","1","","","","","","working_memory","","null","<img class='c' src=images/squares/green.png><img class='a' src=images/squares/blue.png><img class='f' src=images/squares/magenta.png><img class='e' src=images/squares/red.png><img class='i' src=images/squares/black.png><img class='g' src=images/squares/orange.png><img class='j' src=images/squares/cyan.png><img class='k' src=images/squares/yellow.png><div class=""fixation"">+</div>","null","","","memory","practice","39","8","","","","","","","","","","",""
"html-keyboard-response","210","499914","0.0-5.0-3.2-1.2-2.39","60f19a691466276fe085b461","not_provided","desktop","1","1","1","","","","","","working_memory","","null","<div class=""fixation"">+</div>","null","","","","","","","","","","","","","","","","",""
"html-keyboard-response","211","501548","0.0-5.0-3.2-1.2-3.39","60f19a691466276fe085b461","not_provided","desktop","1","1","1","","","","","","working_memory","","1633","<img class='e' src=images/squares/brown.png><div class=""fixation"">+</div>","s","","","test","practice","39","8","s","true","","","","","","","","",""
"html-keyboard-response","212","502055","0.0-5.0-3.2-1.2-4.39","60f19a691466276fe085b461","not_provided","desktop","1","1","1","","","","","","working_memory","","null","<div class=""fixation"">Correct</div>","null","","","","","","","","","","","","","","","","",""
"html-keyboard-response","213","503075","0.0-5.0-3.2-1.2-0.40","60f19a691466276fe085b461","not_provided","desktop","1","1","1","","","","","","working_memory","","null","<div class=""fixation"">+</div>","null","","","","","","","","","","","","","","","","",""
"html-keyboard-response","214","503281","0.0-5.0-3.2-1.2-1.40","60f19a691466276fe085b461","not_provided","desktop","1","1","1","","","","","","working_memory","","null","<img class='c' src=images/squares/green.png><img class='b' src=images/squares/brown.png><img class='f' src=images/squares/magenta.png><img class='d' src=images/squares/orange.png><img class='g' src=images/squares/cyan.png><img class='h' src=images/squares/red.png><img class='j' src=images/squares/black.png><img class='k' src=images/squares/yellow.png><div class=""fixation"">+</div>","null","","","memory","practice","40","8","","","","","","","","","","",""
"html-keyboard-response","215","504194","0.0-5.0-3.2-1.2-2.40","60f19a691466276fe085b461","not_provided","desktop","1","1","1","","","","","","working_memory","","null","<div class=""fixation"">+</div>","null","","","","","","","","","","","","","","","","",""
"html-keyboard-response","216","504653","0.0-5.0-3.2-1.2-3.40","60f19a691466276fe085b461","not_provided","desktop","1","1","1","","","","","","working_memory","","457","<img class='g' src=images/squares/cyan.png><div class=""fixation"">+</div>","s","","","test","practice","40","8","k","false","","","","","","","","",""
"html-keyboard-response","217","505158","0.0-5.0-3.2-1.2-4.40","60f19a691466276fe085b461","not_provided","desktop","1","1","1","","","","","","working_memory","","null","<div class=""fixation"">Incorrect</div>","null","","","","","","","","","","","","","","","","",""
"html-keyboard-response","218","506167","0.0-5.0-3.2-1.2-0.41","60f19a691466276fe085b461","not_provided","desktop","1","1","1","","","","","","working_memory","","null","<div class=""fixation"">+</div>","null","","","","","","","","","","","","","","","","",""
"html-keyboard-response","219","506372","0.0-5.0-3.2-1.2-1.41","60f19a691466276fe085b461","not_provided","desktop","1","1","1","","","","","","working_memory","","null","<img class='lower2' src=images/squares/green.png><div class=""fixation"">+</div>","null","","","memory","practice","41","1","","","","","","","","","","",""
"html-keyboard-response","220","507277","0.0-5.0-3.2-1.2-2.41","60f19a691466276fe085b461","not_provided","desktop","1","1","1","","","","","","working_memory","","null","<div class=""fixation"">+</div>","null","","","","","","","","","","","","","","","","",""
"html-keyboard-response","221","509517","0.0-5.0-3.2-1.2-3.41","60f19a691466276fe085b461","not_provided","desktop","1","1","1","","","","","","working_memory","","2238","<img class='lower2' src=images/squares/black.png><div class=""fixation"">+</div>","k","","","test","practice","41","1","s","false","","","","","","","","",""
"html-keyboard-response","222","510026","0.0-5.0-3.2-1.2-4.41","60f19a691466276fe085b461","not_provided","desktop","1","1","1","","","","","","working_memory","","null","<div class=""fixation"">Incorrect</div>","null","","","","","","","","","","","","","","","","",""
"html-keyboard-response","223","511032","0.0-5.0-3.2-1.2-0.42","60f19a691466276fe085b461","not_provided","desktop","1","1","1","","","","","","working_memory","","null","<div class=""fixation"">+</div>","null","","","","","","","","","","","","","","","","",""
"html-keyboard-response","224","511244","0.0-5.0-3.2-1.2-1.42","60f19a691466276fe085b461","not_provided","desktop","1","1","1","","","","","","working_memory","","null","<img class='upper2' src=images/squares/green.png><div class=""fixation"">+</div>","null","","","memory","practice","42","1","","","","","","","","","","",""
"html-keyboard-response","225","512163","0.0-5.0-3.2-1.2-2.42","60f19a691466276fe085b461","not_provided","desktop","1","1","1","","","","","","working_memory","","null","<div class=""fixation"">+</div>","null","","","","","","","","","","","","","","","","",""
"html-keyboard-response","226","514550","0.0-5.0-3.2-1.2-3.42","60f19a691466276fe085b461","not_provided","desktop","1","1","1","","","","","","working_memory","","2386","<img class='upper2' src=images/squares/orange.png><div class=""fixation"">+</div>","k","","","test","practice","42","1","s","false","","","","","","","","",""
"html-keyboard-response","227","515061","0.0-5.0-3.2-1.2-4.42","60f19a691466276fe085b461","not_provided","desktop","1","1","1","","","","","","working_memory","","null","<div class=""fixation"">Incorrect</div>","null","","","","","","","","","","","","","","","","",""
"html-keyboard-response","228","516075","0.0-5.0-3.2-1.2-0.43","60f19a691466276fe085b461","not_provided","desktop","1","1","1","","","","","","working_memory","","null","<div class=""fixation"">+</div>","null","","","","","","","","","","","","","","","","",""
"html-keyboard-response","229","516295","0.0-5.0-3.2-1.2-1.43","60f19a691466276fe085b461","not_provided","desktop","1","1","1","","","","","","working_memory","","null","<img class='a' src=images/squares/yellow.png><img class='b' src=images/squares/brown.png><img class='f' src=images/squares/red.png><img class='e' src=images/squares/black.png><img class='g' src=images/squares/blue.png><img class='i' src=images/squares/cyan.png><img class='j' src=images/squares/magenta.png><img class='l' src=images/squares/orange.png><div class=""fixation"">+</div>","null","","","memory","practice","43","8","","","","","","","","","","",""
"html-keyboard-response","230","517199","0.0-5.0-3.2-1.2-2.43","60f19a691466276fe085b461","not_provided","desktop","1","1","1","","","","","","working_memory","","null","<div class=""fixation"">+</div>","null","","","","","","","","","","","","","","","","",""
"html-keyboard-response","231","518147","0.0-5.0-3.2-1.2-3.43","60f19a691466276fe085b461","not_provided","desktop","1","1","1","","","","","","working_memory","","948","<img class='j' src=images/squares/magenta.png><div class=""fixation"">+</div>","s","","","test","practice","43","8","k","false","","","","","","","","",""
"html-keyboard-response","232","518658","0.0-5.0-3.2-1.2-4.43","60f19a691466276fe085b461","not_provided","desktop","1","1","1","","","","","","working_memory","","null","<div class=""fixation"">Incorrect</div>","null","","","","","","","","","","","","","","","","",""
"html-keyboard-response","233","519674","0.0-5.0-3.2-1.2-0.44","60f19a691466276fe085b461","not_provided","desktop","1","1","1","","","","","","working_memory","","null","<div class=""fixation"">+</div>","null","","","","","","","","","","","","","","","","",""
"html-keyboard-response","234","519882","0.0-5.0-3.2-1.2-1.44","60f19a691466276fe085b461","not_provided","desktop","1","1","1","","","","","","working_memory","","null","<img class='a' src=images/squares/red.png><img class='e' src=images/squares/black.png><img class='h' src=images/squares/cyan.png><img class='j' src=images/squares/yellow.png><div class=""fixation"">+</div>","null","","","memory","practice","44","4","","","","","","","","","","",""
"html-keyboard-response","235","520791","0.0-5.0-3.2-1.2-2.44","60f19a691466276fe085b461","not_provided","desktop","1","1","1","","","","","","working_memory","","null","<div class=""fixation"">+</div>","null","","","","","","","","","","","","","","","","",""
"html-keyboard-response","236","521417","0.0-5.0-3.2-1.2-3.44","60f19a691466276fe085b461","not_provided","desktop","1","1","1","","","","","","working_memory","","624","<img class='j' src=images/squares/yellow.png><div class=""fixation"">+</div>","s","","","test","practice","44","4","k","false","","","","","","","","",""
"html-keyboard-response","237","521924","0.0-5.0-3.2-1.2-4.44","60f19a691466276fe085b461","not_provided","desktop","1","1","1","","","","","","working_memory","","null","<div class=""fixation"">Incorrect</div>","null","","","","","","","","","","","","","","","","",""
"html-keyboard-response","238","523301","0.0-5.0-3.2-2.2-0.2","60f19a691466276fe085b461","not_provided","desktop","1","1","1","","","","","","working_memory","","1375","<p>Sorry. You made too many mistakes.<br>Let's do the practice session once again.<br><br><b>Press any key to continue</b></p>"," ","","","","","","","","","","","","","","","","",""
"html-keyboard-response","239","536804","0.0-5.0-3.3-0.3","60f19a691466276fe085b461","not_provided","desktop","1","1","1","","","","","","working_memory","","13502","<p>We will now start some practice trials.<br><b>The practice trials will also include some trials in which you will need to remember only one square to make sure you understood the instructions.</b><br>You may already want to be ready with your fingers on '<b>s</b>' and '<b>k</b>'.<br><img class=""wm-example-img"" src=""images/examples/keyboard.png""><br><b style=""font-size:1.2em;"">&lsquo;K&rsquo; = SAME &nbsp;&nbsp;&nbsp; &lsquo;S&rsquo; = DIFFERENT</b><br><br><u>Please try to be as accurate as possible.</u><br><br><b>Press any key to begin</b></p>"," ","","","","","","","","","","","","","","","","",""
"html-keyboard-response","240","538831","0.0-5.0-3.3-1.3-0.45","60f19a691466276fe085b461","not_provided","desktop","1","1","1","","","","","","working_memory","","null","<div class=""fixation"">+</div>","null","","","","","","","","","","","","","","","","",""
"html-keyboard-response","241","539042","0.0-5.0-3.3-1.3-1.45","60f19a691466276fe085b461","not_provided","desktop","1","1","1","","","","","","working_memory","","null","<img class='upper1' src=images/squares/red.png><div class=""fixation"">+</div>","null","","","memory","practice","45","1","","","","","","","","","","",""
"html-keyboard-response","242","539961","0.0-5.0-3.3-1.3-2.45","60f19a691466276fe085b461","not_provided","desktop","1","1","1","","","","","","working_memory","","null","<div class=""fixation"">+</div>","null","","","","","","","","","","","","","","","","",""
"html-keyboard-response","243","545967","0.0-5.0-3.3-1.3-3.45","60f19a691466276fe085b461","not_provided","desktop","1","1","1","","","","","","working_memory","","null","<img class='upper1' src=images/squares/orange.png><div class=""fixation"">+</div>","null","","","test","practice","45","1","s","null","","","","","","","","",""
"html-keyboard-response","244","546479","0.0-5.0-3.3-1.3-4.45","60f19a691466276fe085b461","not_provided","desktop","1","1","1","","","","","","working_memory","","null","<div class=""fixation"">Please respond faster</div>","null","","","","","","","","","","","","","","","","",""
"html-keyboard-response","245","547484","0.0-5.0-3.3-1.3-0.46","60f19a691466276fe085b461","not_provided","desktop","1","1","1","","","","","","working_memory","","null","<div class=""fixation"">+</div>","null","","","","","","","","","","","","","","","","",""
"html-keyboard-response","246","547699","0.0-5.0-3.3-1.3-1.46","60f19a691466276fe085b461","not_provided","desktop","1","1","1","","","","","","working_memory","","null","<img class='upper2' src=images/squares/black.png><div class=""fixation"">+</div>","null","","","memory","practice","46","1","","","","","","","","","","",""
"html-keyboard-response","247","548603","0.0-5.0-3.3-1.3-2.46","60f19a691466276fe085b461","not_provided","desktop","1","1","1","","","","","","working_memory","","null","<div class=""fixation"">+</div>","null","","","","","","","","","","","","","","","","",""
"html-keyboard-response","248","550097","0.0-5.0-3.3-1.3-3.46","60f19a691466276fe085b461","not_provided","desktop","1","1","1","","","","","","working_memory","","1493","<img class='upper2' src=images/squares/black.png><div class=""fixation"">+</div>","k","","","test","practice","46","1","k","true","","","","","","","","",""
"html-keyboard-response","249","550610","0.0-5.0-3.3-1.3-4.46","60f19a691466276fe085b461","not_provided","desktop","1","1","1","","","","","","working_memory","","null","<div class=""fixation"">Correct</div>","null","","","","","","","","","","","","","","","","",""
"html-keyboard-response","250","551618","0.0-5.0-3.3-1.3-0.47","60f19a691466276fe085b461","not_provided","desktop","1","1","1","","","","","","working_memory","","null","<div class=""fixation"">+</div>","null","","","","","","","","","","","","","","","","",""
"html-keyboard-response","251","551827","0.0-5.0-3.3-1.3-1.47","60f19a691466276fe085b461","not_provided","desktop","1","1","1","","","","","","working_memory","","null","<img class='c' src=images/squares/blue.png><img class='a' src=images/squares/yellow.png><img class='e' src=images/squares/green.png><img class='f' src=images/squares/black.png><img class='g' src=images/squares/brown.png><img class='h' src=images/squares/orange.png><img class='k' src=images/squares/red.png><img class='j' src=images/squares/magenta.png><div class=""fixation"">+</div>","null","","","memory","practice","47","8","","","","","","","","","","",""
"html-keyboard-response","252","552743","0.0-5.0-3.3-1.3-2.47","60f19a691466276fe085b461","not_provided","desktop","1","1","1","","","","","","working_memory","","null","<div class=""fixation"">+</div>","null","","","","","","","","","","","","","","","","",""
"html-keyboard-response","253","553556","0.0-5.0-3.3-1.3-3.47","60f19a691466276fe085b461","not_provided","desktop","1","1","1","","","","","","working_memory","","812","<img class='h' src=images/squares/orange.png><div class=""fixation"">+</div>","k","","","test","practice","47","8","k","true","","","","","","","","",""
"html-keyboard-response","254","554062","0.0-5.0-3.3-1.3-4.47","60f19a691466276fe085b461","not_provided","desktop","1","1","1","","","","","","working_memory","","null","<div class=""fixation"">Correct</div>","null","","","","","","","","","","","","","","","","",""
"html-keyboard-response","255","555072","0.0-5.0-3.3-1.3-0.48","60f19a691466276fe085b461","not_provided","desktop","1","1","1","","","","","","working_memory","","null","<div class=""fixation"">+</div>","null","","","","","","","","","","","","","","","","",""
"html-keyboard-response","256","555297","0.0-5.0-3.3-1.3-1.48","60f19a691466276fe085b461","not_provided","desktop","1","1","1","","","","","","working_memory","","null","<img class='c' src=images/squares/yellow.png><img class='d' src=images/squares/red.png><img class='h' src=images/squares/green.png><img class='l' src=images/squares/magenta.png><div class=""fixation"">+</div>","null","","","memory","practice","48","4","","","","","","","","","","",""
"html-keyboard-response","257","556198","0.0-5.0-3.3-1.3-2.48","60f19a691466276fe085b461","not_provided","desktop","1","1","1","","","","","","working_memory","","null","<div class=""fixation"">+</div>","null","","","","","","","","","","","","","","","","",""
"html-keyboard-response","258","561805","0.0-5.0-3.3-1.3-3.48","60f19a691466276fe085b461","not_provided","desktop","1","1","1","","","","","","working_memory","","5606","<img class='h' src=images/squares/brown.png><div class=""fixation"">+</div>","k","","","test","practice","48","4","s","false","","","","","","","","",""
"html-keyboard-response","259","562312","0.0-5.0-3.3-1.3-4.48","60f19a691466276fe085b461","not_provided","desktop","1","1","1","","","","","","working_memory","","null","<div class=""fixation"">Incorrect</div>","null","","","","","","","","","","","","","","","","",""
"html-keyboard-response","260","563319","0.0-5.0-3.3-1.3-0.49","60f19a691466276fe085b461","not_provided","desktop","1","1","1","","","","","","working_memory","","null","<div class=""fixation"">+</div>","null","","","","","","","","","","","","","","","","",""
"html-keyboard-response","261","563528","0.0-5.0-3.3-1.3-1.49","60f19a691466276fe085b461","not_provided","desktop","1","1","1","","","","","","working_memory","","null","<img class='b' src=images/squares/orange.png><img class='d' src=images/squares/yellow.png><img class='h' src=images/squares/green.png><img class='k' src=images/squares/cyan.png><div class=""fixation"">+</div>","null","","","memory","practice","49","4","","","","","","","","","","",""
"html-keyboard-response","262","564444","0.0-5.0-3.3-1.3-2.49","60f19a691466276fe085b461","not_provided","desktop","1","1","1","","","","","","working_memory","","null","<div class=""fixation"">+</div>","null","","","","","","","","","","","","","","","","",""
"html-keyboard-response","263","565126","0.0-5.0-3.3-1.3-3.49","60f19a691466276fe085b461","not_provided","desktop","1","1","1","","","","","","working_memory","","680","<img class='h' src=images/squares/green.png><div class=""fixation"">+</div>","s","","","test","practice","49","4","k","false","","","","","","","","",""
"html-keyboard-response","264","565628","0.0-5.0-3.3-1.3-4.49","60f19a691466276fe085b461","not_provided","desktop","1","1","1","","","","","","working_memory","","null","<div class=""fixation"">Incorrect</div>","null","","","","","","","","","","","","","","","","",""
"html-keyboard-response","265","566644","0.0-5.0-3.3-1.3-0.50","60f19a691466276fe085b461","not_provided","desktop","1","1","1","","","","","","working_memory","","null","<div class=""fixation"">+</div>","null","","","","","","","","","","","","","","","","",""
"html-keyboard-response","266","566852","0.0-5.0-3.3-1.3-1.50","60f19a691466276fe085b461","not_provided","desktop","1","1","1","","","","","","working_memory","","null","<img class='b' src=images/squares/red.png><img class='e' src=images/squares/yellow.png><img class='g' src=images/squares/magenta.png><img class='j' src=images/squares/blue.png><div class=""fixation"">+</div>","null","","","memory","practice","50","4","","","","","","","","","","",""
"html-keyboard-response","267","567758","0.0-5.0-3.3-1.3-2.50","60f19a691466276fe085b461","not_provided","desktop","1","1","1","","","","","","working_memory","","null","<div class=""fixation"">+</div>","null","","","","","","","","","","","","","","","","",""
"html-keyboard-response","268","569176","0.0-5.0-3.3-1.3-3.50","60f19a691466276fe085b461","not_provided","desktop","1","1","1","","","","","","working_memory","","1416","<img class='j' src=images/squares/black.png><div class=""fixation"">+</div>","s","","","test","practice","50","4","s","true","","","","","","","","",""
"html-keyboard-response","269","569686","0.0-5.0-3.3-1.3-4.50","60f19a691466276fe085b461","not_provided","desktop","1","1","1","","","","","","working_memory","","null","<div class=""fixation"">Correct</div>","null","","","","","","","","","","","","","","","","",""
"html-keyboard-response","270","570695","0.0-5.0-3.3-1.3-0.51","60f19a691466276fe085b461","not_provided","desktop","1","1","1","","","","","","working_memory","","null","<div class=""fixation"">+</div>","null","","","","","","","","","","","","","","","","",""
"html-keyboard-response","271","570911","0.0-5.0-3.3-1.3-1.51","60f19a691466276fe085b461","not_provided","desktop","1","1","1","","","","","","working_memory","","null","<img class='a' src=images/squares/yellow.png><img class='b' src=images/squares/green.png><img class='f' src=images/squares/brown.png><img class='e' src=images/squares/blue.png><img class='g' src=images/squares/red.png><img class='i' src=images/squares/magenta.png><img class='k' src=images/squares/cyan.png><img class='l' src=images/squares/orange.png><div class=""fixation"">+</div>","null","","","memory","practice","51","8","","","","","","","","","","",""
"html-keyboard-response","272","571828","0.0-5.0-3.3-1.3-2.51","60f19a691466276fe085b461","not_provided","desktop","1","1","1","","","","","","working_memory","","null","<div class=""fixation"">+</div>","null","","","","","","","","","","","","","","","","",""
"html-keyboard-response","273","572455","0.0-5.0-3.3-1.3-3.51","60f19a691466276fe085b461","not_provided","desktop","1","1","1","","","","","","working_memory","","625","<img class='f' src=images/squares/brown.png><div class=""fixation"">+</div>","s","","","test","practice","51","8","k","false","","","","","","","","",""
"html-keyboard-response","274","572962","0.0-5.0-3.3-1.3-4.51","60f19a691466276fe085b461","not_provided","desktop","1","1","1","","","","","","working_memory","","null","<div class=""fixation"">Incorrect</div>","null","","","","","","","","","","","","","","","","",""
"html-keyboard-response","275","573978","0.0-5.0-3.3-1.3-0.52","60f19a691466276fe085b461","not_provided","desktop","1","1","1","","","","","","working_memory","","null","<div class=""fixation"">+</div>","null","","","","","","","","","","","","","","","","",""
"html-keyboard-response","276","574182","0.0-5.0-3.3-1.3-1.52","60f19a691466276fe085b461","not_provided","desktop","1","1","1","","","","","","working_memory","","null","<img class='upper1' src=images/squares/black.png><div class=""fixation"">+</div>","null","","","memory","practice","52","1","","","","","","","","","","",""
"html-keyboard-response","277","575097","0.0-5.0-3.3-1.3-2.52","60f19a691466276fe085b461","not_provided","desktop","1","1","1","","","","","","working_memory","","null","<div class=""fixation"">+</div>","null","","","","","","","","","","","","","","","","",""
"html-keyboard-response","278","576346","0.0-5.0-3.3-1.3-3.52","60f19a691466276fe085b461","not_provided","desktop","1","1","1","","","","","","working_memory","","1248","<img class='upper1' src=images/squares/black.png><div class=""fixation"">+</div>","k","","","test","practice","52","1","k","true","","","","","","","","",""
"html-keyboard-response","279","576849","0.0-5.0-3.3-1.3-4.52","60f19a691466276fe085b461","not_provided","desktop","1","1","1","","","","","","working_memory","","null","<div class=""fixation"">Correct</div>","null","","","","","","","","","","","","","","","","",""
"html-keyboard-response","280","577862","0.0-5.0-3.3-1.3-0.53","60f19a691466276fe085b461","not_provided","desktop","1","1","1","","","","","","working_memory","","null","<div class=""fixation"">+</div>","null","","","","","","","","","","","","","","","","",""
"html-keyboard-response","281","578072","0.0-5.0-3.3-1.3-1.53","60f19a691466276fe085b461","not_provided","desktop","1","1","1","","","","","","working_memory","","null","<img class='upper2' src=images/squares/yellow.png><div class=""fixation"">+</div>","null","","","memory","practice","53","1","","","","","","","","","","",""
"html-keyboard-response","282","578979","0.0-5.0-3.3-1.3-2.53","60f19a691466276fe085b461","not_provided","desktop","1","1","1","","","","","","working_memory","","null","<div class=""fixation"">+</div>","null","","","","","","","","","","","","","","","","",""
"html-keyboard-response","283","579700","0.0-5.0-3.3-1.3-3.53","60f19a691466276fe085b461","not_provided","desktop","1","1","1","","","","","","working_memory","","720","<img class='upper2' src=images/squares/yellow.png><div class=""fixation"">+</div>","k","","","test","practice","53","1","k","true","","","","","","","","",""
"html-keyboard-response","284","580203","0.0-5.0-3.3-1.3-4.53","60f19a691466276fe085b461","not_provided","desktop","1","1","1","","","","","","working_memory","","null","<div class=""fixation"">Correct</div>","null","","","","","","","","","","","","","","","","",""
"html-keyboard-response","285","581212","0.0-5.0-3.3-1.3-0.54","60f19a691466276fe085b461","not_provided","desktop","1","1","1","","","","","","working_memory","","null","<div class=""fixation"">+</div>","null","","","","","","","","","","","","","","","","",""
"html-keyboard-response","286","581420","0.0-5.0-3.3-1.3-1.54","60f19a691466276fe085b461","not_provided","desktop","1","1","1","","","","","","working_memory","","null","<img class='upper3' src=images/squares/green.png><div class=""fixation"">+</div>","null","","","memory","practice","54","1","","","","","","","","","","",""
"html-keyboard-response","287","582329","0.0-5.0-3.3-1.3-2.54","60f19a691466276fe085b461","not_provided","desktop","1","1","1","","","","","","working_memory","","null","<div class=""fixation"">+</div>","null","","","","","","","","","","","","","","","","",""
"html-keyboard-response","288","582890","0.0-5.0-3.3-1.3-3.54","60f19a691466276fe085b461","not_provided","desktop","1","1","1","","","","","","working_memory","","559","<img class='upper3' src=images/squares/green.png><div class=""fixation"">+</div>","k","","","test","practice","54","1","k","true","","","","","","","","",""
"html-keyboard-response","289","583399","0.0-5.0-3.3-1.3-4.54","60f19a691466276fe085b461","not_provided","desktop","1","1","1","","","","","","working_memory","","null","<div class=""fixation"">Correct</div>","null","","","","","","","","","","","","","","","","",""
"html-keyboard-response","290","584408","0.0-5.0-3.3-1.3-0.55","60f19a691466276fe085b461","not_provided","desktop","1","1","1","","","","","","working_memory","","null","<div class=""fixation"">+</div>","null","","","","","","","","","","","","","","","","",""
"html-keyboard-response","291","584612","0.0-5.0-3.3-1.3-1.55","60f19a691466276fe085b461","not_provided","desktop","1","1","1","","","","","","working_memory","","null","<img class='c' src=images/squares/orange.png><img class='e' src=images/squares/magenta.png><img class='h' src=images/squares/cyan.png><img class='j' src=images/squares/brown.png><div class=""fixation"">+</div>","null","","","memory","practice","55","4","","","","","","","","","","",""
"html-keyboard-response","292","585520","0.0-5.0-3.3-1.3-2.55","60f19a691466276fe085b461","not_provided","desktop","1","1","1","","","","","","working_memory","","null","<div class=""fixation"">+</div>","null","","","","","","","","","","","","","","","","",""
"html-keyboard-response","293","586046","0.0-5.0-3.3-1.3-3.55","60f19a691466276fe085b461","not_provided","desktop","1","1","1","","","","","","working_memory","","525","<img class='e' src=images/squares/magenta.png><div class=""fixation"">+</div>","k","","","test","practice","55","4","k","true","","","","","","","","",""
"html-keyboard-response","294","586554","0.0-5.0-3.3-1.3-4.55","60f19a691466276fe085b461","not_provided","desktop","1","1","1","","","","","","working_memory","","null","<div class=""fixation"">Correct</div>","null","","","","","","","","","","","","","","","","",""
"html-keyboard-response","295","587582","0.0-5.0-3.3-1.3-0.56","60f19a691466276fe085b461","not_provided","desktop","1","1","1","","","","","","working_memory","","null","<div class=""fixation"">+</div>","null","","","","","","","","","","","","","","","","",""
"html-keyboard-response","296","587787","0.0-5.0-3.3-1.3-1.56","60f19a691466276fe085b461","not_provided","desktop","1","1","1","","","","","","working_memory","","null","<img class='upper3' src=images/squares/green.png><div class=""fixation"">+</div>","null","","","memory","practice","56","1","","","","","","","","","","",""
"html-keyboard-response","297","588696","0.0-5.0-3.3-1.3-2.56","60f19a691466276fe085b461","not_provided","desktop","1","1","1","","","","","","working_memory","","null","<div class=""fixation"">+</div>","null","","","","","","","","","","","","","","","","",""
"html-keyboard-response","298","589459","0.0-5.0-3.3-1.3-3.56","60f19a691466276fe085b461","not_provided","desktop","1","1","1","","","","","","working_memory","","761","<img class='upper3' src=images/squares/magenta.png><div class=""fixation"">+</div>","s","","","test","practice","56","1","s","true","","","","","","","","",""
"html-keyboard-response","299","589963","0.0-5.0-3.3-1.3-4.56","60f19a691466276fe085b461","not_provided","desktop","1","1","1","","","","","","working_memory","","null","<div class=""fixation"">Correct</div>","null","","","","","","","","","","","","","","","","",""
"html-keyboard-response","300","590971","0.0-5.0-3.3-1.3-0.57","60f19a691466276fe085b461","not_provided","desktop","1","1","1","","","","","","working_memory","","null","<div class=""fixation"">+</div>","null","","","","","","","","","","","","","","","","",""
"html-keyboard-response","301","591183","0.0-5.0-3.3-1.3-1.57","60f19a691466276fe085b461","not_provided","desktop","1","1","1","","","","","","working_memory","","null","<img class='b' src=images/squares/green.png><img class='f' src=images/squares/brown.png><img class='g' src=images/squares/magenta.png><img class='k' src=images/squares/black.png><div class=""fixation"">+</div>","null","","","memory","practice","57","4","","","","","","","","","","",""
"html-keyboard-response","302","592096","0.0-5.0-3.3-1.3-2.57","60f19a691466276fe085b461","not_provided","desktop","1","1","1","","","","","","working_memory","","null","<div class=""fixation"">+</div>","null","","","","","","","","","","","","","","","","",""
"html-keyboard-response","303","593653","0.0-5.0-3.3-1.3-3.57","60f19a691466276fe085b461","not_provided","desktop","1","1","1","","","","","","working_memory","","1556","<img class='b' src=images/squares/blue.png><div class=""fixation"">+</div>","s","","","test","practice","57","4","s","true","","","","","","","","",""
"html-keyboard-response","304","594165","0.0-5.0-3.3-1.3-4.57","60f19a691466276fe085b461","not_provided","desktop","1","1","1","","","","","","working_memory","","null","<div class=""fixation"">Correct</div>","null","","","","","","","","","","","","","","","","",""
"html-keyboard-response","305","595171","0.0-5.0-3.3-1.3-0.58","60f19a691466276fe085b461","not_provided","desktop","1","1","1","","","","","","working_memory","","null","<div class=""fixation"">+</div>","null","","","","","","","","","","","","","","","","",""
