"trial_type","trial_index","time_elapsed","internal_node_id","subject_id","study_id","device_type","blur_count","fullscreen_exit_count","failed_attention_checks","success","timeout","failed_images","failed_audio","failed_video","phase","value","rt","stimulus","response","view_history","question_order","trial_name","block_type","trial_num","set_size","correct_response","accuracy","mapping","condition","prompt","flipped","attention","expected_answer","category","question_index","task"
"pavlovia","0","1668","0.0-0.0","673caf90069aa7e3820136cc","not_provided","desktop","0","0","0","","","","","","","","","","","","","","","","","","","","","","","","","","",""
"preload","1","2906","0.0-2.0","673caf90069aa7e3820136cc","not_provided","desktop","0","0","0","true","false","[]","[]","[]","","","","","","","","","","","","","","","","","","","","","",""
"html-keyboard-response","2","16642","0.0-3.0-0.0","673caf90069aa7e3820136cc","not_provided","desktop","0","0","0","","","","","","captcha","","","","","","","","","","","","","","","","","","","","",""
"fullscreen","3","28230","0.0-4.0","673caf90069aa7e3820136cc","not_provided","desktop","0","0","0","true","","","","","setup","","","","","","","","","","","","","","","","","","","","",""
"call-function","4","28233","0.0-5.0-0.0","673caf90069aa7e3820136cc","not_provided","desktop","0","0","0","","","","","","working_memory","","","","","","","","","","","","","","","","","","","","",""
"html-keyboard-response","5","50618","0.0-5.0-1.0","673caf90069aa7e3820136cc","not_provided","desktop","0","0","0","","","","","","working_memory","","22382","<div style=""text-align:center;font-family:sans-serif;""><p>Welcome to the luck game experiment!</p><p>This two-day experiment takes part in a study aimed at developing better clinical treatments.</p><p>We appreciate your participation and require your full concentration.</p><br><p>This is a two-day study. Payment (£6/hour) is only given upon completing both parts today and tomorrow.</p><p>You must finish the second part for compensation. After today, you'll receive an invitation for tomorrow's session.</p><p>Please ensure you can attend both sessions before proceeding. Otherwise, you may exit now.</p><p>If you have any questions, please contact us via prolific.</p><br><p>Please stay attentive and in fullscreen mode to ensure payment.</p><p>Thank you for participating!</p><br><p id=""continue-prompt"" style=""visibility:hidden;""><b>Press any key to continue.</b></p></div>","unidentified","","","","","","","","","","","","","","","","",""
"instructions","6","128643","0.0-5.0-2.0-0.0","673caf90069aa7e3820136cc","not_provided","desktop","0","0","0","","","","","","working_memory","","78023","","","[{""page_index"":0,""viewing_time"":6945},{""page_index"":1,""viewing_time"":1412},{""page_index"":2,""viewing_time"":7852},{""page_index"":3,""viewing_time"":4249},{""page_index"":4,""viewing_time"":7479},{""page_index"":5,""viewing_time"":13326},{""page_index"":6,""viewing_time"":16200},{""page_index"":5,""viewing_time"":1431},{""page_index"":6,""viewing_time"":1433},{""page_index"":7,""viewing_time"":1366},{""page_index"":6,""viewing_time"":3770},{""page_index"":7,""viewing_time"":6161},{""page_index"":8,""viewing_time"":6398}]","","","","","","","","","","","","","","","",""
"survey-multi-choice","7","184476","0.0-5.0-2.0-1.0","673caf90069aa7e3820136cc","not_provided","desktop","0","0","0","","","","","","working_memory","","55827","","{""set_size"":""4 or 8"",""steps"":""True"",""choose_square"":""Press the 's' or 'k' key."",""remember"":""The color and location of the single 'test' square"",""task"":""To tell if the 'test' square is in the same color as the square previously appearing in this location""}","","[0,1,2,3,4]","test_squares_quiz","","","","","","","","","","","","","",""
"html-button-response","8","189743","0.0-5.0-2.0-2.0-0.0","673caf90069aa7e3820136cc","not_provided","desktop","0","0","0","","","","","","working_memory","","5264","<p>Sorry, you made a mistake on the quiz.<br>Let's go back to the instructions &mdash; please read carefully before submitting again.<br>Thank you!</p>","0","","","","","","","","","","","","","","","","",""
"instructions","9","230068","0.0-5.0-2.1-0.1","673caf90069aa7e3820136cc","not_provided","desktop","0","0","0","","","","","","working_memory","","40323","","","[{""page_index"":0,""viewing_time"":1640},{""page_index"":1,""viewing_time"":832},{""page_index"":2,""viewing_time"":968},{""page_index"":3,""viewing_time"":1947},{""page_index"":4,""viewing_time"":2678},{""page_index"":5,""viewing_time"":1022},{""page_index"":4,""viewing_time"":1093},{""page_index"":5,""viewing_time"":1234},{""page_index"":4,""viewing_time"":1483},{""page_index"":5,""viewing_time"":6163},{""page_index"":6,""viewing_time"":14326},{""page_index"":7,""viewing_time"":2901},{""page_index"":8,""viewing_time"":4036}]","","","","","","","","","","","","","","","",""
"survey-multi-choice","10","323510","0.0-5.0-2.1-1.1","673caf90069aa7e3820136cc","not_provided","desktop","0","0","0","","","","","","working_memory","","93438","","{""set_size"":""4 or 8"",""steps"":""True"",""choose_square"":""Press the 's' or 'k' key."",""remember"":""The colors and locations of the 'memory' squares"",""task"":""To tell if the 'test' square is in the same color as the square previously appearing in this location""}","","[0,1,2,3,4]","test_squares_quiz","","","","","","","","","","","","","",""
"html-keyboard-response","11","341924","0.0-5.0-3.0-0.0","673caf90069aa7e3820136cc","not_provided","desktop","0","0","0","","","","","","working_memory","","18411","<p>We will now start some practice trials.<br><b>The practice trials will also include some trials in which you will need to remember only one square to make sure you understood the instructions.</b><br>You may already want to be ready with your fingers on '<b>s</b>' and '<b>k</b>'.<br><img class=""wm-example-img"" src=""images/examples/keyboard.png""><br><b style=""font-size:1.2em;"">&lsquo;S&rsquo; = SAME &nbsp;&nbsp;&nbsp; &lsquo;K&rsquo; = DIFFERENT</b><br><br><u>Please try to be as accurate as possible.</u><br><br><b>Press any key to begin</b></p>"," ","","","","","","","","","","","","","","","","",""
"html-keyboard-response","12","343945","0.0-5.0-3.0-1.0-0.0","673caf90069aa7e3820136cc","not_provided","desktop","0","0","0","","","","","","working_memory","","null","<div class=""fixation"">+</div>","null","","","","","","","","","","","","","","","","",""
"html-keyboard-response","13","344159","0.0-5.0-3.0-1.0-1.0","673caf90069aa7e3820136cc","not_provided","desktop","0","0","0","","","","","","working_memory","","null","<img class='upper2' src=images/squares/blue.png><div class=""fixation"">+</div>","null","","","memory","practice","0","1","","","","","","","","","","",""
"html-keyboard-response","14","345070","0.0-5.0-3.0-1.0-2.0","673caf90069aa7e3820136cc","not_provided","desktop","0","0","0","","","","","","working_memory","","null","<div class=""fixation"">+</div>","null","","","","","","","","","","","","","","","","",""
"html-keyboard-response","15","347452","0.0-5.0-3.0-1.0-3.0","673caf90069aa7e3820136cc","not_provided","desktop","0","0","0","","","","","","working_memory","","2379","<img class='upper2' src=images/squares/yellow.png><div class=""fixation"">+</div>","k","","","test","practice","0","1","k","true","","","","","","","","",""
"html-keyboard-response","16","347956","0.0-5.0-3.0-1.0-4.0","673caf90069aa7e3820136cc","not_provided","desktop","0","0","0","","","","","","working_memory","","null","<div class=""fixation"">Correct</div>","null","","","","","","","","","","","","","","","","",""
"html-keyboard-response","17","348978","0.0-5.0-3.0-1.0-0.1","673caf90069aa7e3820136cc","not_provided","desktop","0","0","0","","","","","","working_memory","","null","<div class=""fixation"">+</div>","null","","","","","","","","","","","","","","","","",""
"html-keyboard-response","18","349185","0.0-5.0-3.0-1.0-1.1","673caf90069aa7e3820136cc","not_provided","desktop","0","0","0","","","","","","working_memory","","null","<img class='upper1' src=images/squares/brown.png><div class=""fixation"">+</div>","null","","","memory","practice","1","1","","","","","","","","","","",""
"html-keyboard-response","19","350097","0.0-5.0-3.0-1.0-2.1","673caf90069aa7e3820136cc","not_provided","desktop","0","0","0","","","","","","working_memory","","null","<div class=""fixation"">+</div>","null","","","","","","","","","","","","","","","","",""
"html-keyboard-response","20","350864","0.0-5.0-3.0-1.0-3.1","673caf90069aa7e3820136cc","not_provided","desktop","0","0","0","","","","","","working_memory","","764","<img class='upper1' src=images/squares/yellow.png><div class=""fixation"">+</div>","k","","","test","practice","1","1","k","true","","","","","","","","",""
"html-keyboard-response","21","351377","0.0-5.0-3.0-1.0-4.1","673caf90069aa7e3820136cc","not_provided","desktop","0","0","0","","","","","","working_memory","","null","<div class=""fixation"">Correct</div>","null","","","","","","","","","","","","","","","","",""
"html-keyboard-response","22","352381","0.0-5.0-3.0-1.0-0.2","673caf90069aa7e3820136cc","not_provided","desktop","0","0","0","","","","","","working_memory","","null","<div class=""fixation"">+</div>","null","","","","","","","","","","","","","","","","",""
"html-keyboard-response","23","352586","0.0-5.0-3.0-1.0-1.2","673caf90069aa7e3820136cc","not_provided","desktop","0","0","0","","","","","","working_memory","","null","<img class='lower1' src=images/squares/cyan.png><div class=""fixation"">+</div>","null","","","memory","practice","2","1","","","","","","","","","","",""
"html-keyboard-response","24","353495","0.0-5.0-3.0-1.0-2.2","673caf90069aa7e3820136cc","not_provided","desktop","0","0","0","","","","","","working_memory","","null","<div class=""fixation"">+</div>","null","","","","","","","","","","","","","","","","",""
"html-keyboard-response","25","354196","0.0-5.0-3.0-1.0-3.2","673caf90069aa7e3820136cc","not_provided","desktop","0","0","0","","","","","","working_memory","","698","<img class='lower1' src=images/squares/brown.png><div class=""fixation"">+</div>","k","","","test","practice","2","1","k","true","","","","","","","","",""
"html-keyboard-response","26","354704","0.0-5.0-3.0-1.0-4.2","673caf90069aa7e3820136cc","not_provided","desktop","0","0","0","","","","","","working_memory","","null","<div class=""fixation"">Correct</div>","null","","","","","","","","","","","","","","","","",""
"html-keyboard-response","27","355716","0.0-5.0-3.0-1.0-0.3","673caf90069aa7e3820136cc","not_provided","desktop","0","0","0","","","","","","working_memory","","null","<div class=""fixation"">+</div>","null","","","","","","","","","","","","","","","","",""
"html-keyboard-response","28","355929","0.0-5.0-3.0-1.0-1.3","673caf90069aa7e3820136cc","not_provided","desktop","0","0","0","","","","","","working_memory","","null","<img class='b' src=images/squares/yellow.png><img class='c' src=images/squares/blue.png><img class='d' src=images/squares/black.png><img class='f' src=images/squares/magenta.png><img class='h' src=images/squares/red.png><img class='g' src=images/squares/orange.png><img class='k' src=images/squares/cyan.png><img class='j' src=images/squares/brown.png><div class=""fixation"">+</div>","null","","","memory","practice","3","8","","","","","","","","","","",""
"html-keyboard-response","29","356843","0.0-5.0-3.0-1.0-2.3","673caf90069aa7e3820136cc","not_provided","desktop","0","0","0","","","","","","working_memory","","null","<div class=""fixation"">+</div>","null","","","","","","","","","","","","","","","","",""
"html-keyboard-response","30","357869","0.0-5.0-3.0-1.0-3.3","673caf90069aa7e3820136cc","not_provided","desktop","0","0","0","","","","","","working_memory","","1024","<img class='d' src=images/squares/black.png><div class=""fixation"">+</div>","k","","","test","practice","3","8","s","false","","","","","","","","",""
"html-keyboard-response","31","358379","0.0-5.0-3.0-1.0-4.3","673caf90069aa7e3820136cc","not_provided","desktop","0","0","0","","","","","","working_memory","","null","<div class=""fixation"">Incorrect</div>","null","","","","","","","","","","","","","","","","",""
"html-keyboard-response","32","359390","0.0-5.0-3.0-1.0-0.4","673caf90069aa7e3820136cc","not_provided","desktop","0","0","0","","","","","","working_memory","","null","<div class=""fixation"">+</div>","null","","","","","","","","","","","","","","","","",""
"html-keyboard-response","33","359597","0.0-5.0-3.0-1.0-1.4","673caf90069aa7e3820136cc","not_provided","desktop","0","0","0","","","","","","working_memory","","null","<img class='b' src=images/squares/black.png><img class='c' src=images/squares/cyan.png><img class='f' src=images/squares/brown.png><img class='e' src=images/squares/blue.png><img class='i' src=images/squares/magenta.png><img class='h' src=images/squares/green.png><img class='k' src=images/squares/orange.png><img class='l' src=images/squares/red.png><div class=""fixation"">+</div>","null","","","memory","practice","4","8","","","","","","","","","","",""
"html-keyboard-response","34","360508","0.0-5.0-3.0-1.0-2.4","673caf90069aa7e3820136cc","not_provided","desktop","0","0","0","","","","","","working_memory","","null","<div class=""fixation"">+</div>","null","","","","","","","","","","","","","","","","",""
"html-keyboard-response","35","361488","0.0-5.0-3.0-1.0-3.4","673caf90069aa7e3820136cc","not_provided","desktop","0","0","0","","","","","","working_memory","","977","<img class='c' src=images/squares/yellow.png><div class=""fixation"">+</div>","k","","","test","practice","4","8","k","true","","","","","","","","",""
"html-keyboard-response","36","361999","0.0-5.0-3.0-1.0-4.4","673caf90069aa7e3820136cc","not_provided","desktop","0","0","0","","","","","","working_memory","","null","<div class=""fixation"">Correct</div>","null","","","","","","","","","","","","","","","","",""
"html-keyboard-response","37","363008","0.0-5.0-3.0-1.0-0.5","673caf90069aa7e3820136cc","not_provided","desktop","0","0","0","","","","","","working_memory","","null","<div class=""fixation"">+</div>","null","","","","","","","","","","","","","","","","",""
"html-keyboard-response","38","363213","0.0-5.0-3.0-1.0-1.5","673caf90069aa7e3820136cc","not_provided","desktop","0","0","0","","","","","","working_memory","","null","<img class='b' src=images/squares/cyan.png><img class='f' src=images/squares/yellow.png><img class='h' src=images/squares/magenta.png><img class='j' src=images/squares/blue.png><div class=""fixation"">+</div>","null","","","memory","practice","5","4","","","","","","","","","","",""
"html-keyboard-response","39","364123","0.0-5.0-3.0-1.0-2.5","673caf90069aa7e3820136cc","not_provided","desktop","0","0","0","","","","","","working_memory","","null","<div class=""fixation"">+</div>","null","","","","","","","","","","","","","","","","",""
"html-keyboard-response","40","365177","0.0-5.0-3.0-1.0-3.5","673caf90069aa7e3820136cc","not_provided","desktop","0","0","0","","","","","","working_memory","","1051","<img class='b' src=images/squares/cyan.png><div class=""fixation"">+</div>","s","","","test","practice","5","4","s","true","","","","","","","","",""
"html-keyboard-response","41","365682","0.0-5.0-3.0-1.0-4.5","673caf90069aa7e3820136cc","not_provided","desktop","0","0","0","","","","","","working_memory","","null","<div class=""fixation"">Correct</div>","null","","","","","","","","","","","","","","","","",""
"html-keyboard-response","42","366698","0.0-5.0-3.0-1.0-0.6","673caf90069aa7e3820136cc","not_provided","desktop","0","0","0","","","","","","working_memory","","null","<div class=""fixation"">+</div>","null","","","","","","","","","","","","","","","","",""
"html-keyboard-response","43","366907","0.0-5.0-3.0-1.0-1.6","673caf90069aa7e3820136cc","not_provided","desktop","0","0","0","","","","","","working_memory","","null","<img class='a' src=images/squares/red.png><img class='d' src=images/squares/blue.png><img class='i' src=images/squares/brown.png><img class='k' src=images/squares/yellow.png><div class=""fixation"">+</div>","null","","","memory","practice","6","4","","","","","","","","","","",""
"html-keyboard-response","44","367816","0.0-5.0-3.0-1.0-2.6","673caf90069aa7e3820136cc","not_provided","desktop","0","0","0","","","","","","working_memory","","null","<div class=""fixation"">+</div>","null","","","","","","","","","","","","","","","","",""
"html-keyboard-response","45","368629","0.0-5.0-3.0-1.0-3.6","673caf90069aa7e3820136cc","not_provided","desktop","0","0","0","","","","","","working_memory","","810","<img class='k' src=images/squares/magenta.png><div class=""fixation"">+</div>","k","","","test","practice","6","4","k","true","","","","","","","","",""
"html-keyboard-response","46","369140","0.0-5.0-3.0-1.0-4.6","673caf90069aa7e3820136cc","not_provided","desktop","0","0","0","","","","","","working_memory","","null","<div class=""fixation"">Correct</div>","null","","","","","","","","","","","","","","","","",""
"html-keyboard-response","47","370143","0.0-5.0-3.0-1.0-0.7","673caf90069aa7e3820136cc","not_provided","desktop","0","0","0","","","","","","working_memory","","null","<div class=""fixation"">+</div>","null","","","","","","","","","","","","","","","","",""
"html-keyboard-response","48","370348","0.0-5.0-3.0-1.0-1.7","673caf90069aa7e3820136cc","not_provided","desktop","0","0","0","","","","","","working_memory","","null","<img class='b' src=images/squares/red.png><img class='c' src=images/squares/cyan.png><img class='f' src=images/squares/yellow.png><img class='d' src=images/squares/blue.png><img class='g' src=images/squares/magenta.png><img class='i' src=images/squares/orange.png><img class='k' src=images/squares/black.png><img class='l' src=images/squares/green.png><div class=""fixation"">+</div>","null","","","memory","practice","7","8","","","","","","","","","","",""
"html-keyboard-response","49","371264","0.0-5.0-3.0-1.0-2.7","673caf90069aa7e3820136cc","not_provided","desktop","0","0","0","","","","","","working_memory","","null","<div class=""fixation"">+</div>","null","","","","","","","","","","","","","","","","",""
"html-keyboard-response","50","372542","0.0-5.0-3.0-1.0-3.7","673caf90069aa7e3820136cc","not_provided","desktop","0","0","0","","","","","","working_memory","","1277","<img class='i' src=images/squares/orange.png><div class=""fixation"">+</div>","s","","","test","practice","7","8","s","true","","","","","","","","",""
"html-keyboard-response","51","373057","0.0-5.0-3.0-1.0-4.7","673caf90069aa7e3820136cc","not_provided","desktop","0","0","0","","","","","","working_memory","","null","<div class=""fixation"">Correct</div>","null","","","","","","","","","","","","","","","","",""
"html-keyboard-response","52","374065","0.0-5.0-3.0-1.0-0.8","673caf90069aa7e3820136cc","not_provided","desktop","0","0","0","","","","","","working_memory","","null","<div class=""fixation"">+</div>","null","","","","","","","","","","","","","","","","",""
"html-keyboard-response","53","374277","0.0-5.0-3.0-1.0-1.8","673caf90069aa7e3820136cc","not_provided","desktop","0","0","0","","","","","","working_memory","","null","<img class='upper2' src=images/squares/cyan.png><div class=""fixation"">+</div>","null","","","memory","practice","8","1","","","","","","","","","","",""
"html-keyboard-response","54","375183","0.0-5.0-3.0-1.0-2.8","673caf90069aa7e3820136cc","not_provided","desktop","0","0","0","","","","","","working_memory","","null","<div class=""fixation"">+</div>","null","","","","","","","","","","","","","","","","",""
"html-keyboard-response","55","375916","0.0-5.0-3.0-1.0-3.8","673caf90069aa7e3820136cc","not_provided","desktop","0","0","0","","","","","","working_memory","","731","<img class='upper2' src=images/squares/cyan.png><div class=""fixation"">+</div>","s","","","test","practice","8","1","s","true","","","","","","","","",""
"html-keyboard-response","56","376426","0.0-5.0-3.0-1.0-4.8","673caf90069aa7e3820136cc","not_provided","desktop","0","0","0","","","","","","working_memory","","null","<div class=""fixation"">Correct</div>","null","","","","","","","","","","","","","","","","",""
"html-keyboard-response","57","377428","0.0-5.0-3.0-1.0-0.9","673caf90069aa7e3820136cc","not_provided","desktop","0","0","0","","","","","","working_memory","","null","<div class=""fixation"">+</div>","null","","","","","","","","","","","","","","","","",""
"html-keyboard-response","58","377638","0.0-5.0-3.0-1.0-1.9","673caf90069aa7e3820136cc","not_provided","desktop","0","0","0","","","","","","working_memory","","null","<img class='a' src=images/squares/black.png><img class='d' src=images/squares/orange.png><img class='h' src=images/squares/blue.png><img class='k' src=images/squares/yellow.png><div class=""fixation"">+</div>","null","","","memory","practice","9","4","","","","","","","","","","",""
"html-keyboard-response","59","378548","0.0-5.0-3.0-1.0-2.9","673caf90069aa7e3820136cc","not_provided","desktop","0","0","0","","","","","","working_memory","","null","<div class=""fixation"">+</div>","null","","","","","","","","","","","","","","","","",""
"html-keyboard-response","60","380401","0.0-5.0-3.0-1.0-3.9","673caf90069aa7e3820136cc","not_provided","desktop","0","0","0","","","","","","working_memory","","1849","<img class='d' src=images/squares/orange.png><div class=""fixation"">+</div>","s","","","test","practice","9","4","s","true","","","","","","","","",""
"html-keyboard-response","61","380914","0.0-5.0-3.0-1.0-4.9","673caf90069aa7e3820136cc","not_provided","desktop","0","0","0","","","","","","working_memory","","null","<div class=""fixation"">Correct</div>","null","","","","","","","","","","","","","","","","",""
"html-keyboard-response","62","381929","0.0-5.0-3.0-1.0-0.10","673caf90069aa7e3820136cc","not_provided","desktop","0","0","0","","","","","","working_memory","","null","<div class=""fixation"">+</div>","null","","","","","","","","","","","","","","","","",""
"html-keyboard-response","63","382139","0.0-5.0-3.0-1.0-1.10","673caf90069aa7e3820136cc","not_provided","desktop","0","0","0","","","","","","working_memory","","null","<img class='a' src=images/squares/green.png><img class='f' src=images/squares/blue.png><img class='i' src=images/squares/magenta.png><img class='k' src=images/squares/orange.png><div class=""fixation"">+</div>","null","","","memory","practice","10","4","","","","","","","","","","",""
"html-keyboard-response","64","383049","0.0-5.0-3.0-1.0-2.10","673caf90069aa7e3820136cc","not_provided","desktop","0","0","0","","","","","","working_memory","","null","<div class=""fixation"">+</div>","null","","","","","","","","","","","","","","","","",""
"html-keyboard-response","65","383933","0.0-5.0-3.0-1.0-3.10","673caf90069aa7e3820136cc","not_provided","desktop","0","0","0","","","","","","working_memory","","882","<img class='f' src=images/squares/black.png><div class=""fixation"">+</div>","s","","","test","practice","10","4","k","false","","","","","","","","",""
"html-keyboard-response","66","384438","0.0-5.0-3.0-1.0-4.10","673caf90069aa7e3820136cc","not_provided","desktop","0","0","0","","","","","","working_memory","","null","<div class=""fixation"">Incorrect</div>","null","","","","","","","","","","","","","","","","",""
"html-keyboard-response","67","385449","0.0-5.0-3.0-1.0-0.11","673caf90069aa7e3820136cc","not_provided","desktop","0","0","0","","","","","","working_memory","","null","<div class=""fixation"">+</div>","null","","","","","","","","","","","","","","","","",""
"html-keyboard-response","68","385664","0.0-5.0-3.0-1.0-1.11","673caf90069aa7e3820136cc","not_provided","desktop","0","0","0","","","","","","working_memory","","null","<img class='c' src=images/squares/magenta.png><img class='d' src=images/squares/yellow.png><img class='i' src=images/squares/green.png><img class='k' src=images/squares/red.png><div class=""fixation"">+</div>","null","","","memory","practice","11","4","","","","","","","","","","",""
"html-keyboard-response","69","386570","0.0-5.0-3.0-1.0-2.11","673caf90069aa7e3820136cc","not_provided","desktop","0","0","0","","","","","","working_memory","","null","<div class=""fixation"">+</div>","null","","","","","","","","","","","","","","","","",""
"html-keyboard-response","70","387452","0.0-5.0-3.0-1.0-3.11","673caf90069aa7e3820136cc","not_provided","desktop","0","0","0","","","","","","working_memory","","880","<img class='c' src=images/squares/magenta.png><div class=""fixation"">+</div>","s","","","test","practice","11","4","s","true","","","","","","","","",""
"html-keyboard-response","71","387961","0.0-5.0-3.0-1.0-4.11","673caf90069aa7e3820136cc","not_provided","desktop","0","0","0","","","","","","working_memory","","null","<div class=""fixation"">Correct</div>","null","","","","","","","","","","","","","","","","",""
"html-keyboard-response","72","388962","0.0-5.0-3.0-1.0-0.12","673caf90069aa7e3820136cc","not_provided","desktop","0","0","0","","","","","","working_memory","","null","<div class=""fixation"">+</div>","null","","","","","","","","","","","","","","","","",""
"html-keyboard-response","73","389170","0.0-5.0-3.0-1.0-1.12","673caf90069aa7e3820136cc","not_provided","desktop","0","0","0","","","","","","working_memory","","null","<img class='lower1' src=images/squares/cyan.png><div class=""fixation"">+</div>","null","","","memory","practice","12","1","","","","","","","","","","",""
"html-keyboard-response","74","390087","0.0-5.0-3.0-1.0-2.12","673caf90069aa7e3820136cc","not_provided","desktop","0","0","0","","","","","","working_memory","","null","<div class=""fixation"">+</div>","null","","","","","","","","","","","","","","","","",""
"html-keyboard-response","75","390566","0.0-5.0-3.0-1.0-3.12","673caf90069aa7e3820136cc","not_provided","desktop","0","0","0","","","","","","working_memory","","476","<img class='lower1' src=images/squares/green.png><div class=""fixation"">+</div>","k","","","test","practice","12","1","k","true","","","","","","","","",""
"html-keyboard-response","76","391078","0.0-5.0-3.0-1.0-4.12","673caf90069aa7e3820136cc","not_provided","desktop","0","0","0","","","","","","working_memory","","null","<div class=""fixation"">Correct</div>","null","","","","","","","","","","","","","","","","",""
"html-keyboard-response","77","392084","0.0-5.0-3.0-1.0-0.13","673caf90069aa7e3820136cc","not_provided","desktop","0","0","0","","","","","","working_memory","","null","<div class=""fixation"">+</div>","null","","","","","","","","","","","","","","","","",""
"html-keyboard-response","78","392289","0.0-5.0-3.0-1.0-1.13","673caf90069aa7e3820136cc","not_provided","desktop","0","0","0","","","","","","working_memory","","null","<img class='c' src=images/squares/yellow.png><img class='b' src=images/squares/brown.png><img class='d' src=images/squares/green.png><img class='e' src=images/squares/red.png><img class='i' src=images/squares/black.png><img class='h' src=images/squares/magenta.png><img class='k' src=images/squares/blue.png><img class='l' src=images/squares/orange.png><div class=""fixation"">+</div>","null","","","memory","practice","13","8","","","","","","","","","","",""
"html-keyboard-response","79","393198","0.0-5.0-3.0-1.0-2.13","673caf90069aa7e3820136cc","not_provided","desktop","0","0","0","","","","","","working_memory","","null","<div class=""fixation"">+</div>","null","","","","","","","","","","","","","","","","",""
"html-keyboard-response","80","394302","0.0-5.0-3.0-1.0-3.13","673caf90069aa7e3820136cc","not_provided","desktop","0","0","0","","","","","","working_memory","","1101","<img class='l' src=images/squares/cyan.png><div class=""fixation"">+</div>","s","","","test","practice","13","8","k","false","","","","","","","","",""
"html-keyboard-response","81","394804","0.0-5.0-3.0-1.0-4.13","673caf90069aa7e3820136cc","not_provided","desktop","0","0","0","","","","","","working_memory","","null","<div class=""fixation"">Incorrect</div>","null","","","","","","","","","","","","","","","","",""
"html-keyboard-response","82","395807","0.0-5.0-3.0-1.0-0.14","673caf90069aa7e3820136cc","not_provided","desktop","0","0","0","","","","","","working_memory","","null","<div class=""fixation"">+</div>","null","","","","","","","","","","","","","","","","",""
"html-keyboard-response","83","396027","0.0-5.0-3.0-1.0-1.14","673caf90069aa7e3820136cc","not_provided","desktop","0","0","0","","","","","","working_memory","","null","<img class='b' src=images/squares/magenta.png><img class='d' src=images/squares/yellow.png><img class='g' src=images/squares/brown.png><img class='l' src=images/squares/green.png><div class=""fixation"">+</div>","null","","","memory","practice","14","4","","","","","","","","","","",""
"html-keyboard-response","84","396937","0.0-5.0-3.0-1.0-2.14","673caf90069aa7e3820136cc","not_provided","desktop","0","0","0","","","","","","working_memory","","null","<div class=""fixation"">+</div>","null","","","","","","","","","","","","","","","","",""
"html-keyboard-response","85","397940","0.0-5.0-3.0-1.0-3.14","673caf90069aa7e3820136cc","not_provided","desktop","0","0","0","","","","","","working_memory","","999","<img class='b' src=images/squares/black.png><div class=""fixation"">+</div>","k","","","test","practice","14","4","k","true","","","","","","","","",""
"html-keyboard-response","86","398451","0.0-5.0-3.0-1.0-4.14","673caf90069aa7e3820136cc","not_provided","desktop","0","0","0","","","","","","working_memory","","null","<div class=""fixation"">Correct</div>","null","","","","","","","","","","","","","","","","",""
"html-keyboard-response","87","413460","0.0-5.0-4.0","673caf90069aa7e3820136cc","not_provided","desktop","0","0","0","","","","","","working_memory","","15007","<div style=""text-align:center;font-family:sans-serif;""><p>Good job! You have finished the practice.</p><p>We will now start the real experiment.</p><p>Please try to be as accurate as possible.</p><p><b><u>Note: random guessing may risk your payment.</u></b></p><br><p><b>Press any key to begin.</b></p></div>"," ","","","","","","","","","","","","","","","","",""
"html-keyboard-response","88","414463","0.0-5.0-5.0-0.0","673caf90069aa7e3820136cc","not_provided","desktop","0","0","0","","","","","","working_memory","","null","<div class=""fixation"">+</div>","null","","","","","","","","","","","","","","","","",""
"html-keyboard-response","89","414677","0.0-5.0-5.0-1.0","673caf90069aa7e3820136cc","not_provided","desktop","0","0","0","","","","","","working_memory","","null","<img class='c' src=images/squares/red.png><img class='e' src=images/squares/green.png><img class='i' src=images/squares/black.png><img class='l' src=images/squares/orange.png><div class=""fixation"">+</div>","null","","","memory","exp","0","","","","","","","","","","","",""
"html-keyboard-response","90","415583","0.0-5.0-5.0-2.0","673caf90069aa7e3820136cc","not_provided","desktop","0","0","0","","","","","","working_memory","","null","<div class=""fixation"">+</div>","null","","","","","","","","","","","","","","","","",""
"html-keyboard-response","91","416744","0.0-5.0-5.0-3.0","673caf90069aa7e3820136cc","not_provided","desktop","0","0","0","","","","","","working_memory","","1158","<img class='l' src=images/squares/orange.png><div class=""fixation"">+</div>","k","","","test_squares","exp","0","4","s","false","sk","s","","","","","","",""
"html-keyboard-response","92","417253","0.0-5.0-5.0-4.0","673caf90069aa7e3820136cc","not_provided","desktop","0","0","0","","","","","","working_memory","","null","<div class=""fixation"">Incorrect</div>","null","","","","","","","","","","","","","","","","",""
"html-keyboard-response","93","418261","0.0-5.0-5.0-0.1","673caf90069aa7e3820136cc","not_provided","desktop","0","0","0","","","","","","working_memory","","null","<div class=""fixation"">+</div>","null","","","","","","","","","","","","","","","","",""
"html-keyboard-response","94","418466","0.0-5.0-5.0-1.1","673caf90069aa7e3820136cc","not_provided","desktop","0","0","0","","","","","","working_memory","","null","<img class='b' src=images/squares/magenta.png><img class='f' src=images/squares/black.png><img class='g' src=images/squares/green.png><img class='j' src=images/squares/blue.png><div class=""fixation"">+</div>","null","","","memory","exp","1","","","","","","","","","","","",""
"html-keyboard-response","95","419377","0.0-5.0-5.0-2.1","673caf90069aa7e3820136cc","not_provided","desktop","0","0","0","","","","","","working_memory","","null","<div class=""fixation"">+</div>","null","","","","","","","","","","","","","","","","",""
"html-keyboard-response","96","420240","0.0-5.0-5.0-3.1","673caf90069aa7e3820136cc","not_provided","desktop","0","0","0","","","","","","working_memory","","860","<img class='j' src=images/squares/orange.png><div class=""fixation"">+</div>","k","","","test_squares","exp","1","4","k","true","sk","d","","","","","","",""
"html-keyboard-response","97","420748","0.0-5.0-5.0-4.1","673caf90069aa7e3820136cc","not_provided","desktop","0","0","0","","","","","","working_memory","","null","<div class=""fixation"">Correct</div>","null","","","","","","","","","","","","","","","","",""
"html-keyboard-response","98","421763","0.0-5.0-5.0-0.2","673caf90069aa7e3820136cc","not_provided","desktop","0","0","0","","","","","","working_memory","","null","<div class=""fixation"">+</div>","null","","","","","","","","","","","","","","","","",""
"html-keyboard-response","99","421980","0.0-5.0-5.0-1.2","673caf90069aa7e3820136cc","not_provided","desktop","0","0","0","","","","","","working_memory","","null","<img class='b' src=images/squares/yellow.png><img class='e' src=images/squares/red.png><img class='i' src=images/squares/cyan.png><img class='l' src=images/squares/magenta.png><div class=""fixation"">+</div>","null","","","memory","exp","2","","","","","","","","","","","",""
"html-keyboard-response","100","422897","0.0-5.0-5.0-2.2","673caf90069aa7e3820136cc","not_provided","desktop","0","0","0","","","","","","working_memory","","null","<div class=""fixation"">+</div>","null","","","","","","","","","","","","","","","","",""
"html-keyboard-response","101","423706","0.0-5.0-5.0-3.2","673caf90069aa7e3820136cc","not_provided","desktop","0","0","0","","","","","","working_memory","","807","<img class='e' src=images/squares/red.png><div class=""fixation"">+</div>","s","","","test_squares","exp","2","4","s","true","sk","s","","","","","","",""
"html-keyboard-response","102","424221","0.0-5.0-5.0-4.2","673caf90069aa7e3820136cc","not_provided","desktop","0","0","0","","","","","","working_memory","","null","<div class=""fixation"">Correct</div>","null","","","","","","","","","","","","","","","","",""
"html-keyboard-response","103","425229","0.0-5.0-5.0-0.3","673caf90069aa7e3820136cc","not_provided","desktop","0","0","0","","","","","","working_memory","","null","<div class=""fixation"">+</div>","null","","","","","","","","","","","","","","","","",""
"html-keyboard-response","104","425444","0.0-5.0-5.0-1.3","673caf90069aa7e3820136cc","not_provided","desktop","0","0","0","","","","","","working_memory","","null","<img class='c' src=images/squares/red.png><img class='a' src=images/squares/magenta.png><img class='d' src=images/squares/yellow.png><img class='e' src=images/squares/brown.png><img class='i' src=images/squares/black.png><img class='g' src=images/squares/blue.png><img class='k' src=images/squares/cyan.png><img class='l' src=images/squares/green.png><div class=""fixation"">+</div>","null","","","memory","exp","3","","","","","","","","","","","",""
"html-keyboard-response","105","426352","0.0-5.0-5.0-2.3","673caf90069aa7e3820136cc","not_provided","desktop","0","0","0","","","","","","working_memory","","null","<div class=""fixation"">+</div>","null","","","","","","","","","","","","","","","","",""
"html-keyboard-response","106","427492","0.0-5.0-5.0-3.3","673caf90069aa7e3820136cc","not_provided","desktop","0","0","0","","","","","","working_memory","","1138","<img class='e' src=images/squares/brown.png><div class=""fixation"">+</div>","k","","","test_squares","exp","3","8","s","false","sk","s","","","","","","",""
"html-keyboard-response","107","427995","0.0-5.0-5.0-4.3","673caf90069aa7e3820136cc","not_provided","desktop","0","0","0","","","","","","working_memory","","null","<div class=""fixation"">Incorrect</div>","null","","","","","","","","","","","","","","","","",""
"html-keyboard-response","108","429002","0.0-5.0-5.0-0.4","673caf90069aa7e3820136cc","not_provided","desktop","0","0","0","","","","","","working_memory","","null","<div class=""fixation"">+</div>","null","","","","","","","","","","","","","","","","",""
"html-keyboard-response","109","429208","0.0-5.0-5.0-1.4","673caf90069aa7e3820136cc","not_provided","desktop","0","0","0","","","","","","working_memory","","null","<img class='a' src=images/squares/yellow.png><img class='f' src=images/squares/brown.png><img class='h' src=images/squares/blue.png><img class='j' src=images/squares/orange.png><div class=""fixation"">+</div>","null","","","memory","exp","4","","","","","","","","","","","",""
"html-keyboard-response","110","430120","0.0-5.0-5.0-2.4","673caf90069aa7e3820136cc","not_provided","desktop","0","0","0","","","","","","working_memory","","null","<div class=""fixation"">+</div>","null","","","","","","","","","","","","","","","","",""
"html-keyboard-response","111","430961","0.0-5.0-5.0-3.4","673caf90069aa7e3820136cc","not_provided","desktop","0","0","0","","","","","","working_memory","","838","<img class='j' src=images/squares/orange.png><div class=""fixation"">+</div>","k","","","test_squares","exp","4","4","s","false","sk","s","","","","","","",""
"html-keyboard-response","112","431468","0.0-5.0-5.0-4.4","673caf90069aa7e3820136cc","not_provided","desktop","0","0","0","","","","","","working_memory","","null","<div class=""fixation"">Incorrect</div>","null","","","","","","","","","","","","","","","","",""
"html-keyboard-response","113","432481","0.0-5.0-5.0-0.5","673caf90069aa7e3820136cc","not_provided","desktop","0","0","0","","","","","","working_memory","","null","<div class=""fixation"">+</div>","null","","","","","","","","","","","","","","","","",""
"html-keyboard-response","114","432699","0.0-5.0-5.0-1.5","673caf90069aa7e3820136cc","not_provided","desktop","0","0","0","","","","","","working_memory","","null","<img class='c' src=images/squares/yellow.png><img class='a' src=images/squares/brown.png><img class='d' src=images/squares/black.png><img class='f' src=images/squares/green.png><img class='g' src=images/squares/orange.png><img class='h' src=images/squares/cyan.png><img class='l' src=images/squares/red.png><img class='k' src=images/squares/magenta.png><div class=""fixation"">+</div>","null","","","memory","exp","5","","","","","","","","","","","",""
"html-keyboard-response","115","433616","0.0-5.0-5.0-2.5","673caf90069aa7e3820136cc","not_provided","desktop","0","0","0","","","","","","working_memory","","null","<div class=""fixation"">+</div>","null","","","","","","","","","","","","","","","","",""
"html-keyboard-response","116","434464","0.0-5.0-5.0-3.5","673caf90069aa7e3820136cc","not_provided","desktop","0","0","0","","","","","","working_memory","","844","<img class='d' src=images/squares/blue.png><div class=""fixation"">+</div>","k","","","test_squares","exp","5","8","k","true","sk","d","","","","","","",""
"html-keyboard-response","117","434966","0.0-5.0-5.0-4.5","673caf90069aa7e3820136cc","not_provided","desktop","0","0","0","","","","","","working_memory","","null","<div class=""fixation"">Correct</div>","null","","","","","","","","","","","","","","","","",""
"html-keyboard-response","118","435978","0.0-5.0-5.0-0.6","673caf90069aa7e3820136cc","not_provided","desktop","0","0","0","","","","","","working_memory","","null","<div class=""fixation"">+</div>","null","","","","","","","","","","","","","","","","",""
"html-keyboard-response","119","436192","0.0-5.0-5.0-1.6","673caf90069aa7e3820136cc","not_provided","desktop","0","0","0","","","","","","working_memory","","null","<img class='b' src=images/squares/cyan.png><img class='c' src=images/squares/orange.png><img class='d' src=images/squares/red.png><img class='e' src=images/squares/yellow.png><img class='h' src=images/squares/brown.png><img class='g' src=images/squares/magenta.png><img class='j' src=images/squares/green.png><img class='l' src=images/squares/blue.png><div class=""fixation"">+</div>","null","","","memory","exp","6","","","","","","","","","","","",""
"html-keyboard-response","120","437099","0.0-5.0-5.0-2.6","673caf90069aa7e3820136cc","not_provided","desktop","0","0","0","","","","","","working_memory","","null","<div class=""fixation"">+</div>","null","","","","","","","","","","","","","","","","",""
"html-keyboard-response","121","437985","0.0-5.0-5.0-3.6","673caf90069aa7e3820136cc","not_provided","desktop","0","0","0","","","","","","working_memory","","882","<img class='h' src=images/squares/black.png><div class=""fixation"">+</div>","s","","","test_squares","exp","6","8","k","false","sk","d","","","","","","",""
"html-keyboard-response","122","438490","0.0-5.0-5.0-4.6","673caf90069aa7e3820136cc","not_provided","desktop","0","0","0","","","","","","working_memory","","null","<div class=""fixation"">Incorrect</div>","null","","","","","","","","","","","","","","","","",""
"html-keyboard-response","123","439498","0.0-5.0-5.0-0.7","673caf90069aa7e3820136cc","not_provided","desktop","0","0","0","","","","","","working_memory","","null","<div class=""fixation"">+</div>","null","","","","","","","","","","","","","","","","",""
"html-keyboard-response","124","439703","0.0-5.0-5.0-1.7","673caf90069aa7e3820136cc","not_provided","desktop","0","0","0","","","","","","working_memory","","null","<img class='c' src=images/squares/brown.png><img class='b' src=images/squares/red.png><img class='e' src=images/squares/cyan.png><img class='f' src=images/squares/black.png><img class='g' src=images/squares/magenta.png><img class='i' src=images/squares/green.png><img class='l' src=images/squares/orange.png><img class='k' src=images/squares/yellow.png><div class=""fixation"">+</div>","null","","","memory","exp","7","","","","","","","","","","","",""
"html-keyboard-response","125","440611","0.0-5.0-5.0-2.7","673caf90069aa7e3820136cc","not_provided","desktop","0","0","0","","","","","","working_memory","","null","<div class=""fixation"">+</div>","null","","","","","","","","","","","","","","","","",""
"html-keyboard-response","126","441508","0.0-5.0-5.0-3.7","673caf90069aa7e3820136cc","not_provided","desktop","0","0","0","","","","","","working_memory","","895","<img class='f' src=images/squares/blue.png><div class=""fixation"">+</div>","s","","","test_squares","exp","7","8","k","false","sk","d","","","","","","",""
"html-keyboard-response","127","442012","0.0-5.0-5.0-4.7","673caf90069aa7e3820136cc","not_provided","desktop","0","0","0","","","","","","working_memory","","null","<div class=""fixation"">Incorrect</div>","null","","","","","","","","","","","","","","","","",""
"html-keyboard-response","128","443030","0.0-5.0-5.0-0.8","673caf90069aa7e3820136cc","not_provided","desktop","0","0","0","","","","","","working_memory","","null","<div class=""fixation"">+</div>","null","","","","","","","","","","","","","","","","",""
"html-keyboard-response","129","443249","0.0-5.0-5.0-1.8","673caf90069aa7e3820136cc","not_provided","desktop","0","0","0","","","","","","working_memory","","null","<img class='c' src=images/squares/blue.png><img class='f' src=images/squares/red.png><img class='h' src=images/squares/magenta.png><img class='l' src=images/squares/cyan.png><div class=""fixation"">+</div>","null","","","memory","exp","8","","","","","","","","","","","",""
"html-keyboard-response","130","444165","0.0-5.0-5.0-2.8","673caf90069aa7e3820136cc","not_provided","desktop","0","0","0","","","","","","working_memory","","null","<div class=""fixation"">+</div>","null","","","","","","","","","","","","","","","","",""
"html-keyboard-response","131","444897","0.0-5.0-5.0-3.8","673caf90069aa7e3820136cc","not_provided","desktop","0","0","0","","","","","","working_memory","","729","<img class='f' src=images/squares/red.png><div class=""fixation"">+</div>","k","","","test_squares","exp","8","4","s","false","sk","s","","","","","","",""
"html-keyboard-response","132","445411","0.0-5.0-5.0-4.8","673caf90069aa7e3820136cc","not_provided","desktop","0","0","0","","","","","","working_memory","","null","<div class=""fixation"">Incorrect</div>","null","","","","","","","","","","","","","","","","",""
"html-keyboard-response","133","446423","0.0-5.0-5.0-0.9","673caf90069aa7e3820136cc","not_provided","desktop","0","0","0","","","","","","working_memory","","null","<div class=""fixation"">+</div>","null","","","","","","","","","","","","","","","","",""
"html-keyboard-response","134","446627","0.0-5.0-5.0-1.9","673caf90069aa7e3820136cc","not_provided","desktop","0","0","0","","","","","","working_memory","","null","<img class='a' src=images/squares/cyan.png><img class='c' src=images/squares/blue.png><img class='d' src=images/squares/red.png><img class='f' src=images/squares/brown.png><img class='g' src=images/squares/orange.png><img class='h' src=images/squares/black.png><img class='l' src=images/squares/yellow.png><img class='k' src=images/squares/magenta.png><div class=""fixation"">+</div>","null","","","memory","exp","9","","","","","","","","","","","",""
"html-keyboard-response","135","447538","0.0-5.0-5.0-2.9","673caf90069aa7e3820136cc","not_provided","desktop","0","0","0","","","","","","working_memory","","null","<div class=""fixation"">+</div>","null","","","","","","","","","","","","","","","","",""
"html-keyboard-response","136","448515","0.0-5.0-5.0-3.9","673caf90069aa7e3820136cc","not_provided","desktop","0","0","0","","","","","","working_memory","","973","<img class='a' src=images/squares/cyan.png><div class=""fixation"">+</div>","s","","","test_squares","exp","9","8","s","true","sk","s","","","","","","",""
"html-keyboard-response","137","449026","0.0-5.0-5.0-4.9","673caf90069aa7e3820136cc","not_provided","desktop","0","0","0","","","","","","working_memory","","null","<div class=""fixation"">Correct</div>","null","","","","","","","","","","","","","","","","",""
"html-keyboard-response","138","450044","0.0-5.0-5.0-0.10","673caf90069aa7e3820136cc","not_provided","desktop","0","0","0","","","","","","working_memory","","null","<div class=""fixation"">+</div>","null","","","","","","","","","","","","","","","","",""
"html-keyboard-response","139","450259","0.0-5.0-5.0-1.10","673caf90069aa7e3820136cc","not_provided","desktop","0","0","0","","","","","","working_memory","","null","<img class='b' src=images/squares/magenta.png><img class='d' src=images/squares/brown.png><img class='h' src=images/squares/yellow.png><img class='k' src=images/squares/black.png><div class=""fixation"">+</div>","null","","","memory","exp","10","","","","","","","","","","","",""
"html-keyboard-response","140","451170","0.0-5.0-5.0-2.10","673caf90069aa7e3820136cc","not_provided","desktop","0","0","0","","","","","","working_memory","","null","<div class=""fixation"">+</div>","null","","","","","","","","","","","","","","","","",""
"html-keyboard-response","141","451952","0.0-5.0-5.0-3.10","673caf90069aa7e3820136cc","not_provided","desktop","0","0","0","","","","","","working_memory","","779","<img class='h' src=images/squares/orange.png><div class=""fixation"">+</div>","k","","","test_squares","exp","10","4","k","true","sk","d","","","","","","",""
"html-keyboard-response","142","452459","0.0-5.0-5.0-4.10","673caf90069aa7e3820136cc","not_provided","desktop","0","0","0","","","","","","working_memory","","null","<div class=""fixation"">Correct</div>","null","","","","","","","","","","","","","","","","",""
"html-keyboard-response","143","453471","0.0-5.0-5.0-0.11","673caf90069aa7e3820136cc","not_provided","desktop","0","0","0","","","","","","working_memory","","null","<div class=""fixation"">+</div>","null","","","","","","","","","","","","","","","","",""
"html-keyboard-response","144","453681","0.0-5.0-5.0-1.11","673caf90069aa7e3820136cc","not_provided","desktop","0","0","0","","","","","","working_memory","","null","<img class='b' src=images/squares/red.png><img class='f' src=images/squares/magenta.png><img class='g' src=images/squares/cyan.png><img class='l' src=images/squares/black.png><div class=""fixation"">+</div>","null","","","memory","exp","11","","","","","","","","","","","",""
"html-keyboard-response","145","454597","0.0-5.0-5.0-2.11","673caf90069aa7e3820136cc","not_provided","desktop","0","0","0","","","","","","working_memory","","null","<div class=""fixation"">+</div>","null","","","","","","","","","","","","","","","","",""
"html-keyboard-response","146","455491","0.0-5.0-5.0-3.11","673caf90069aa7e3820136cc","not_provided","desktop","0","0","0","","","","","","working_memory","","890","<img class='g' src=images/squares/cyan.png><div class=""fixation"">+</div>","s","","","test_squares","exp","11","4","s","true","sk","s","","","","","","",""
"html-keyboard-response","147","455999","0.0-5.0-5.0-4.11","673caf90069aa7e3820136cc","not_provided","desktop","0","0","0","","","","","","working_memory","","null","<div class=""fixation"">Correct</div>","null","","","","","","","","","","","","","","","","",""
"html-keyboard-response","148","457006","0.0-5.0-5.0-0.12","673caf90069aa7e3820136cc","not_provided","desktop","0","0","0","","","","","","working_memory","","null","<div class=""fixation"">+</div>","null","","","","","","","","","","","","","","","","",""
"html-keyboard-response","149","457214","0.0-5.0-5.0-1.12","673caf90069aa7e3820136cc","not_provided","desktop","0","0","0","","","","","","working_memory","","null","<img class='c' src=images/squares/brown.png><img class='a' src=images/squares/orange.png><img class='f' src=images/squares/cyan.png><img class='d' src=images/squares/red.png><img class='h' src=images/squares/green.png><img class='g' src=images/squares/yellow.png><img class='j' src=images/squares/magenta.png><img class='k' src=images/squares/blue.png><div class=""fixation"">+</div>","null","","","memory","exp","12","","","","","","","","","","","",""
"html-keyboard-response","150","458119","0.0-5.0-5.0-2.12","673caf90069aa7e3820136cc","not_provided","desktop","0","0","0","","","","","","working_memory","","null","<div class=""fixation"">+</div>","null","","","","","","","","","","","","","","","","",""
"html-keyboard-response","151","459320","0.0-5.0-5.0-3.12","673caf90069aa7e3820136cc","not_provided","desktop","0","0","0","","","","","","working_memory","","1199","<img class='a' src=images/squares/black.png><div class=""fixation"">+</div>","k","","","test_squares","exp","12","8","k","true","sk","d","","","","","","",""
"html-keyboard-response","152","459828","0.0-5.0-5.0-4.12","673caf90069aa7e3820136cc","not_provided","desktop","0","0","0","","","","","","working_memory","","null","<div class=""fixation"">Correct</div>","null","","","","","","","","","","","","","","","","",""
"html-keyboard-response","153","460837","0.0-5.0-5.0-0.13","673caf90069aa7e3820136cc","not_provided","desktop","0","0","0","","","","","","working_memory","","null","<div class=""fixation"">+</div>","null","","","","","","","","","","","","","","","","",""
"html-keyboard-response","154","461053","0.0-5.0-5.0-1.13","673caf90069aa7e3820136cc","not_provided","desktop","0","0","0","","","","","","working_memory","","null","<img class='c' src=images/squares/magenta.png><img class='e' src=images/squares/brown.png><img class='g' src=images/squares/red.png><img class='k' src=images/squares/yellow.png><div class=""fixation"">+</div>","null","","","memory","exp","13","","","","","","","","","","","",""
"html-keyboard-response","155","461971","0.0-5.0-5.0-2.13","673caf90069aa7e3820136cc","not_provided","desktop","0","0","0","","","","","","working_memory","","null","<div class=""fixation"">+</div>","null","","","","","","","","","","","","","","","","",""
"html-keyboard-response","156","462605","0.0-5.0-5.0-3.13","673caf90069aa7e3820136cc","not_provided","desktop","0","0","0","","","","","","working_memory","","631","<img class='g' src=images/squares/red.png><div class=""fixation"">+</div>","s","","","test_squares","exp","13","4","s","true","sk","s","","","","","","",""
"html-keyboard-response","157","463112","0.0-5.0-5.0-4.13","673caf90069aa7e3820136cc","not_provided","desktop","0","0","0","","","","","","working_memory","","null","<div class=""fixation"">Correct</div>","null","","","","","","","","","","","","","","","","",""
"html-keyboard-response","158","464121","0.0-5.0-5.0-0.14","673caf90069aa7e3820136cc","not_provided","desktop","0","0","0","","","","","","working_memory","","null","<div class=""fixation"">+</div>","null","","","","","","","","","","","","","","","","",""
"html-keyboard-response","159","464325","0.0-5.0-5.0-1.14","673caf90069aa7e3820136cc","not_provided","desktop","0","0","0","","","","","","working_memory","","null","<img class='b' src=images/squares/red.png><img class='a' src=images/squares/brown.png><img class='f' src=images/squares/blue.png><img class='e' src=images/squares/orange.png><img class='i' src=images/squares/black.png><img class='h' src=images/squares/yellow.png><img class='j' src=images/squares/cyan.png><img class='l' src=images/squares/magenta.png><div class=""fixation"">+</div>","null","","","memory","exp","14","","","","","","","","","","","",""
"html-keyboard-response","160","465228","0.0-5.0-5.0-2.14","673caf90069aa7e3820136cc","not_provided","desktop","0","0","0","","","","","","working_memory","","null","<div class=""fixation"">+</div>","null","","","","","","","","","","","","","","","","",""
"html-keyboard-response","161","466384","0.0-5.0-5.0-3.14","673caf90069aa7e3820136cc","not_provided","desktop","0","0","0","","","","","","working_memory","","1155","<img class='b' src=images/squares/red.png><div class=""fixation"">+</div>","s","","","test_squares","exp","14","8","s","true","sk","s","","","","","","",""
"html-keyboard-response","162","466894","0.0-5.0-5.0-4.14","673caf90069aa7e3820136cc","not_provided","desktop","0","0","0","","","","","","working_memory","","null","<div class=""fixation"">Correct</div>","null","","","","","","","","","","","","","","","","",""
"html-keyboard-response","163","467904","0.0-5.0-5.0-0.15","673caf90069aa7e3820136cc","not_provided","desktop","0","0","0","","","","","","working_memory","","null","<div class=""fixation"">+</div>","null","","","","","","","","","","","","","","","","",""
"html-keyboard-response","164","468115","0.0-5.0-5.0-1.15","673caf90069aa7e3820136cc","not_provided","desktop","0","0","0","","","","","","working_memory","","null","<img class='b' src=images/squares/cyan.png><img class='f' src=images/squares/brown.png><img class='i' src=images/squares/magenta.png><img class='l' src=images/squares/yellow.png><div class=""fixation"">+</div>","null","","","memory","exp","15","","","","","","","","","","","",""
"html-keyboard-response","165","469017","0.0-5.0-5.0-2.15","673caf90069aa7e3820136cc","not_provided","desktop","0","0","0","","","","","","working_memory","","null","<div class=""fixation"">+</div>","null","","","","","","","","","","","","","","","","",""
"html-keyboard-response","166","469656","0.0-5.0-5.0-3.15","673caf90069aa7e3820136cc","not_provided","desktop","0","0","0","","","","","","working_memory","","637","<img class='i' src=images/squares/magenta.png><div class=""fixation"">+</div>","s","","","test_squares","exp","15","4","s","true","sk","s","","","","","","",""
"html-keyboard-response","167","470165","0.0-5.0-5.0-4.15","673caf90069aa7e3820136cc","not_provided","desktop","0","0","0","","","","","","working_memory","","null","<div class=""fixation"">Correct</div>","null","","","","","","","","","","","","","","","","",""
"html-keyboard-response","168","471179","0.0-5.0-5.0-0.16","673caf90069aa7e3820136cc","not_provided","desktop","0","0","0","","","","","","working_memory","","null","<div class=""fixation"">+</div>","null","","","","","","","","","","","","","","","","",""
"html-keyboard-response","169","471382","0.0-5.0-5.0-1.16","673caf90069aa7e3820136cc","not_provided","desktop","0","0","0","","","","","","working_memory","","null","<img class='c' src=images/squares/red.png><img class='f' src=images/squares/magenta.png><img class='g' src=images/squares/blue.png><img class='l' src=images/squares/green.png><div class=""fixation"">+</div>","null","","","memory","exp","16","","","","","","","","","","","",""
"html-keyboard-response","170","472287","0.0-5.0-5.0-2.16","673caf90069aa7e3820136cc","not_provided","desktop","0","0","0","","","","","","working_memory","","null","<div class=""fixation"">+</div>","null","","","","","","","","","","","","","","","","",""
"html-keyboard-response","171","473909","0.0-5.0-5.0-3.16","673caf90069aa7e3820136cc","not_provided","desktop","0","0","0","","","","","","working_memory","","1619","<img class='f' src=images/squares/orange.png><div class=""fixation"">+</div>","k","","","test_squares","exp","16","4","k","true","sk","d","","","","","","",""
"html-keyboard-response","172","474415","0.0-5.0-5.0-4.16","673caf90069aa7e3820136cc","not_provided","desktop","0","0","0","","","","","","working_memory","","null","<div class=""fixation"">Correct</div>","null","","","","","","","","","","","","","","","","",""
"html-keyboard-response","173","475427","0.0-5.0-5.0-0.17","673caf90069aa7e3820136cc","not_provided","desktop","0","0","0","","","","","","working_memory","","null","<div class=""fixation"">+</div>","null","","","","","","","","","","","","","","","","",""
"html-keyboard-response","174","475641","0.0-5.0-5.0-1.17","673caf90069aa7e3820136cc","not_provided","desktop","0","0","0","","","","","","working_memory","","null","<img class='a' src=images/squares/red.png><img class='d' src=images/squares/orange.png><img class='i' src=images/squares/green.png><img class='l' src=images/squares/magenta.png><div class=""fixation"">+</div>","null","","","memory","exp","17","","","","","","","","","","","",""
"html-keyboard-response","175","476547","0.0-5.0-5.0-2.17","673caf90069aa7e3820136cc","not_provided","desktop","0","0","0","","","","","","working_memory","","null","<div class=""fixation"">+</div>","null","","","","","","","","","","","","","","","","",""
"html-keyboard-response","176","477396","0.0-5.0-5.0-3.17","673caf90069aa7e3820136cc","not_provided","desktop","0","0","0","","","","","","working_memory","","847","<img class='a' src=images/squares/black.png><div class=""fixation"">+</div>","k","","","test_squares","exp","17","4","k","true","sk","d","","","","","","",""
"html-keyboard-response","177","477904","0.0-5.0-5.0-4.17","673caf90069aa7e3820136cc","not_provided","desktop","0","0","0","","","","","","working_memory","","null","<div class=""fixation"">Correct</div>","null","","","","","","","","","","","","","","","","",""
"html-keyboard-response","178","478914","0.0-5.0-5.0-0.18","673caf90069aa7e3820136cc","not_provided","desktop","0","0","0","","","","","","working_memory","","null","<div class=""fixation"">+</div>","null","","","","","","","","","","","","","","","","",""
"html-keyboard-response","179","479129","0.0-5.0-5.0-1.18","673caf90069aa7e3820136cc","not_provided","desktop","0","0","0","","","","","","working_memory","","null","<img class='b' src=images/squares/yellow.png><img class='d' src=images/squares/orange.png><img class='i' src=images/squares/cyan.png><img class='l' src=images/squares/brown.png><div class=""fixation"">+</div>","null","","","memory","exp","18","","","","","","","","","","","",""
"html-keyboard-response","180","480043","0.0-5.0-5.0-2.18","673caf90069aa7e3820136cc","not_provided","desktop","0","0","0","","","","","","working_memory","","null","<div class=""fixation"">+</div>","null","","","","","","","","","","","","","","","","",""
"html-keyboard-response","181","481291","0.0-5.0-5.0-3.18","673caf90069aa7e3820136cc","not_provided","desktop","0","0","0","","","","","","working_memory","","1246","<img class='l' src=images/squares/brown.png><div class=""fixation"">+</div>","k","","","test_squares","exp","18","4","s","false","sk","s","","","","","","",""
"html-keyboard-response","182","481798","0.0-5.0-5.0-4.18","673caf90069aa7e3820136cc","not_provided","desktop","0","0","0","","","","","","working_memory","","null","<div class=""fixation"">Incorrect</div>","null","","","","","","","","","","","","","","","","",""
"html-keyboard-response","183","482804","0.0-5.0-5.0-0.19","673caf90069aa7e3820136cc","not_provided","desktop","0","0","0","","","","","","working_memory","","null","<div class=""fixation"">+</div>","null","","","","","","","","","","","","","","","","",""
"html-keyboard-response","184","483014","0.0-5.0-5.0-1.19","673caf90069aa7e3820136cc","not_provided","desktop","0","0","0","","","","","","working_memory","","null","<img class='b' src=images/squares/magenta.png><img class='a' src=images/squares/brown.png><img class='e' src=images/squares/cyan.png><img class='f' src=images/squares/orange.png><img class='h' src=images/squares/green.png><img class='i' src=images/squares/black.png><img class='k' src=images/squares/blue.png><img class='j' src=images/squares/yellow.png><div class=""fixation"">+</div>","null","","","memory","exp","19","","","","","","","","","","","",""
"html-keyboard-response","185","483919","0.0-5.0-5.0-2.19","673caf90069aa7e3820136cc","not_provided","desktop","0","0","0","","","","","","working_memory","","null","<div class=""fixation"">+</div>","null","","","","","","","","","","","","","","","","",""
"html-keyboard-response","186","484904","0.0-5.0-5.0-3.19","673caf90069aa7e3820136cc","not_provided","desktop","0","0","0","","","","","","working_memory","","983","<img class='h' src=images/squares/red.png><div class=""fixation"">+</div>","k","","","test_squares","exp","19","8","k","true","sk","d","","","","","","",""
"html-keyboard-response","187","485409","0.0-5.0-5.0-4.19","673caf90069aa7e3820136cc","not_provided","desktop","0","0","0","","","","","","working_memory","","null","<div class=""fixation"">Correct</div>","null","","","","","","","","","","","","","","","","",""
"html-keyboard-response","188","486414","0.0-5.0-5.0-0.20","673caf90069aa7e3820136cc","not_provided","desktop","0","0","0","","","","","","working_memory","","null","<div class=""fixation"">+</div>","null","","","","","","","","","","","","","","","","",""
"html-keyboard-response","189","486627","0.0-5.0-5.0-1.20","673caf90069aa7e3820136cc","not_provided","desktop","0","0","0","","","","","","working_memory","","null","<img class='c' src=images/squares/yellow.png><img class='e' src=images/squares/red.png><img class='g' src=images/squares/orange.png><img class='k' src=images/squares/green.png><div class=""fixation"">+</div>","null","","","memory","exp","20","","","","","","","","","","","",""
"html-keyboard-response","190","487543","0.0-5.0-5.0-2.20","673caf90069aa7e3820136cc","not_provided","desktop","0","0","0","","","","","","working_memory","","null","<div class=""fixation"">+</div>","null","","","","","","","","","","","","","","","","",""
"html-keyboard-response","191","488272","0.0-5.0-5.0-3.20","673caf90069aa7e3820136cc","not_provided","desktop","0","0","0","","","","","","working_memory","","727","<img class='e' src=images/squares/red.png><div class=""fixation"">+</div>","s","","","test_squares","exp","20","4","s","true","sk","s","","","","","","",""
"html-keyboard-response","192","488778","0.0-5.0-5.0-4.20","673caf90069aa7e3820136cc","not_provided","desktop","0","0","0","","","","","","working_memory","","null","<div class=""fixation"">Correct</div>","null","","","","","","","","","","","","","","","","",""
"html-keyboard-response","193","489794","0.0-5.0-5.0-0.21","673caf90069aa7e3820136cc","not_provided","desktop","0","0","0","","","","","","working_memory","","null","<div class=""fixation"">+</div>","null","","","","","","","","","","","","","","","","",""
"html-keyboard-response","194","490006","0.0-5.0-5.0-1.21","673caf90069aa7e3820136cc","not_provided","desktop","0","0","0","","","","","","working_memory","","null","<img class='a' src=images/squares/brown.png><img class='b' src=images/squares/red.png><img class='e' src=images/squares/blue.png><img class='d' src=images/squares/black.png><img class='g' src=images/squares/magenta.png><img class='i' src=images/squares/cyan.png><img class='l' src=images/squares/orange.png><img class='j' src=images/squares/green.png><div class=""fixation"">+</div>","null","","","memory","exp","21","","","","","","","","","","","",""
"html-keyboard-response","195","490914","0.0-5.0-5.0-2.21","673caf90069aa7e3820136cc","not_provided","desktop","0","0","0","","","","","","working_memory","","null","<div class=""fixation"">+</div>","null","","","","","","","","","","","","","","","","",""
"html-keyboard-response","196","491830","0.0-5.0-5.0-3.21","673caf90069aa7e3820136cc","not_provided","desktop","0","0","0","","","","","","working_memory","","914","<img class='a' src=images/squares/brown.png><div class=""fixation"">+</div>","s","","","test_squares","exp","21","8","s","true","sk","s","","","","","","",""
"html-keyboard-response","197","492339","0.0-5.0-5.0-4.21","673caf90069aa7e3820136cc","not_provided","desktop","0","0","0","","","","","","working_memory","","null","<div class=""fixation"">Correct</div>","null","","","","","","","","","","","","","","","","",""
"html-keyboard-response","198","493344","0.0-5.0-5.0-0.22","673caf90069aa7e3820136cc","not_provided","desktop","0","0","0","","","","","","working_memory","","null","<div class=""fixation"">+</div>","null","","","","","","","","","","","","","","","","",""
"html-keyboard-response","199","493549","0.0-5.0-5.0-1.22","673caf90069aa7e3820136cc","not_provided","desktop","0","0","0","","","","","","working_memory","","null","<img class='a' src=images/squares/brown.png><img class='d' src=images/squares/magenta.png><img class='h' src=images/squares/blue.png><img class='l' src=images/squares/orange.png><div class=""fixation"">+</div>","null","","","memory","exp","22","","","","","","","","","","","",""
"html-keyboard-response","200","494459","0.0-5.0-5.0-2.22","673caf90069aa7e3820136cc","not_provided","desktop","0","0","0","","","","","","working_memory","","null","<div class=""fixation"">+</div>","null","","","","","","","","","","","","","","","","",""
"html-keyboard-response","201","495644","0.0-5.0-5.0-3.22","673caf90069aa7e3820136cc","not_provided","desktop","0","0","0","","","","","","working_memory","","1182","<img class='l' src=images/squares/orange.png><div class=""fixation"">+</div>","s","","","test_squares","exp","22","4","s","true","sk","s","","","","","","",""
"html-keyboard-response","202","496152","0.0-5.0-5.0-4.22","673caf90069aa7e3820136cc","not_provided","desktop","0","0","0","","","","","","working_memory","","null","<div class=""fixation"">Correct</div>","null","","","","","","","","","","","","","","","","",""
"html-keyboard-response","203","497163","0.0-5.0-5.0-0.23","673caf90069aa7e3820136cc","not_provided","desktop","0","0","0","","","","","","working_memory","","null","<div class=""fixation"">+</div>","null","","","","","","","","","","","","","","","","",""
"html-keyboard-response","204","497381","0.0-5.0-5.0-1.23","673caf90069aa7e3820136cc","not_provided","desktop","0","0","0","","","","","","working_memory","","null","<img class='a' src=images/squares/magenta.png><img class='e' src=images/squares/orange.png><img class='h' src=images/squares/cyan.png><img class='j' src=images/squares/blue.png><div class=""fixation"">+</div>","null","","","memory","exp","23","","","","","","","","","","","",""
"html-keyboard-response","205","498288","0.0-5.0-5.0-2.23","673caf90069aa7e3820136cc","not_provided","desktop","0","0","0","","","","","","working_memory","","null","<div class=""fixation"">+</div>","null","","","","","","","","","","","","","","","","",""
"html-keyboard-response","206","498948","0.0-5.0-5.0-3.23","673caf90069aa7e3820136cc","not_provided","desktop","0","0","0","","","","","","working_memory","","657","<img class='e' src=images/squares/orange.png><div class=""fixation"">+</div>","s","","","test_squares","exp","23","4","s","true","sk","s","","","","","","",""
"html-keyboard-response","207","499454","0.0-5.0-5.0-4.23","673caf90069aa7e3820136cc","not_provided","desktop","0","0","0","","","","","","working_memory","","null","<div class=""fixation"">Correct</div>","null","","","","","","","","","","","","","","","","",""
"html-keyboard-response","208","500461","0.0-5.0-5.0-0.24","673caf90069aa7e3820136cc","not_provided","desktop","0","0","0","","","","","","working_memory","","null","<div class=""fixation"">+</div>","null","","","","","","","","","","","","","","","","",""
"html-keyboard-response","209","500677","0.0-5.0-5.0-1.24","673caf90069aa7e3820136cc","not_provided","desktop","0","0","0","","","","","","working_memory","","null","<img class='c' src=images/squares/yellow.png><img class='d' src=images/squares/orange.png><img class='g' src=images/squares/green.png><img class='k' src=images/squares/brown.png><div class=""fixation"">+</div>","null","","","memory","exp","24","","","","","","","","","","","",""
"html-keyboard-response","210","501587","0.0-5.0-5.0-2.24","673caf90069aa7e3820136cc","not_provided","desktop","0","0","0","","","","","","working_memory","","null","<div class=""fixation"">+</div>","null","","","","","","","","","","","","","","","","",""
"html-keyboard-response","211","502481","0.0-5.0-5.0-3.24","673caf90069aa7e3820136cc","not_provided","desktop","0","0","0","","","","","","working_memory","","892","<img class='g' src=images/squares/cyan.png><div class=""fixation"">+</div>","s","","","test_squares","exp","24","4","k","false","sk","d","","","","","","",""
"html-keyboard-response","212","502995","0.0-5.0-5.0-4.24","673caf90069aa7e3820136cc","not_provided","desktop","0","0","0","","","","","","working_memory","","null","<div class=""fixation"">Incorrect</div>","null","","","","","","","","","","","","","","","","",""
"html-keyboard-response","213","504009","0.0-5.0-5.0-0.25","673caf90069aa7e3820136cc","not_provided","desktop","0","0","0","","","","","","working_memory","","null","<div class=""fixation"">+</div>","null","","","","","","","","","","","","","","","","",""
"html-keyboard-response","214","504213","0.0-5.0-5.0-1.25","673caf90069aa7e3820136cc","not_provided","desktop","0","0","0","","","","","","working_memory","","null","<img class='c' src=images/squares/cyan.png><img class='b' src=images/squares/brown.png><img class='e' src=images/squares/orange.png><img class='d' src=images/squares/blue.png><img class='g' src=images/squares/black.png><img class='i' src=images/squares/red.png><img class='k' src=images/squares/green.png><img class='j' src=images/squares/magenta.png><div class=""fixation"">+</div>","null","","","memory","exp","25","","","","","","","","","","","",""
"html-keyboard-response","215","505121","0.0-5.0-5.0-2.25","673caf90069aa7e3820136cc","not_provided","desktop","0","0","0","","","","","","working_memory","","null","<div class=""fixation"">+</div>","null","","","","","","","","","","","","","","","","",""
"html-keyboard-response","216","506120","0.0-5.0-5.0-3.25","673caf90069aa7e3820136cc","not_provided","desktop","0","0","0","","","","","","working_memory","","997","<img class='e' src=images/squares/orange.png><div class=""fixation"">+</div>","s","","","test_squares","exp","25","8","s","true","sk","s","","","","","","",""
"html-keyboard-response","217","506626","0.0-5.0-5.0-4.25","673caf90069aa7e3820136cc","not_provided","desktop","0","0","0","","","","","","working_memory","","null","<div class=""fixation"">Correct</div>","null","","","","","","","","","","","","","","","","",""
"html-keyboard-response","218","507628","0.0-5.0-5.0-0.26","673caf90069aa7e3820136cc","not_provided","desktop","0","0","0","","","","","","working_memory","","null","<div class=""fixation"">+</div>","null","","","","","","","","","","","","","","","","",""
"html-keyboard-response","219","507840","0.0-5.0-5.0-1.26","673caf90069aa7e3820136cc","not_provided","desktop","0","0","0","","","","","","working_memory","","null","<img class='b' src=images/squares/red.png><img class='f' src=images/squares/green.png><img class='i' src=images/squares/black.png><img class='j' src=images/squares/brown.png><div class=""fixation"">+</div>","null","","","memory","exp","26","","","","","","","","","","","",""
"html-keyboard-response","220","508749","0.0-5.0-5.0-2.26","673caf90069aa7e3820136cc","not_provided","desktop","0","0","0","","","","","","working_memory","","null","<div class=""fixation"">+</div>","null","","","","","","","","","","","","","","","","",""
"html-keyboard-response","221","509768","0.0-5.0-5.0-3.26","673caf90069aa7e3820136cc","not_provided","desktop","0","0","0","","","","","","working_memory","","1017","<img class='i' src=images/squares/magenta.png><div class=""fixation"">+</div>","k","","","test_squares","exp","26","4","k","true","sk","d","","","","","","",""
"html-keyboard-response","222","510280","0.0-5.0-5.0-4.26","673caf90069aa7e3820136cc","not_provided","desktop","0","0","0","","","","","","working_memory","","null","<div class=""fixation"">Correct</div>","null","","","","","","","","","","","","","","","","",""
"html-keyboard-response","223","511287","0.0-5.0-5.0-0.27","673caf90069aa7e3820136cc","not_provided","desktop","0","0","0","","","","","","working_memory","","null","<div class=""fixation"">+</div>","null","","","","","","","","","","","","","","","","",""
"html-keyboard-response","224","511499","0.0-5.0-5.0-1.27","673caf90069aa7e3820136cc","not_provided","desktop","0","0","0","","","","","","working_memory","","null","<img class='c' src=images/squares/black.png><img class='e' src=images/squares/cyan.png><img class='i' src=images/squares/brown.png><img class='l' src=images/squares/magenta.png><div class=""fixation"">+</div>","null","","","memory","exp","27","","","","","","","","","","","",""
"html-keyboard-response","225","512408","0.0-5.0-5.0-2.27","673caf90069aa7e3820136cc","not_provided","desktop","0","0","0","","","","","","working_memory","","null","<div class=""fixation"">+</div>","null","","","","","","","","","","","","","","","","",""
"html-keyboard-response","226","513120","0.0-5.0-5.0-3.27","673caf90069aa7e3820136cc","not_provided","desktop","0","0","0","","","","","","working_memory","","710","<img class='i' src=images/squares/green.png><div class=""fixation"">+</div>","k","","","test_squares","exp","27","4","k","true","sk","d","","","","","","",""
"html-keyboard-response","227","513623","0.0-5.0-5.0-4.27","673caf90069aa7e3820136cc","not_provided","desktop","0","0","0","","","","","","working_memory","","null","<div class=""fixation"">Correct</div>","null","","","","","","","","","","","","","","","","",""
"html-keyboard-response","228","514637","0.0-5.0-5.0-0.28","673caf90069aa7e3820136cc","not_provided","desktop","0","0","0","","","","","","working_memory","","null","<div class=""fixation"">+</div>","null","","","","","","","","","","","","","","","","",""
"html-keyboard-response","229","514843","0.0-5.0-5.0-1.28","673caf90069aa7e3820136cc","not_provided","desktop","0","0","0","","","","","","working_memory","","null","<img class='a' src=images/squares/black.png><img class='c' src=images/squares/brown.png><img class='e' src=images/squares/green.png><img class='f' src=images/squares/magenta.png><img class='i' src=images/squares/red.png><img class='g' src=images/squares/yellow.png><img class='l' src=images/squares/orange.png><img class='k' src=images/squares/cyan.png><div class=""fixation"">+</div>","null","","","memory","exp","28","","","","","","","","","","","",""
"html-keyboard-response","230","515747","0.0-5.0-5.0-2.28","673caf90069aa7e3820136cc","not_provided","desktop","0","0","0","","","","","","working_memory","","null","<div class=""fixation"">+</div>","null","","","","","","","","","","","","","","","","",""
"html-keyboard-response","231","516618","0.0-5.0-5.0-3.28","673caf90069aa7e3820136cc","not_provided","desktop","0","0","0","","","","","","working_memory","","869","<img class='l' src=images/squares/orange.png><div class=""fixation"">+</div>","s","","","test_squares","exp","28","8","s","true","sk","s","","","","","","",""
"html-keyboard-response","232","517130","0.0-5.0-5.0-4.28","673caf90069aa7e3820136cc","not_provided","desktop","0","0","0","","","","","","working_memory","","null","<div class=""fixation"">Correct</div>","null","","","","","","","","","","","","","","","","",""
"html-keyboard-response","233","518149","0.0-5.0-5.0-0.29","673caf90069aa7e3820136cc","not_provided","desktop","0","0","0","","","","","","working_memory","","null","<div class=""fixation"">+</div>","null","","","","","","","","","","","","","","","","",""
"html-keyboard-response","234","518363","0.0-5.0-5.0-1.29","673caf90069aa7e3820136cc","not_provided","desktop","0","0","0","","","","","","working_memory","","null","<img class='a' src=images/squares/black.png><img class='d' src=images/squares/red.png><img class='g' src=images/squares/brown.png><img class='j' src=images/squares/green.png><div class=""fixation"">+</div>","null","","","memory","exp","29","","","","","","","","","","","",""
"html-keyboard-response","235","519266","0.0-5.0-5.0-2.29","673caf90069aa7e3820136cc","not_provided","desktop","0","0","0","","","","","","working_memory","","null","<div class=""fixation"">+</div>","null","","","","","","","","","","","","","","","","",""
"html-keyboard-response","236","519935","0.0-5.0-5.0-3.29","673caf90069aa7e3820136cc","not_provided","desktop","0","0","0","","","","","","working_memory","","667","<img class='g' src=images/squares/brown.png><div class=""fixation"">+</div>","s","","","test_squares","exp","29","4","s","true","sk","s","","","","","","",""
"html-keyboard-response","237","520437","0.0-5.0-5.0-4.29","673caf90069aa7e3820136cc","not_provided","desktop","0","0","0","","","","","","working_memory","","null","<div class=""fixation"">Correct</div>","null","","","","","","","","","","","","","","","","",""
"html-keyboard-response","238","521449","0.0-5.0-5.0-0.30","673caf90069aa7e3820136cc","not_provided","desktop","0","0","0","","","","","","working_memory","","null","<div class=""fixation"">+</div>","null","","","","","","","","","","","","","","","","",""
"html-keyboard-response","239","521665","0.0-5.0-5.0-1.30","673caf90069aa7e3820136cc","not_provided","desktop","0","0","0","","","","","","working_memory","","null","<img class='c' src=images/squares/blue.png><img class='f' src=images/squares/orange.png><img class='h' src=images/squares/brown.png><img class='l' src=images/squares/magenta.png><div class=""fixation"">+</div>","null","","","memory","exp","30","","","","","","","","","","","",""
"html-keyboard-response","240","522579","0.0-5.0-5.0-2.30","673caf90069aa7e3820136cc","not_provided","desktop","0","0","0","","","","","","working_memory","","null","<div class=""fixation"">+</div>","null","","","","","","","","","","","","","","","","",""
"html-keyboard-response","241","524780","0.0-5.0-5.0-3.30","673caf90069aa7e3820136cc","not_provided","desktop","0","0","0","","","","","","working_memory","","2198","<img class='f' src=images/squares/black.png><div class=""fixation"">+</div>","k","","","test_squares","exp","30","4","k","true","sk","d","","","","","","",""
"html-keyboard-response","242","525288","0.0-5.0-5.0-4.30","673caf90069aa7e3820136cc","not_provided","desktop","0","0","0","","","","","","working_memory","","null","<div class=""fixation"">Correct</div>","null","","","","","","","","","","","","","","","","",""
"html-keyboard-response","243","526294","0.0-5.0-5.0-0.31","673caf90069aa7e3820136cc","not_provided","desktop","0","0","0","","","","","","working_memory","","null","<div class=""fixation"">+</div>","null","","","","","","","","","","","","","","","","",""
"html-keyboard-response","244","526509","0.0-5.0-5.0-1.31","673caf90069aa7e3820136cc","not_provided","desktop","0","0","0","","","","","","working_memory","","null","<img class='a' src=images/squares/black.png><img class='f' src=images/squares/green.png><img class='i' src=images/squares/blue.png><img class='j' src=images/squares/red.png><div class=""fixation"">+</div>","null","","","memory","exp","31","","","","","","","","","","","",""
"html-keyboard-response","245","527421","0.0-5.0-5.0-2.31","673caf90069aa7e3820136cc","not_provided","desktop","0","0","0","","","","","","working_memory","","null","<div class=""fixation"">+</div>","null","","","","","","","","","","","","","","","","",""
"html-keyboard-response","246","528243","0.0-5.0-5.0-3.31","673caf90069aa7e3820136cc","not_provided","desktop","0","0","0","","","","","","working_memory","","820","<img class='j' src=images/squares/red.png><div class=""fixation"">+</div>","s","","","test_squares","exp","31","4","s","true","sk","s","","","","","","",""
"html-keyboard-response","247","528757","0.0-5.0-5.0-4.31","673caf90069aa7e3820136cc","not_provided","desktop","0","0","0","","","","","","working_memory","","null","<div class=""fixation"">Correct</div>","null","","","","","","","","","","","","","","","","",""
"html-keyboard-response","248","529765","0.0-5.0-5.0-0.32","673caf90069aa7e3820136cc","not_provided","desktop","0","0","0","","","","","","working_memory","","null","<div class=""fixation"">+</div>","null","","","","","","","","","","","","","","","","",""
"html-keyboard-response","249","529979","0.0-5.0-5.0-1.32","673caf90069aa7e3820136cc","not_provided","desktop","0","0","0","","","","","","working_memory","","null","<img class='c' src=images/squares/cyan.png><img class='d' src=images/squares/black.png><img class='h' src=images/squares/red.png><img class='k' src=images/squares/green.png><div class=""fixation"">+</div>","null","","","memory","exp","32","","","","","","","","","","","",""
"html-keyboard-response","250","530881","0.0-5.0-5.0-2.32","673caf90069aa7e3820136cc","not_provided","desktop","0","0","0","","","","","","working_memory","","null","<div class=""fixation"">+</div>","null","","","","","","","","","","","","","","","","",""
"html-keyboard-response","251","531620","0.0-5.0-5.0-3.32","673caf90069aa7e3820136cc","not_provided","desktop","0","0","0","","","","","","working_memory","","737","<img class='c' src=images/squares/cyan.png><div class=""fixation"">+</div>","s","","","test_squares","exp","32","4","s","true","sk","s","","","","","","",""
"html-keyboard-response","252","532130","0.0-5.0-5.0-4.32","673caf90069aa7e3820136cc","not_provided","desktop","0","0","0","","","","","","working_memory","","null","<div class=""fixation"">Correct</div>","null","","","","","","","","","","","","","","","","",""
"html-keyboard-response","253","533149","0.0-5.0-5.0-0.33","673caf90069aa7e3820136cc","not_provided","desktop","0","0","0","","","","","","working_memory","","null","<div class=""fixation"">+</div>","null","","","","","","","","","","","","","","","","",""
"html-keyboard-response","254","533360","0.0-5.0-5.0-1.33","673caf90069aa7e3820136cc","not_provided","desktop","0","0","0","","","","","","working_memory","","null","<img class='b' src=images/squares/blue.png><img class='a' src=images/squares/black.png><img class='e' src=images/squares/yellow.png><img class='f' src=images/squares/green.png><img class='g' src=images/squares/cyan.png><img class='h' src=images/squares/brown.png><img class='l' src=images/squares/orange.png><img class='j' src=images/squares/magenta.png><div class=""fixation"">+</div>","null","","","memory","exp","33","","","","","","","","","","","",""
"html-keyboard-response","255","534264","0.0-5.0-5.0-2.33","673caf90069aa7e3820136cc","not_provided","desktop","0","0","0","","","","","","working_memory","","null","<div class=""fixation"">+</div>","null","","","","","","","","","","","","","","","","",""
"html-keyboard-response","256","535539","0.0-5.0-5.0-3.33","673caf90069aa7e3820136cc","not_provided","desktop","0","0","0","","","","","","working_memory","","1274","<img class='f' src=images/squares/green.png><div class=""fixation"">+</div>","s","","","test_squares","exp","33","8","s","true","sk","s","","","","","","",""
"html-keyboard-response","257","536044","0.0-5.0-5.0-4.33","673caf90069aa7e3820136cc","not_provided","desktop","0","0","0","","","","","","working_memory","","null","<div class=""fixation"">Correct</div>","null","","","","","","","","","","","","","","","","",""
"html-keyboard-response","258","537053","0.0-5.0-5.0-0.34","673caf90069aa7e3820136cc","not_provided","desktop","0","0","0","","","","","","working_memory","","null","<div class=""fixation"">+</div>","null","","","","","","","","","","","","","","","","",""
"html-keyboard-response","259","537261","0.0-5.0-5.0-1.34","673caf90069aa7e3820136cc","not_provided","desktop","0","0","0","","","","","","working_memory","","null","<img class='a' src=images/squares/orange.png><img class='e' src=images/squares/cyan.png><img class='h' src=images/squares/red.png><img class='l' src=images/squares/magenta.png><div class=""fixation"">+</div>","null","","","memory","exp","34","","","","","","","","","","","",""
"html-keyboard-response","260","538178","0.0-5.0-5.0-2.34","673caf90069aa7e3820136cc","not_provided","desktop","0","0","0","","","","","","working_memory","","null","<div class=""fixation"">+</div>","null","","","","","","","","","","","","","","","","",""
"html-keyboard-response","261","538987","0.0-5.0-5.0-3.34","673caf90069aa7e3820136cc","not_provided","desktop","0","0","0","","","","","","working_memory","","806","<img class='e' src=images/squares/cyan.png><div class=""fixation"">+</div>","s","","","test_squares","exp","34","4","s","true","sk","s","","","","","","",""
"html-keyboard-response","262","539494","0.0-5.0-5.0-4.34","673caf90069aa7e3820136cc","not_provided","desktop","0","0","0","","","","","","working_memory","","null","<div class=""fixation"">Correct</div>","null","","","","","","","","","","","","","","","","",""
"html-keyboard-response","263","540509","0.0-5.0-5.0-0.35","673caf90069aa7e3820136cc","not_provided","desktop","0","0","0","","","","","","working_memory","","null","<div class=""fixation"">+</div>","null","","","","","","","","","","","","","","","","",""
"html-keyboard-response","264","540718","0.0-5.0-5.0-1.35","673caf90069aa7e3820136cc","not_provided","desktop","0","0","0","","","","","","working_memory","","null","<img class='a' src=images/squares/orange.png><img class='f' src=images/squares/brown.png><img class='h' src=images/squares/cyan.png><img class='j' src=images/squares/green.png><div class=""fixation"">+</div>","null","","","memory","exp","35","","","","","","","","","","","",""
"html-keyboard-response","265","541629","0.0-5.0-5.0-2.35","673caf90069aa7e3820136cc","not_provided","desktop","0","0","0","","","","","","working_memory","","null","<div class=""fixation"">+</div>","null","","","","","","","","","","","","","","","","",""
"html-keyboard-response","266","542272","0.0-5.0-5.0-3.35","673caf90069aa7e3820136cc","not_provided","desktop","0","0","0","","","","","","working_memory","","641","<img class='j' src=images/squares/green.png><div class=""fixation"">+</div>","s","","","test_squares","exp","35","4","s","true","sk","s","","","","","","",""
"html-keyboard-response","267","542788","0.0-5.0-5.0-4.35","673caf90069aa7e3820136cc","not_provided","desktop","0","0","0","","","","","","working_memory","","null","<div class=""fixation"">Correct</div>","null","","","","","","","","","","","","","","","","",""
"html-keyboard-response","268","543797","0.0-5.0-5.0-0.36","673caf90069aa7e3820136cc","not_provided","desktop","0","0","0","","","","","","working_memory","","null","<div class=""fixation"">+</div>","null","","","","","","","","","","","","","","","","",""
"html-keyboard-response","269","544003","0.0-5.0-5.0-1.36","673caf90069aa7e3820136cc","not_provided","desktop","0","0","0","","","","","","working_memory","","null","<img class='a' src=images/squares/green.png><img class='f' src=images/squares/black.png><img class='h' src=images/squares/yellow.png><img class='j' src=images/squares/brown.png><div class=""fixation"">+</div>","null","","","memory","exp","36","","","","","","","","","","","",""
"html-keyboard-response","270","544910","0.0-5.0-5.0-2.36","673caf90069aa7e3820136cc","not_provided","desktop","0","0","0","","","","","","working_memory","","null","<div class=""fixation"">+</div>","null","","","","","","","","","","","","","","","","",""
"html-keyboard-response","271","545746","0.0-5.0-5.0-3.36","673caf90069aa7e3820136cc","not_provided","desktop","0","0","0","","","","","","working_memory","","834","<img class='a' src=images/squares/green.png><div class=""fixation"">+</div>","s","","","test_squares","exp","36","4","s","true","sk","s","","","","","","",""
"html-keyboard-response","272","546262","0.0-5.0-5.0-4.36","673caf90069aa7e3820136cc","not_provided","desktop","0","0","0","","","","","","working_memory","","null","<div class=""fixation"">Correct</div>","null","","","","","","","","","","","","","","","","",""
"html-keyboard-response","273","547274","0.0-5.0-5.0-0.37","673caf90069aa7e3820136cc","not_provided","desktop","0","0","0","","","","","","working_memory","","null","<div class=""fixation"">+</div>","null","","","","","","","","","","","","","","","","",""
"html-keyboard-response","274","547488","0.0-5.0-5.0-1.37","673caf90069aa7e3820136cc","not_provided","desktop","0","0","0","","","","","","working_memory","","null","<img class='c' src=images/squares/yellow.png><img class='a' src=images/squares/blue.png><img class='f' src=images/squares/cyan.png><img class='e' src=images/squares/red.png><img class='g' src=images/squares/black.png><img class='h' src=images/squares/brown.png><img class='l' src=images/squares/green.png><img class='k' src=images/squares/magenta.png><div class=""fixation"">+</div>","null","","","memory","exp","37","","","","","","","","","","","",""
"html-keyboard-response","275","548399","0.0-5.0-5.0-2.37","673caf90069aa7e3820136cc","not_provided","desktop","0","0","0","","","","","","working_memory","","null","<div class=""fixation"">+</div>","null","","","","","","","","","","","","","","","","",""
"html-keyboard-response","276","548973","0.0-5.0-5.0-3.37","673caf90069aa7e3820136cc","not_provided","desktop","0","0","0","","","","","","working_memory","","573","<img class='e' src=images/squares/red.png><div class=""fixation"">+</div>","s","","","test_squares","exp","37","8","s","true","sk","s","","","","","","",""
"html-keyboard-response","277","549481","0.0-5.0-5.0-4.37","673caf90069aa7e3820136cc","not_provided","desktop","0","0","0","","","","","","working_memory","","null","<div class=""fixation"">Correct</div>","null","","","","","","","","","","","","","","","","",""
"html-keyboard-response","278","550499","0.0-5.0-5.0-0.38","673caf90069aa7e3820136cc","not_provided","desktop","0","0","0","","","","","","working_memory","","null","<div class=""fixation"">+</div>","null","","","","","","","","","","","","","","","","",""
"html-keyboard-response","279","550705","0.0-5.0-5.0-1.38","673caf90069aa7e3820136cc","not_provided","desktop","0","0","0","","","","","","working_memory","","null","<img class='b' src=images/squares/orange.png><img class='d' src=images/squares/blue.png><img class='g' src=images/squares/magenta.png><img class='j' src=images/squares/yellow.png><div class=""fixation"">+</div>","null","","","memory","exp","38","","","","","","","","","","","",""
"html-keyboard-response","280","551611","0.0-5.0-5.0-2.38","673caf90069aa7e3820136cc","not_provided","desktop","0","0","0","","","","","","working_memory","","null","<div class=""fixation"">+</div>","null","","","","","","","","","","","","","","","","",""
"html-keyboard-response","281","552245","0.0-5.0-5.0-3.38","673caf90069aa7e3820136cc","not_provided","desktop","0","0","0","","","","","","working_memory","","632","<img class='d' src=images/squares/black.png><div class=""fixation"">+</div>","k","","","test_squares","exp","38","4","k","true","sk","d","","","","","","",""
"html-keyboard-response","282","552748","0.0-5.0-5.0-4.38","673caf90069aa7e3820136cc","not_provided","desktop","0","0","0","","","","","","working_memory","","null","<div class=""fixation"">Correct</div>","null","","","","","","","","","","","","","","","","",""
"html-keyboard-response","283","553766","0.0-5.0-5.0-0.39","673caf90069aa7e3820136cc","not_provided","desktop","0","0","0","","","","","","working_memory","","null","<div class=""fixation"">+</div>","null","","","","","","","","","","","","","","","","",""
"html-keyboard-response","284","553971","0.0-5.0-5.0-1.39","673caf90069aa7e3820136cc","not_provided","desktop","0","0","0","","","","","","working_memory","","null","<img class='b' src=images/squares/black.png><img class='c' src=images/squares/orange.png><img class='f' src=images/squares/yellow.png><img class='e' src=images/squares/cyan.png><img class='g' src=images/squares/green.png><img class='h' src=images/squares/brown.png><img class='l' src=images/squares/red.png><img class='j' src=images/squares/blue.png><div class=""fixation"">+</div>","null","","","memory","exp","39","","","","","","","","","","","",""
"html-keyboard-response","285","554877","0.0-5.0-5.0-2.39","673caf90069aa7e3820136cc","not_provided","desktop","0","0","0","","","","","","working_memory","","null","<div class=""fixation"">+</div>","null","","","","","","","","","","","","","","","","",""
"html-keyboard-response","286","555558","0.0-5.0-5.0-3.39","673caf90069aa7e3820136cc","not_provided","desktop","0","0","0","","","","","","working_memory","","678","<img class='e' src=images/squares/cyan.png><div class=""fixation"">+</div>","s","","","test_squares","exp","39","8","s","true","sk","s","","","","","","",""
"html-keyboard-response","287","556069","0.0-5.0-5.0-4.39","673caf90069aa7e3820136cc","not_provided","desktop","0","0","0","","","","","","working_memory","","null","<div class=""fixation"">Correct</div>","null","","","","","","","","","","","","","","","","",""
"html-keyboard-response","288","557087","0.0-5.0-5.0-0.40","673caf90069aa7e3820136cc","not_provided","desktop","0","0","0","","","","","","working_memory","","null","<div class=""fixation"">+</div>","null","","","","","","","","","","","","","","","","",""
"html-keyboard-response","289","557290","0.0-5.0-5.0-1.40","673caf90069aa7e3820136cc","not_provided","desktop","0","0","0","","","","","","working_memory","","null","<img class='a' src=images/squares/orange.png><img class='e' src=images/squares/yellow.png><img class='g' src=images/squares/blue.png><img class='k' src=images/squares/green.png><div class=""fixation"">+</div>","null","","","memory","exp","40","","","","","","","","","","","",""
"html-keyboard-response","290","558195","0.0-5.0-5.0-2.40","673caf90069aa7e3820136cc","not_provided","desktop","0","0","0","","","","","","working_memory","","null","<div class=""fixation"">+</div>","null","","","","","","","","","","","","","","","","",""
"html-keyboard-response","291","559292","0.0-5.0-5.0-3.40","673caf90069aa7e3820136cc","not_provided","desktop","0","0","0","","","","","","working_memory","","1094","<img class='a' src=images/squares/cyan.png><div class=""fixation"">+</div>","k","","","test_squares","exp","40","4","k","true","sk","d","","","","","","",""
"html-keyboard-response","292","559794","0.0-5.0-5.0-4.40","673caf90069aa7e3820136cc","not_provided","desktop","0","0","0","","","","","","working_memory","","null","<div class=""fixation"">Correct</div>","null","","","","","","","","","","","","","","","","",""
"html-keyboard-response","293","560797","0.0-5.0-5.0-0.41","673caf90069aa7e3820136cc","not_provided","desktop","0","0","0","","","","","","working_memory","","null","<div class=""fixation"">+</div>","null","","","","","","","","","","","","","","","","",""
"html-keyboard-response","294","561009","0.0-5.0-5.0-1.41","673caf90069aa7e3820136cc","not_provided","desktop","0","0","0","","","","","","working_memory","","null","<img class='b' src=images/squares/blue.png><img class='c' src=images/squares/magenta.png><img class='d' src=images/squares/black.png><img class='f' src=images/squares/brown.png><img class='h' src=images/squares/orange.png><img class='g' src=images/squares/green.png><img class='k' src=images/squares/yellow.png><img class='l' src=images/squares/red.png><div class=""fixation"">+</div>","null","","","memory","exp","41","","","","","","","","","","","",""
"html-keyboard-response","295","561921","0.0-5.0-5.0-2.41","673caf90069aa7e3820136cc","not_provided","desktop","0","0","0","","","","","","working_memory","","null","<div class=""fixation"">+</div>","null","","","","","","","","","","","","","","","","",""
"html-keyboard-response","296","562744","0.0-5.0-5.0-3.41","673caf90069aa7e3820136cc","not_provided","desktop","0","0","0","","","","","","working_memory","","821","<img class='k' src=images/squares/cyan.png><div class=""fixation"">+</div>","k","","","test_squares","exp","41","8","k","true","sk","d","","","","","","",""
"html-keyboard-response","297","563258","0.0-5.0-5.0-4.41","673caf90069aa7e3820136cc","not_provided","desktop","0","0","0","","","","","","working_memory","","null","<div class=""fixation"">Correct</div>","null","","","","","","","","","","","","","","","","",""
"html-keyboard-response","298","564265","0.0-5.0-5.0-0.42","673caf90069aa7e3820136cc","not_provided","desktop","0","0","0","","","","","","working_memory","","null","<div class=""fixation"">+</div>","null","","","","","","","","","","","","","","","","",""
"html-keyboard-response","299","564477","0.0-5.0-5.0-1.42","673caf90069aa7e3820136cc","not_provided","desktop","0","0","0","","","","","","working_memory","","null","<img class='b' src=images/squares/green.png><img class='c' src=images/squares/blue.png><img class='e' src=images/squares/brown.png><img class='d' src=images/squares/cyan.png><img class='h' src=images/squares/orange.png><img class='g' src=images/squares/red.png><img class='k' src=images/squares/magenta.png><img class='j' src=images/squares/yellow.png><div class=""fixation"">+</div>","null","","","memory","exp","42","","","","","","","","","","","",""
"html-keyboard-response","300","565388","0.0-5.0-5.0-2.42","673caf90069aa7e3820136cc","not_provided","desktop","0","0","0","","","","","","working_memory","","null","<div class=""fixation"">+</div>","null","","","","","","","","","","","","","","","","",""
"html-keyboard-response","301","566630","0.0-5.0-5.0-3.42","673caf90069aa7e3820136cc","not_provided","desktop","0","0","0","","","","","","working_memory","","1239","<img class='e' src=images/squares/black.png><div class=""fixation"">+</div>","s","","","test_squares","exp","42","8","k","false","sk","d","","","","","","",""
"html-keyboard-response","302","567135","0.0-5.0-5.0-4.42","673caf90069aa7e3820136cc","not_provided","desktop","0","0","0","","","","","","working_memory","","null","<div class=""fixation"">Incorrect</div>","null","","","","","","","","","","","","","","","","",""
"html-keyboard-response","303","568138","0.0-5.0-5.0-0.43","673caf90069aa7e3820136cc","not_provided","desktop","0","0","0","","","","","","working_memory","","null","<div class=""fixation"">+</div>","null","","","","","","","","","","","","","","","","",""
