"trial_type","trial_index","time_elapsed","internal_node_id","subject_id","study_id","device_type","blur_count","fullscreen_exit_count","failed_attention_checks","success","timeout","failed_images","failed_audio","failed_video","phase","value","rt","stimulus","response","view_history","question_order","trial_name","block_type","trial_num","set_size","correct_response","accuracy","mapping","condition","prompt","flipped","attention","expected_answer","category","question_index","task"
"pavlovia","0","1757","0.0-0.0","609a83645a6b336762951202","not_provided","desktop","0","0","0","","","","","","","","","","","","","","","","","","","","","","","","","","",""
"preload","1","3290","0.0-2.0","609a83645a6b336762951202","not_provided","desktop","0","0","0","true","false","[]","[]","[]","","","","","","","","","","","","","","","","","","","","","",""
"html-keyboard-response","2","29139","0.0-3.0-0.0","609a83645a6b336762951202","not_provided","desktop","0","0","0","","","","","","captcha","","","","","","","","","","","","","","","","","","","","",""
"fullscreen","3","54855","0.0-4.0","609a83645a6b336762951202","not_provided","desktop","0","0","0","true","","","","","setup","","","","","","","","","","","","","","","","","","","","",""
"call-function","4","54858","0.0-5.0-0.0","609a83645a6b336762951202","not_provided","desktop","0","0","0","","","","","","working_memory","","","","","","","","","","","","","","","","","","","","",""
"html-keyboard-response","5","77482","0.0-5.0-1.0","609a83645a6b336762951202","not_provided","desktop","0","0","0","","","","","","working_memory","","22620","<div style=""text-align:center;font-family:sans-serif;""><p>Welcome to the luck game experiment!</p><p>This two-day experiment takes part in a study aimed at developing better clinical treatments.</p><p>We appreciate your participation and require your full concentration.</p><br><p>This is a two-day study. Payment (£6/hour) is only given upon completing both parts today and tomorrow.</p><p>You must finish the second part for compensation. After today, you'll receive an invitation for tomorrow's session.</p><p>Please ensure you can attend both sessions before proceeding. Otherwise, you may exit now.</p><p>If you have any questions, please contact us via prolific.</p><br><p>Please stay attentive and in fullscreen mode to ensure payment.</p><p>Thank you for participating!</p><br><p id=""continue-prompt"" style=""visibility:hidden;""><b>Press any key to continue.</b></p></div>"," ","","","","","","","","","","","","","","","","",""
"instructions","6","128718","0.0-5.0-2.0-0.0","609a83645a6b336762951202","not_provided","desktop","0","0","0","","","","","","working_memory","","51235","","","[{""page_index"":0,""viewing_time"":1305},{""page_index"":1,""viewing_time"":1278},{""page_index"":2,""viewing_time"":3849},{""page_index"":3,""viewing_time"":3161},{""page_index"":4,""viewing_time"":8105},{""page_index"":5,""viewing_time"":7808},{""page_index"":6,""viewing_time"":15609},{""page_index"":7,""viewing_time"":5617},{""page_index"":8,""viewing_time"":4502}]","","","","","","","","","","","","","","","",""
"survey-multi-choice","7","157188","0.0-5.0-2.0-1.0","609a83645a6b336762951202","not_provided","desktop","0","0","0","","","","","","working_memory","","28461","","{""set_size"":""4 or 8"",""steps"":""True"",""choose_square"":""Press the 's' or 'k' key."",""remember"":""The colors and locations of the 'memory' squares"",""task"":""To tell if the 'test' square is in the same color as the square previously appearing in this location""}","","[0,1,2,3,4]","test_squares_quiz","","","","","","","","","","","","","",""
"html-keyboard-response","8","177015","0.0-5.0-3.0-0.0","609a83645a6b336762951202","not_provided","desktop","0","0","0","","","","","","working_memory","","19821","<p>We will now start some practice trials.<br><b>The practice trials will also include some trials in which you will need to remember only one square to make sure you understood the instructions.</b><br>You may already want to be ready with your fingers on '<b>s</b>' and '<b>k</b>'.<br><img class=""wm-example-img"" src=""images/examples/keyboard.png""><br><b style=""font-size:1.2em;"">&lsquo;S&rsquo; = SAME &nbsp;&nbsp;&nbsp; &lsquo;K&rsquo; = DIFFERENT</b><br><br><u>Please try to be as accurate as possible.</u><br><br><b>Press any key to begin</b></p>","k","","","","","","","","","","","","","","","","",""
"html-keyboard-response","9","179030","0.0-5.0-3.0-1.0-0.0","609a83645a6b336762951202","not_provided","desktop","0","0","0","","","","","","working_memory","","null","<div class=""fixation"">+</div>","null","","","","","","","","","","","","","","","","",""
"html-keyboard-response","10","179234","0.0-5.0-3.0-1.0-1.0","609a83645a6b336762951202","not_provided","desktop","0","0","0","","","","","","working_memory","","null","<img class='upper3' src=images/squares/orange.png><div class=""fixation"">+</div>","null","","","memory","practice","0","1","","","","","","","","","","",""
"html-keyboard-response","11","180147","0.0-5.0-3.0-1.0-2.0","609a83645a6b336762951202","not_provided","desktop","0","0","0","","","","","","working_memory","","null","<div class=""fixation"">+</div>","null","","","","","","","","","","","","","","","","",""
"html-keyboard-response","12","180782","0.0-5.0-3.0-1.0-3.0","609a83645a6b336762951202","not_provided","desktop","0","0","0","","","","","","working_memory","","632","<img class='upper3' src=images/squares/orange.png><div class=""fixation"">+</div>","s","","","test","practice","0","1","s","true","","","","","","","","",""
"html-keyboard-response","13","181291","0.0-5.0-3.0-1.0-4.0","609a83645a6b336762951202","not_provided","desktop","0","0","0","","","","","","working_memory","","null","<div class=""fixation"">Correct</div>","null","","","","","","","","","","","","","","","","",""
"html-keyboard-response","14","182301","0.0-5.0-3.0-1.0-0.1","609a83645a6b336762951202","not_provided","desktop","0","0","0","","","","","","working_memory","","null","<div class=""fixation"">+</div>","null","","","","","","","","","","","","","","","","",""
"html-keyboard-response","15","182505","0.0-5.0-3.0-1.0-1.1","609a83645a6b336762951202","not_provided","desktop","0","0","0","","","","","","working_memory","","null","<img class='b' src=images/squares/yellow.png><img class='e' src=images/squares/red.png><img class='g' src=images/squares/brown.png><img class='j' src=images/squares/green.png><div class=""fixation"">+</div>","null","","","memory","practice","1","4","","","","","","","","","","",""
"html-keyboard-response","16","183409","0.0-5.0-3.0-1.0-2.1","609a83645a6b336762951202","not_provided","desktop","0","0","0","","","","","","working_memory","","null","<div class=""fixation"">+</div>","null","","","","","","","","","","","","","","","","",""
"html-keyboard-response","17","184149","0.0-5.0-3.0-1.0-3.1","609a83645a6b336762951202","not_provided","desktop","0","0","0","","","","","","working_memory","","737","<img class='g' src=images/squares/brown.png><div class=""fixation"">+</div>","s","","","test","practice","1","4","s","true","","","","","","","","",""
"html-keyboard-response","18","184651","0.0-5.0-3.0-1.0-4.1","609a83645a6b336762951202","not_provided","desktop","0","0","0","","","","","","working_memory","","null","<div class=""fixation"">Correct</div>","null","","","","","","","","","","","","","","","","",""
"html-keyboard-response","19","185654","0.0-5.0-3.0-1.0-0.2","609a83645a6b336762951202","not_provided","desktop","0","0","0","","","","","","working_memory","","null","<div class=""fixation"">+</div>","null","","","","","","","","","","","","","","","","",""
"html-keyboard-response","20","185855","0.0-5.0-3.0-1.0-1.2","609a83645a6b336762951202","not_provided","desktop","0","0","0","","","","","","working_memory","","null","<img class='upper3' src=images/squares/green.png><div class=""fixation"">+</div>","null","","","memory","practice","2","1","","","","","","","","","","",""
"html-keyboard-response","21","186758","0.0-5.0-3.0-1.0-2.2","609a83645a6b336762951202","not_provided","desktop","0","0","0","","","","","","working_memory","","null","<div class=""fixation"">+</div>","null","","","","","","","","","","","","","","","","",""
"html-keyboard-response","22","187321","0.0-5.0-3.0-1.0-3.2","609a83645a6b336762951202","not_provided","desktop","0","0","0","","","","","","working_memory","","561","<img class='upper3' src=images/squares/orange.png><div class=""fixation"">+</div>","k","","","test","practice","2","1","k","true","","","","","","","","",""
"html-keyboard-response","23","187827","0.0-5.0-3.0-1.0-4.2","609a83645a6b336762951202","not_provided","desktop","0","0","0","","","","","","working_memory","","null","<div class=""fixation"">Correct</div>","null","","","","","","","","","","","","","","","","",""
"html-keyboard-response","24","188834","0.0-5.0-3.0-1.0-0.3","609a83645a6b336762951202","not_provided","desktop","0","0","0","","","","","","working_memory","","null","<div class=""fixation"">+</div>","null","","","","","","","","","","","","","","","","",""
"html-keyboard-response","25","189038","0.0-5.0-3.0-1.0-1.3","609a83645a6b336762951202","not_provided","desktop","0","0","0","","","","","","working_memory","","null","<img class='b' src=images/squares/black.png><img class='d' src=images/squares/cyan.png><img class='i' src=images/squares/green.png><img class='k' src=images/squares/brown.png><div class=""fixation"">+</div>","null","","","memory","practice","3","4","","","","","","","","","","",""
"html-keyboard-response","26","189942","0.0-5.0-3.0-1.0-2.3","609a83645a6b336762951202","not_provided","desktop","0","0","0","","","","","","working_memory","","null","<div class=""fixation"">+</div>","null","","","","","","","","","","","","","","","","",""
"html-keyboard-response","27","190671","0.0-5.0-3.0-1.0-3.3","609a83645a6b336762951202","not_provided","desktop","0","0","0","","","","","","working_memory","","727","<img class='b' src=images/squares/black.png><div class=""fixation"">+</div>","s","","","test","practice","3","4","s","true","","","","","","","","",""
"html-keyboard-response","28","191174","0.0-5.0-3.0-1.0-4.3","609a83645a6b336762951202","not_provided","desktop","0","0","0","","","","","","working_memory","","null","<div class=""fixation"">Correct</div>","null","","","","","","","","","","","","","","","","",""
"html-keyboard-response","29","192177","0.0-5.0-3.0-1.0-0.4","609a83645a6b336762951202","not_provided","desktop","0","0","0","","","","","","working_memory","","null","<div class=""fixation"">+</div>","null","","","","","","","","","","","","","","","","",""
"html-keyboard-response","30","192382","0.0-5.0-3.0-1.0-1.4","609a83645a6b336762951202","not_provided","desktop","0","0","0","","","","","","working_memory","","null","<img class='lower1' src=images/squares/green.png><div class=""fixation"">+</div>","null","","","memory","practice","4","1","","","","","","","","","","",""
"html-keyboard-response","31","193287","0.0-5.0-3.0-1.0-2.4","609a83645a6b336762951202","not_provided","desktop","0","0","0","","","","","","working_memory","","null","<div class=""fixation"">+</div>","null","","","","","","","","","","","","","","","","",""
"html-keyboard-response","32","193961","0.0-5.0-3.0-1.0-3.4","609a83645a6b336762951202","not_provided","desktop","0","0","0","","","","","","working_memory","","672","<img class='lower1' src=images/squares/green.png><div class=""fixation"">+</div>","s","","","test","practice","4","1","s","true","","","","","","","","",""
"html-keyboard-response","33","194470","0.0-5.0-3.0-1.0-4.4","609a83645a6b336762951202","not_provided","desktop","0","0","0","","","","","","working_memory","","null","<div class=""fixation"">Correct</div>","null","","","","","","","","","","","","","","","","",""
"html-keyboard-response","34","195475","0.0-5.0-3.0-1.0-0.5","609a83645a6b336762951202","not_provided","desktop","0","0","0","","","","","","working_memory","","null","<div class=""fixation"">+</div>","null","","","","","","","","","","","","","","","","",""
"html-keyboard-response","35","195679","0.0-5.0-3.0-1.0-1.5","609a83645a6b336762951202","not_provided","desktop","0","0","0","","","","","","working_memory","","null","<img class='a' src=images/squares/blue.png><img class='f' src=images/squares/orange.png><img class='h' src=images/squares/magenta.png><img class='j' src=images/squares/cyan.png><div class=""fixation"">+</div>","null","","","memory","practice","5","4","","","","","","","","","","",""
"html-keyboard-response","36","196587","0.0-5.0-3.0-1.0-2.5","609a83645a6b336762951202","not_provided","desktop","0","0","0","","","","","","working_memory","","null","<div class=""fixation"">+</div>","null","","","","","","","","","","","","","","","","",""
"html-keyboard-response","37","197138","0.0-5.0-3.0-1.0-3.5","609a83645a6b336762951202","not_provided","desktop","0","0","0","","","","","","working_memory","","550","<img class='f' src=images/squares/orange.png><div class=""fixation"">+</div>","s","","","test","practice","5","4","s","true","","","","","","","","",""
"html-keyboard-response","38","197643","0.0-5.0-3.0-1.0-4.5","609a83645a6b336762951202","not_provided","desktop","0","0","0","","","","","","working_memory","","null","<div class=""fixation"">Correct</div>","null","","","","","","","","","","","","","","","","",""
"html-keyboard-response","39","198645","0.0-5.0-3.0-1.0-0.6","609a83645a6b336762951202","not_provided","desktop","0","0","0","","","","","","working_memory","","null","<div class=""fixation"">+</div>","null","","","","","","","","","","","","","","","","",""
"html-keyboard-response","40","198847","0.0-5.0-3.0-1.0-1.6","609a83645a6b336762951202","not_provided","desktop","0","0","0","","","","","","working_memory","","null","<img class='c' src=images/squares/red.png><img class='f' src=images/squares/cyan.png><img class='h' src=images/squares/orange.png><img class='k' src=images/squares/brown.png><div class=""fixation"">+</div>","null","","","memory","practice","6","4","","","","","","","","","","",""
"html-keyboard-response","41","199750","0.0-5.0-3.0-1.0-2.6","609a83645a6b336762951202","not_provided","desktop","0","0","0","","","","","","working_memory","","null","<div class=""fixation"">+</div>","null","","","","","","","","","","","","","","","","",""
"html-keyboard-response","42","200545","0.0-5.0-3.0-1.0-3.6","609a83645a6b336762951202","not_provided","desktop","0","0","0","","","","","","working_memory","","793","<img class='c' src=images/squares/magenta.png><div class=""fixation"">+</div>","k","","","test","practice","6","4","k","true","","","","","","","","",""
"html-keyboard-response","43","201049","0.0-5.0-3.0-1.0-4.6","609a83645a6b336762951202","not_provided","desktop","0","0","0","","","","","","working_memory","","null","<div class=""fixation"">Correct</div>","null","","","","","","","","","","","","","","","","",""
"html-keyboard-response","44","202054","0.0-5.0-3.0-1.0-0.7","609a83645a6b336762951202","not_provided","desktop","0","0","0","","","","","","working_memory","","null","<div class=""fixation"">+</div>","null","","","","","","","","","","","","","","","","",""
"html-keyboard-response","45","202263","0.0-5.0-3.0-1.0-1.7","609a83645a6b336762951202","not_provided","desktop","0","0","0","","","","","","working_memory","","null","<img class='b' src=images/squares/black.png><img class='d' src=images/squares/green.png><img class='h' src=images/squares/red.png><img class='k' src=images/squares/orange.png><div class=""fixation"">+</div>","null","","","memory","practice","7","4","","","","","","","","","","",""
"html-keyboard-response","46","203170","0.0-5.0-3.0-1.0-2.7","609a83645a6b336762951202","not_provided","desktop","0","0","0","","","","","","working_memory","","null","<div class=""fixation"">+</div>","null","","","","","","","","","","","","","","","","",""
"html-keyboard-response","47","204300","0.0-5.0-3.0-1.0-3.7","609a83645a6b336762951202","not_provided","desktop","0","0","0","","","","","","working_memory","","1128","<img class='b' src=images/squares/black.png><div class=""fixation"">+</div>","s","","","test","practice","7","4","s","true","","","","","","","","",""
"html-keyboard-response","48","204804","0.0-5.0-3.0-1.0-4.7","609a83645a6b336762951202","not_provided","desktop","0","0","0","","","","","","working_memory","","null","<div class=""fixation"">Correct</div>","null","","","","","","","","","","","","","","","","",""
"html-keyboard-response","49","205806","0.0-5.0-3.0-1.0-0.8","609a83645a6b336762951202","not_provided","desktop","0","0","0","","","","","","working_memory","","null","<div class=""fixation"">+</div>","null","","","","","","","","","","","","","","","","",""
"html-keyboard-response","50","206012","0.0-5.0-3.0-1.0-1.8","609a83645a6b336762951202","not_provided","desktop","0","0","0","","","","","","working_memory","","null","<img class='b' src=images/squares/yellow.png><img class='a' src=images/squares/green.png><img class='e' src=images/squares/cyan.png><img class='d' src=images/squares/red.png><img class='h' src=images/squares/magenta.png><img class='i' src=images/squares/orange.png><img class='l' src=images/squares/black.png><img class='k' src=images/squares/blue.png><div class=""fixation"">+</div>","null","","","memory","practice","8","8","","","","","","","","","","",""
"html-keyboard-response","51","206921","0.0-5.0-3.0-1.0-2.8","609a83645a6b336762951202","not_provided","desktop","0","0","0","","","","","","working_memory","","null","<div class=""fixation"">+</div>","null","","","","","","","","","","","","","","","","",""
"html-keyboard-response","52","207462","0.0-5.0-3.0-1.0-3.8","609a83645a6b336762951202","not_provided","desktop","0","0","0","","","","","","working_memory","","540","<img class='i' src=images/squares/orange.png><div class=""fixation"">+</div>","k","","","test","practice","8","8","s","false","","","","","","","","",""
"html-keyboard-response","53","207967","0.0-5.0-3.0-1.0-4.8","609a83645a6b336762951202","not_provided","desktop","0","0","0","","","","","","working_memory","","null","<div class=""fixation"">Incorrect</div>","null","","","","","","","","","","","","","","","","",""
"html-keyboard-response","54","208971","0.0-5.0-3.0-1.0-0.9","609a83645a6b336762951202","not_provided","desktop","0","0","0","","","","","","working_memory","","null","<div class=""fixation"">+</div>","null","","","","","","","","","","","","","","","","",""
"html-keyboard-response","55","209175","0.0-5.0-3.0-1.0-1.9","609a83645a6b336762951202","not_provided","desktop","0","0","0","","","","","","working_memory","","null","<img class='a' src=images/squares/black.png><img class='b' src=images/squares/orange.png><img class='e' src=images/squares/magenta.png><img class='f' src=images/squares/green.png><img class='g' src=images/squares/red.png><img class='h' src=images/squares/brown.png><img class='k' src=images/squares/blue.png><img class='j' src=images/squares/yellow.png><div class=""fixation"">+</div>","null","","","memory","practice","9","8","","","","","","","","","","",""
"html-keyboard-response","56","210079","0.0-5.0-3.0-1.0-2.9","609a83645a6b336762951202","not_provided","desktop","0","0","0","","","","","","working_memory","","null","<div class=""fixation"">+</div>","null","","","","","","","","","","","","","","","","",""
"html-keyboard-response","57","210573","0.0-5.0-3.0-1.0-3.9","609a83645a6b336762951202","not_provided","desktop","0","0","0","","","","","","working_memory","","492","<img class='h' src=images/squares/brown.png><div class=""fixation"">+</div>","s","","","test","practice","9","8","s","true","","","","","","","","",""
"html-keyboard-response","58","211079","0.0-5.0-3.0-1.0-4.9","609a83645a6b336762951202","not_provided","desktop","0","0","0","","","","","","working_memory","","null","<div class=""fixation"">Correct</div>","null","","","","","","","","","","","","","","","","",""
"html-keyboard-response","59","212082","0.0-5.0-3.0-1.0-0.10","609a83645a6b336762951202","not_provided","desktop","0","0","0","","","","","","working_memory","","null","<div class=""fixation"">+</div>","null","","","","","","","","","","","","","","","","",""
"html-keyboard-response","60","212288","0.0-5.0-3.0-1.0-1.10","609a83645a6b336762951202","not_provided","desktop","0","0","0","","","","","","working_memory","","null","<img class='c' src=images/squares/red.png><img class='a' src=images/squares/cyan.png><img class='e' src=images/squares/green.png><img class='d' src=images/squares/orange.png><img class='h' src=images/squares/blue.png><img class='i' src=images/squares/yellow.png><img class='l' src=images/squares/brown.png><img class='j' src=images/squares/black.png><div class=""fixation"">+</div>","null","","","memory","practice","10","8","","","","","","","","","","",""
"html-keyboard-response","61","213191","0.0-5.0-3.0-1.0-2.10","609a83645a6b336762951202","not_provided","desktop","0","0","0","","","","","","working_memory","","null","<div class=""fixation"">+</div>","null","","","","","","","","","","","","","","","","",""
"html-keyboard-response","62","213931","0.0-5.0-3.0-1.0-3.10","609a83645a6b336762951202","not_provided","desktop","0","0","0","","","","","","working_memory","","738","<img class='h' src=images/squares/magenta.png><div class=""fixation"">+</div>","s","","","test","practice","10","8","k","false","","","","","","","","",""
"html-keyboard-response","63","214439","0.0-5.0-3.0-1.0-4.10","609a83645a6b336762951202","not_provided","desktop","0","0","0","","","","","","working_memory","","null","<div class=""fixation"">Incorrect</div>","null","","","","","","","","","","","","","","","","",""
"html-keyboard-response","64","215444","0.0-5.0-3.0-1.0-0.11","609a83645a6b336762951202","not_provided","desktop","0","0","0","","","","","","working_memory","","null","<div class=""fixation"">+</div>","null","","","","","","","","","","","","","","","","",""
"html-keyboard-response","65","215649","0.0-5.0-3.0-1.0-1.11","609a83645a6b336762951202","not_provided","desktop","0","0","0","","","","","","working_memory","","null","<img class='b' src=images/squares/brown.png><img class='f' src=images/squares/red.png><img class='h' src=images/squares/cyan.png><img class='k' src=images/squares/magenta.png><div class=""fixation"">+</div>","null","","","memory","practice","11","4","","","","","","","","","","",""
"html-keyboard-response","66","216554","0.0-5.0-3.0-1.0-2.11","609a83645a6b336762951202","not_provided","desktop","0","0","0","","","","","","working_memory","","null","<div class=""fixation"">+</div>","null","","","","","","","","","","","","","","","","",""
"html-keyboard-response","67","217275","0.0-5.0-3.0-1.0-3.11","609a83645a6b336762951202","not_provided","desktop","0","0","0","","","","","","working_memory","","719","<img class='f' src=images/squares/blue.png><div class=""fixation"">+</div>","k","","","test","practice","11","4","k","true","","","","","","","","",""
"html-keyboard-response","68","217778","0.0-5.0-3.0-1.0-4.11","609a83645a6b336762951202","not_provided","desktop","0","0","0","","","","","","working_memory","","null","<div class=""fixation"">Correct</div>","null","","","","","","","","","","","","","","","","",""
"html-keyboard-response","69","218780","0.0-5.0-3.0-1.0-0.12","609a83645a6b336762951202","not_provided","desktop","0","0","0","","","","","","working_memory","","null","<div class=""fixation"">+</div>","null","","","","","","","","","","","","","","","","",""
"html-keyboard-response","70","218986","0.0-5.0-3.0-1.0-1.12","609a83645a6b336762951202","not_provided","desktop","0","0","0","","","","","","working_memory","","null","<img class='upper1' src=images/squares/yellow.png><div class=""fixation"">+</div>","null","","","memory","practice","12","1","","","","","","","","","","",""
"html-keyboard-response","71","219889","0.0-5.0-3.0-1.0-2.12","609a83645a6b336762951202","not_provided","desktop","0","0","0","","","","","","working_memory","","null","<div class=""fixation"">+</div>","null","","","","","","","","","","","","","","","","",""
"html-keyboard-response","72","221273","0.0-5.0-3.0-1.0-3.12","609a83645a6b336762951202","not_provided","desktop","0","0","0","","","","","","working_memory","","1383","<img class='upper1' src=images/squares/cyan.png><div class=""fixation"">+</div>","k","","","test","practice","12","1","k","true","","","","","","","","",""
"html-keyboard-response","73","221775","0.0-5.0-3.0-1.0-4.12","609a83645a6b336762951202","not_provided","desktop","0","0","0","","","","","","working_memory","","null","<div class=""fixation"">Correct</div>","null","","","","","","","","","","","","","","","","",""
"html-keyboard-response","74","222777","0.0-5.0-3.0-1.0-0.13","609a83645a6b336762951202","not_provided","desktop","0","0","0","","","","","","working_memory","","null","<div class=""fixation"">+</div>","null","","","","","","","","","","","","","","","","",""
"html-keyboard-response","75","222979","0.0-5.0-3.0-1.0-1.13","609a83645a6b336762951202","not_provided","desktop","0","0","0","","","","","","working_memory","","null","<img class='a' src=images/squares/blue.png><img class='f' src=images/squares/brown.png><img class='g' src=images/squares/orange.png><img class='k' src=images/squares/red.png><div class=""fixation"">+</div>","null","","","memory","practice","13","4","","","","","","","","","","",""
"html-keyboard-response","76","223883","0.0-5.0-3.0-1.0-2.13","609a83645a6b336762951202","not_provided","desktop","0","0","0","","","","","","working_memory","","null","<div class=""fixation"">+</div>","null","","","","","","","","","","","","","","","","",""
"html-keyboard-response","77","224792","0.0-5.0-3.0-1.0-3.13","609a83645a6b336762951202","not_provided","desktop","0","0","0","","","","","","working_memory","","908","<img class='g' src=images/squares/magenta.png><div class=""fixation"">+</div>","k","","","test","practice","13","4","k","true","","","","","","","","",""
"html-keyboard-response","78","225294","0.0-5.0-3.0-1.0-4.13","609a83645a6b336762951202","not_provided","desktop","0","0","0","","","","","","working_memory","","null","<div class=""fixation"">Correct</div>","null","","","","","","","","","","","","","","","","",""
"html-keyboard-response","79","226299","0.0-5.0-3.0-1.0-0.14","609a83645a6b336762951202","not_provided","desktop","0","0","0","","","","","","working_memory","","null","<div class=""fixation"">+</div>","null","","","","","","","","","","","","","","","","",""
"html-keyboard-response","80","226504","0.0-5.0-3.0-1.0-1.14","609a83645a6b336762951202","not_provided","desktop","0","0","0","","","","","","working_memory","","null","<img class='lower2' src=images/squares/orange.png><div class=""fixation"">+</div>","null","","","memory","practice","14","1","","","","","","","","","","",""
"html-keyboard-response","81","227412","0.0-5.0-3.0-1.0-2.14","609a83645a6b336762951202","not_provided","desktop","0","0","0","","","","","","working_memory","","null","<div class=""fixation"">+</div>","null","","","","","","","","","","","","","","","","",""
"html-keyboard-response","82","228204","0.0-5.0-3.0-1.0-3.14","609a83645a6b336762951202","not_provided","desktop","0","0","0","","","","","","working_memory","","788","<img class='lower2' src=images/squares/green.png><div class=""fixation"">+</div>","k","","","test","practice","14","1","k","true","","","","","","","","",""
"html-keyboard-response","83","228705","0.0-5.0-3.0-1.0-4.14","609a83645a6b336762951202","not_provided","desktop","0","0","0","","","","","","working_memory","","null","<div class=""fixation"">Correct</div>","null","","","","","","","","","","","","","","","","",""
"html-keyboard-response","84","236244","0.0-5.0-4.0","609a83645a6b336762951202","not_provided","desktop","0","0","0","","","","","","working_memory","","7536","<div style=""text-align:center;font-family:sans-serif;""><p>Good job! You have finished the practice.</p><p>We will now start the real experiment.</p><p>Please try to be as accurate as possible.</p><p><b><u>Note: random guessing may risk your payment.</u></b></p><br><p><b>Press any key to begin.</b></p></div>","k","","","","","","","","","","","","","","","","",""
"html-keyboard-response","85","237250","0.0-5.0-5.0-0.0","609a83645a6b336762951202","not_provided","desktop","0","0","0","","","","","","working_memory","","null","<div class=""fixation"">+</div>","null","","","","","","","","","","","","","","","","",""
"html-keyboard-response","86","237457","0.0-5.0-5.0-1.0","609a83645a6b336762951202","not_provided","desktop","0","0","0","","","","","","working_memory","","null","<img class='a' src=images/squares/yellow.png><img class='c' src=images/squares/magenta.png><img class='f' src=images/squares/orange.png><img class='e' src=images/squares/green.png><img class='i' src=images/squares/brown.png><img class='g' src=images/squares/blue.png><img class='j' src=images/squares/red.png><img class='k' src=images/squares/cyan.png><div class=""fixation"">+</div>","null","","","memory","exp","0","","","","","","","","","","","",""
"html-keyboard-response","87","238361","0.0-5.0-5.0-2.0","609a83645a6b336762951202","not_provided","desktop","0","0","0","","","","","","working_memory","","null","<div class=""fixation"">+</div>","null","","","","","","","","","","","","","","","","",""
"html-keyboard-response","88","239139","0.0-5.0-5.0-3.0","609a83645a6b336762951202","not_provided","desktop","0","0","0","","","","","","working_memory","","777","<img class='j' src=images/squares/red.png><div class=""fixation"">+</div>","k","","","test_squares","exp","0","8","s","false","sk","s","","","","","","",""
"html-keyboard-response","89","239644","0.0-5.0-5.0-4.0","609a83645a6b336762951202","not_provided","desktop","0","0","0","","","","","","working_memory","","null","<div class=""fixation"">Incorrect</div>","null","","","","","","","","","","","","","","","","",""
"html-keyboard-response","90","240649","0.0-5.0-5.0-0.1","609a83645a6b336762951202","not_provided","desktop","0","0","0","","","","","","working_memory","","null","<div class=""fixation"">+</div>","null","","","","","","","","","","","","","","","","",""
"html-keyboard-response","91","240857","0.0-5.0-5.0-1.1","609a83645a6b336762951202","not_provided","desktop","0","0","0","","","","","","working_memory","","null","<img class='b' src=images/squares/red.png><img class='c' src=images/squares/black.png><img class='d' src=images/squares/green.png><img class='e' src=images/squares/yellow.png><img class='i' src=images/squares/brown.png><img class='g' src=images/squares/cyan.png><img class='k' src=images/squares/magenta.png><img class='j' src=images/squares/blue.png><div class=""fixation"">+</div>","null","","","memory","exp","1","","","","","","","","","","","",""
"html-keyboard-response","92","241760","0.0-5.0-5.0-2.1","609a83645a6b336762951202","not_provided","desktop","0","0","0","","","","","","working_memory","","null","<div class=""fixation"">+</div>","null","","","","","","","","","","","","","","","","",""
"html-keyboard-response","93","242336","0.0-5.0-5.0-3.1","609a83645a6b336762951202","not_provided","desktop","0","0","0","","","","","","working_memory","","575","<img class='j' src=images/squares/blue.png><div class=""fixation"">+</div>","s","","","test_squares","exp","1","8","s","true","sk","s","","","","","","",""
"html-keyboard-response","94","242841","0.0-5.0-5.0-4.1","609a83645a6b336762951202","not_provided","desktop","0","0","0","","","","","","working_memory","","null","<div class=""fixation"">Correct</div>","null","","","","","","","","","","","","","","","","",""
"html-keyboard-response","95","243844","0.0-5.0-5.0-0.2","609a83645a6b336762951202","not_provided","desktop","0","0","0","","","","","","working_memory","","null","<div class=""fixation"">+</div>","null","","","","","","","","","","","","","","","","",""
"html-keyboard-response","96","244046","0.0-5.0-5.0-1.2","609a83645a6b336762951202","not_provided","desktop","0","0","0","","","","","","working_memory","","null","<img class='a' src=images/squares/blue.png><img class='f' src=images/squares/black.png><img class='h' src=images/squares/orange.png><img class='k' src=images/squares/yellow.png><div class=""fixation"">+</div>","null","","","memory","exp","2","","","","","","","","","","","",""
"html-keyboard-response","97","244948","0.0-5.0-5.0-2.2","609a83645a6b336762951202","not_provided","desktop","0","0","0","","","","","","working_memory","","null","<div class=""fixation"">+</div>","null","","","","","","","","","","","","","","","","",""
"html-keyboard-response","98","245644","0.0-5.0-5.0-3.2","609a83645a6b336762951202","not_provided","desktop","0","0","0","","","","","","working_memory","","694","<img class='k' src=images/squares/green.png><div class=""fixation"">+</div>","k","","","test_squares","exp","2","4","k","true","sk","d","","","","","","",""
"html-keyboard-response","99","246147","0.0-5.0-5.0-4.2","609a83645a6b336762951202","not_provided","desktop","0","0","0","","","","","","working_memory","","null","<div class=""fixation"">Correct</div>","null","","","","","","","","","","","","","","","","",""
"html-keyboard-response","100","247156","0.0-5.0-5.0-0.3","609a83645a6b336762951202","not_provided","desktop","0","0","0","","","","","","working_memory","","null","<div class=""fixation"">+</div>","null","","","","","","","","","","","","","","","","",""
"html-keyboard-response","101","247360","0.0-5.0-5.0-1.3","609a83645a6b336762951202","not_provided","desktop","0","0","0","","","","","","working_memory","","null","<img class='b' src=images/squares/orange.png><img class='a' src=images/squares/yellow.png><img class='e' src=images/squares/red.png><img class='f' src=images/squares/blue.png><img class='h' src=images/squares/green.png><img class='g' src=images/squares/brown.png><img class='j' src=images/squares/cyan.png><img class='k' src=images/squares/black.png><div class=""fixation"">+</div>","null","","","memory","exp","3","","","","","","","","","","","",""
"html-keyboard-response","102","248264","0.0-5.0-5.0-2.3","609a83645a6b336762951202","not_provided","desktop","0","0","0","","","","","","working_memory","","null","<div class=""fixation"">+</div>","null","","","","","","","","","","","","","","","","",""
"html-keyboard-response","103","249065","0.0-5.0-5.0-3.3","609a83645a6b336762951202","not_provided","desktop","0","0","0","","","","","","working_memory","","799","<img class='h' src=images/squares/green.png><div class=""fixation"">+</div>","s","","","test_squares","exp","3","8","s","true","sk","s","","","","","","",""
"html-keyboard-response","104","249572","0.0-5.0-5.0-4.3","609a83645a6b336762951202","not_provided","desktop","0","0","0","","","","","","working_memory","","null","<div class=""fixation"">Correct</div>","null","","","","","","","","","","","","","","","","",""
"html-keyboard-response","105","250573","0.0-5.0-5.0-0.4","609a83645a6b336762951202","not_provided","desktop","0","0","0","","","","","","working_memory","","null","<div class=""fixation"">+</div>","null","","","","","","","","","","","","","","","","",""
"html-keyboard-response","106","250776","0.0-5.0-5.0-1.4","609a83645a6b336762951202","not_provided","desktop","0","0","0","","","","","","working_memory","","null","<img class='a' src=images/squares/red.png><img class='b' src=images/squares/orange.png><img class='e' src=images/squares/yellow.png><img class='d' src=images/squares/cyan.png><img class='i' src=images/squares/black.png><img class='g' src=images/squares/magenta.png><img class='j' src=images/squares/brown.png><img class='l' src=images/squares/green.png><div class=""fixation"">+</div>","null","","","memory","exp","4","","","","","","","","","","","",""
"html-keyboard-response","107","251680","0.0-5.0-5.0-2.4","609a83645a6b336762951202","not_provided","desktop","0","0","0","","","","","","working_memory","","null","<div class=""fixation"">+</div>","null","","","","","","","","","","","","","","","","",""
"html-keyboard-response","108","252213","0.0-5.0-5.0-3.4","609a83645a6b336762951202","not_provided","desktop","0","0","0","","","","","","working_memory","","531","<img class='e' src=images/squares/yellow.png><div class=""fixation"">+</div>","s","","","test_squares","exp","4","8","s","true","sk","s","","","","","","",""
"html-keyboard-response","109","252722","0.0-5.0-5.0-4.4","609a83645a6b336762951202","not_provided","desktop","0","0","0","","","","","","working_memory","","null","<div class=""fixation"">Correct</div>","null","","","","","","","","","","","","","","","","",""
"html-keyboard-response","110","253729","0.0-5.0-5.0-0.5","609a83645a6b336762951202","not_provided","desktop","0","0","0","","","","","","working_memory","","null","<div class=""fixation"">+</div>","null","","","","","","","","","","","","","","","","",""
"html-keyboard-response","111","253936","0.0-5.0-5.0-1.5","609a83645a6b336762951202","not_provided","desktop","0","0","0","","","","","","working_memory","","null","<img class='c' src=images/squares/brown.png><img class='f' src=images/squares/blue.png><img class='g' src=images/squares/black.png><img class='j' src=images/squares/magenta.png><div class=""fixation"">+</div>","null","","","memory","exp","5","","","","","","","","","","","",""
"html-keyboard-response","112","254840","0.0-5.0-5.0-2.5","609a83645a6b336762951202","not_provided","desktop","0","0","0","","","","","","working_memory","","null","<div class=""fixation"">+</div>","null","","","","","","","","","","","","","","","","",""
"html-keyboard-response","113","255249","0.0-5.0-5.0-3.5","609a83645a6b336762951202","not_provided","desktop","0","0","0","","","","","","working_memory","","407","<img class='j' src=images/squares/magenta.png><div class=""fixation"">+</div>","s","","","test_squares","exp","5","4","s","true","sk","s","","","","","","",""
"html-keyboard-response","114","255757","0.0-5.0-5.0-4.5","609a83645a6b336762951202","not_provided","desktop","0","0","0","","","","","","working_memory","","null","<div class=""fixation"">Correct</div>","null","","","","","","","","","","","","","","","","",""
"html-keyboard-response","115","256760","0.0-5.0-5.0-0.6","609a83645a6b336762951202","not_provided","desktop","0","0","0","","","","","","working_memory","","null","<div class=""fixation"">+</div>","null","","","","","","","","","","","","","","","","",""
"html-keyboard-response","116","256962","0.0-5.0-5.0-1.6","609a83645a6b336762951202","not_provided","desktop","0","0","0","","","","","","working_memory","","null","<img class='b' src=images/squares/blue.png><img class='a' src=images/squares/yellow.png><img class='d' src=images/squares/cyan.png><img class='e' src=images/squares/brown.png><img class='g' src=images/squares/orange.png><img class='i' src=images/squares/magenta.png><img class='j' src=images/squares/black.png><img class='l' src=images/squares/red.png><div class=""fixation"">+</div>","null","","","memory","exp","6","","","","","","","","","","","",""
"html-keyboard-response","117","257864","0.0-5.0-5.0-2.6","609a83645a6b336762951202","not_provided","desktop","0","0","0","","","","","","working_memory","","null","<div class=""fixation"">+</div>","null","","","","","","","","","","","","","","","","",""
"html-keyboard-response","118","258384","0.0-5.0-5.0-3.6","609a83645a6b336762951202","not_provided","desktop","0","0","0","","","","","","working_memory","","518","<img class='j' src=images/squares/green.png><div class=""fixation"">+</div>","s","","","test_squares","exp","6","8","k","false","sk","d","","","","","","",""
"html-keyboard-response","119","258890","0.0-5.0-5.0-4.6","609a83645a6b336762951202","not_provided","desktop","0","0","0","","","","","","working_memory","","null","<div class=""fixation"">Incorrect</div>","null","","","","","","","","","","","","","","","","",""
"html-keyboard-response","120","259896","0.0-5.0-5.0-0.7","609a83645a6b336762951202","not_provided","desktop","0","0","0","","","","","","working_memory","","null","<div class=""fixation"">+</div>","null","","","","","","","","","","","","","","","","",""
"html-keyboard-response","121","260099","0.0-5.0-5.0-1.7","609a83645a6b336762951202","not_provided","desktop","0","0","0","","","","","","working_memory","","null","<img class='a' src=images/squares/red.png><img class='c' src=images/squares/green.png><img class='f' src=images/squares/orange.png><img class='d' src=images/squares/brown.png><img class='i' src=images/squares/yellow.png><img class='h' src=images/squares/cyan.png><img class='j' src=images/squares/black.png><img class='k' src=images/squares/blue.png><div class=""fixation"">+</div>","null","","","memory","exp","7","","","","","","","","","","","",""
"html-keyboard-response","122","261002","0.0-5.0-5.0-2.7","609a83645a6b336762951202","not_provided","desktop","0","0","0","","","","","","working_memory","","null","<div class=""fixation"">+</div>","null","","","","","","","","","","","","","","","","",""
"html-keyboard-response","123","261700","0.0-5.0-5.0-3.7","609a83645a6b336762951202","not_provided","desktop","0","0","0","","","","","","working_memory","","696","<img class='a' src=images/squares/red.png><div class=""fixation"">+</div>","s","","","test_squares","exp","7","8","s","true","sk","s","","","","","","",""
"html-keyboard-response","124","262202","0.0-5.0-5.0-4.7","609a83645a6b336762951202","not_provided","desktop","0","0","0","","","","","","working_memory","","null","<div class=""fixation"">Correct</div>","null","","","","","","","","","","","","","","","","",""
"html-keyboard-response","125","263208","0.0-5.0-5.0-0.8","609a83645a6b336762951202","not_provided","desktop","0","0","0","","","","","","working_memory","","null","<div class=""fixation"">+</div>","null","","","","","","","","","","","","","","","","",""
"html-keyboard-response","126","263413","0.0-5.0-5.0-1.8","609a83645a6b336762951202","not_provided","desktop","0","0","0","","","","","","working_memory","","null","<img class='c' src=images/squares/black.png><img class='b' src=images/squares/brown.png><img class='e' src=images/squares/cyan.png><img class='f' src=images/squares/blue.png><img class='g' src=images/squares/magenta.png><img class='i' src=images/squares/red.png><img class='l' src=images/squares/orange.png><img class='k' src=images/squares/green.png><div class=""fixation"">+</div>","null","","","memory","exp","8","","","","","","","","","","","",""
"html-keyboard-response","127","264317","0.0-5.0-5.0-2.8","609a83645a6b336762951202","not_provided","desktop","0","0","0","","","","","","working_memory","","null","<div class=""fixation"">+</div>","null","","","","","","","","","","","","","","","","",""
"html-keyboard-response","128","265026","0.0-5.0-5.0-3.8","609a83645a6b336762951202","not_provided","desktop","0","0","0","","","","","","working_memory","","707","<img class='g' src=images/squares/magenta.png><div class=""fixation"">+</div>","k","","","test_squares","exp","8","8","s","false","sk","s","","","","","","",""
"html-keyboard-response","129","265528","0.0-5.0-5.0-4.8","609a83645a6b336762951202","not_provided","desktop","0","0","0","","","","","","working_memory","","null","<div class=""fixation"">Incorrect</div>","null","","","","","","","","","","","","","","","","",""
"html-keyboard-response","130","266537","0.0-5.0-5.0-0.9","609a83645a6b336762951202","not_provided","desktop","0","0","0","","","","","","working_memory","","null","<div class=""fixation"">+</div>","null","","","","","","","","","","","","","","","","",""
"html-keyboard-response","131","266741","0.0-5.0-5.0-1.9","609a83645a6b336762951202","not_provided","desktop","0","0","0","","","","","","working_memory","","null","<img class='c' src=images/squares/black.png><img class='b' src=images/squares/yellow.png><img class='f' src=images/squares/red.png><img class='e' src=images/squares/orange.png><img class='h' src=images/squares/green.png><img class='g' src=images/squares/blue.png><img class='k' src=images/squares/brown.png><img class='l' src=images/squares/magenta.png><div class=""fixation"">+</div>","null","","","memory","exp","9","","","","","","","","","","","",""
"html-keyboard-response","132","267646","0.0-5.0-5.0-2.9","609a83645a6b336762951202","not_provided","desktop","0","0","0","","","","","","working_memory","","null","<div class=""fixation"">+</div>","null","","","","","","","","","","","","","","","","",""
"html-keyboard-response","133","268700","0.0-5.0-5.0-3.9","609a83645a6b336762951202","not_provided","desktop","0","0","0","","","","","","working_memory","","1053","<img class='k' src=images/squares/cyan.png><div class=""fixation"">+</div>","s","","","test_squares","exp","9","8","k","false","sk","d","","","","","","",""
"html-keyboard-response","134","269207","0.0-5.0-5.0-4.9","609a83645a6b336762951202","not_provided","desktop","0","0","0","","","","","","working_memory","","null","<div class=""fixation"">Incorrect</div>","null","","","","","","","","","","","","","","","","",""
"html-keyboard-response","135","270209","0.0-5.0-5.0-0.10","609a83645a6b336762951202","not_provided","desktop","0","0","0","","","","","","working_memory","","null","<div class=""fixation"">+</div>","null","","","","","","","","","","","","","","","","",""
"html-keyboard-response","136","270412","0.0-5.0-5.0-1.10","609a83645a6b336762951202","not_provided","desktop","0","0","0","","","","","","working_memory","","null","<img class='a' src=images/squares/brown.png><img class='f' src=images/squares/magenta.png><img class='g' src=images/squares/blue.png><img class='k' src=images/squares/orange.png><div class=""fixation"">+</div>","null","","","memory","exp","10","","","","","","","","","","","",""
"html-keyboard-response","137","271317","0.0-5.0-5.0-2.10","609a83645a6b336762951202","not_provided","desktop","0","0","0","","","","","","working_memory","","null","<div class=""fixation"">+</div>","null","","","","","","","","","","","","","","","","",""
"html-keyboard-response","138","272007","0.0-5.0-5.0-3.10","609a83645a6b336762951202","not_provided","desktop","0","0","0","","","","","","working_memory","","687","<img class='f' src=images/squares/magenta.png><div class=""fixation"">+</div>","s","","","test_squares","exp","10","4","s","true","sk","s","","","","","","",""
"html-keyboard-response","139","272513","0.0-5.0-5.0-4.10","609a83645a6b336762951202","not_provided","desktop","0","0","0","","","","","","working_memory","","null","<div class=""fixation"">Correct</div>","null","","","","","","","","","","","","","","","","",""
"html-keyboard-response","140","273515","0.0-5.0-5.0-0.11","609a83645a6b336762951202","not_provided","desktop","0","0","0","","","","","","working_memory","","null","<div class=""fixation"">+</div>","null","","","","","","","","","","","","","","","","",""
"html-keyboard-response","141","273718","0.0-5.0-5.0-1.11","609a83645a6b336762951202","not_provided","desktop","0","0","0","","","","","","working_memory","","null","<img class='c' src=images/squares/brown.png><img class='d' src=images/squares/yellow.png><img class='g' src=images/squares/cyan.png><img class='k' src=images/squares/black.png><div class=""fixation"">+</div>","null","","","memory","exp","11","","","","","","","","","","","",""
"html-keyboard-response","142","274626","0.0-5.0-5.0-2.11","609a83645a6b336762951202","not_provided","desktop","0","0","0","","","","","","working_memory","","null","<div class=""fixation"">+</div>","null","","","","","","","","","","","","","","","","",""
"html-keyboard-response","143","275200","0.0-5.0-5.0-3.11","609a83645a6b336762951202","not_provided","desktop","0","0","0","","","","","","working_memory","","573","<img class='g' src=images/squares/cyan.png><div class=""fixation"">+</div>","s","","","test_squares","exp","11","4","s","true","sk","s","","","","","","",""
"html-keyboard-response","144","275709","0.0-5.0-5.0-4.11","609a83645a6b336762951202","not_provided","desktop","0","0","0","","","","","","working_memory","","null","<div class=""fixation"">Correct</div>","null","","","","","","","","","","","","","","","","",""
"html-keyboard-response","145","276713","0.0-5.0-5.0-0.12","609a83645a6b336762951202","not_provided","desktop","0","0","0","","","","","","working_memory","","null","<div class=""fixation"">+</div>","null","","","","","","","","","","","","","","","","",""
"html-keyboard-response","146","276916","0.0-5.0-5.0-1.12","609a83645a6b336762951202","not_provided","desktop","0","0","0","","","","","","working_memory","","null","<img class='c' src=images/squares/blue.png><img class='f' src=images/squares/orange.png><img class='h' src=images/squares/yellow.png><img class='l' src=images/squares/cyan.png><div class=""fixation"">+</div>","null","","","memory","exp","12","","","","","","","","","","","",""
"html-keyboard-response","147","277818","0.0-5.0-5.0-2.12","609a83645a6b336762951202","not_provided","desktop","0","0","0","","","","","","working_memory","","null","<div class=""fixation"">+</div>","null","","","","","","","","","","","","","","","","",""
"html-keyboard-response","148","278369","0.0-5.0-5.0-3.12","609a83645a6b336762951202","not_provided","desktop","0","0","0","","","","","","working_memory","","547","<img class='l' src=images/squares/black.png><div class=""fixation"">+</div>","k","","","test_squares","exp","12","4","k","true","sk","d","","","","","","",""
"html-keyboard-response","149","278874","0.0-5.0-5.0-4.12","609a83645a6b336762951202","not_provided","desktop","0","0","0","","","","","","working_memory","","null","<div class=""fixation"">Correct</div>","null","","","","","","","","","","","","","","","","",""
"html-keyboard-response","150","279876","0.0-5.0-5.0-0.13","609a83645a6b336762951202","not_provided","desktop","0","0","0","","","","","","working_memory","","null","<div class=""fixation"">+</div>","null","","","","","","","","","","","","","","","","",""
"html-keyboard-response","151","280078","0.0-5.0-5.0-1.13","609a83645a6b336762951202","not_provided","desktop","0","0","0","","","","","","working_memory","","null","<img class='a' src=images/squares/magenta.png><img class='f' src=images/squares/orange.png><img class='i' src=images/squares/brown.png><img class='j' src=images/squares/blue.png><div class=""fixation"">+</div>","null","","","memory","exp","13","","","","","","","","","","","",""
"html-keyboard-response","152","280980","0.0-5.0-5.0-2.13","609a83645a6b336762951202","not_provided","desktop","0","0","0","","","","","","working_memory","","null","<div class=""fixation"">+</div>","null","","","","","","","","","","","","","","","","",""
"html-keyboard-response","153","281454","0.0-5.0-5.0-3.13","609a83645a6b336762951202","not_provided","desktop","0","0","0","","","","","","working_memory","","473","<img class='a' src=images/squares/magenta.png><div class=""fixation"">+</div>","s","","","test_squares","exp","13","4","s","true","sk","s","","","","","","",""
"html-keyboard-response","154","281959","0.0-5.0-5.0-4.13","609a83645a6b336762951202","not_provided","desktop","0","0","0","","","","","","working_memory","","null","<div class=""fixation"">Correct</div>","null","","","","","","","","","","","","","","","","",""
"html-keyboard-response","155","282961","0.0-5.0-5.0-0.14","609a83645a6b336762951202","not_provided","desktop","0","0","0","","","","","","working_memory","","null","<div class=""fixation"">+</div>","null","","","","","","","","","","","","","","","","",""
"html-keyboard-response","156","283170","0.0-5.0-5.0-1.14","609a83645a6b336762951202","not_provided","desktop","0","0","0","","","","","","working_memory","","null","<img class='b' src=images/squares/green.png><img class='d' src=images/squares/orange.png><img class='g' src=images/squares/brown.png><img class='l' src=images/squares/black.png><div class=""fixation"">+</div>","null","","","memory","exp","14","","","","","","","","","","","",""
"html-keyboard-response","157","284075","0.0-5.0-5.0-2.14","609a83645a6b336762951202","not_provided","desktop","0","0","0","","","","","","working_memory","","null","<div class=""fixation"">+</div>","null","","","","","","","","","","","","","","","","",""
"html-keyboard-response","158","284629","0.0-5.0-5.0-3.14","609a83645a6b336762951202","not_provided","desktop","0","0","0","","","","","","working_memory","","553","<img class='g' src=images/squares/brown.png><div class=""fixation"">+</div>","s","","","test_squares","exp","14","4","s","true","sk","s","","","","","","",""
"html-keyboard-response","159","285133","0.0-5.0-5.0-4.14","609a83645a6b336762951202","not_provided","desktop","0","0","0","","","","","","working_memory","","null","<div class=""fixation"">Correct</div>","null","","","","","","","","","","","","","","","","",""
"html-keyboard-response","160","286136","0.0-5.0-5.0-0.15","609a83645a6b336762951202","not_provided","desktop","0","0","0","","","","","","working_memory","","null","<div class=""fixation"">+</div>","null","","","","","","","","","","","","","","","","",""
"html-keyboard-response","161","286339","0.0-5.0-5.0-1.15","609a83645a6b336762951202","not_provided","desktop","0","0","0","","","","","","working_memory","","null","<img class='c' src=images/squares/cyan.png><img class='f' src=images/squares/magenta.png><img class='i' src=images/squares/red.png><img class='k' src=images/squares/blue.png><div class=""fixation"">+</div>","null","","","memory","exp","15","","","","","","","","","","","",""
"html-keyboard-response","162","287243","0.0-5.0-5.0-2.15","609a83645a6b336762951202","not_provided","desktop","0","0","0","","","","","","working_memory","","null","<div class=""fixation"">+</div>","null","","","","","","","","","","","","","","","","",""
"html-keyboard-response","163","288218","0.0-5.0-5.0-3.15","609a83645a6b336762951202","not_provided","desktop","0","0","0","","","","","","working_memory","","973","<img class='c' src=images/squares/cyan.png><div class=""fixation"">+</div>","k","","","test_squares","exp","15","4","s","false","sk","s","","","","","","",""
"html-keyboard-response","164","288722","0.0-5.0-5.0-4.15","609a83645a6b336762951202","not_provided","desktop","0","0","0","","","","","","working_memory","","null","<div class=""fixation"">Incorrect</div>","null","","","","","","","","","","","","","","","","",""
"html-keyboard-response","165","289725","0.0-5.0-5.0-0.16","609a83645a6b336762951202","not_provided","desktop","0","0","0","","","","","","working_memory","","null","<div class=""fixation"">+</div>","null","","","","","","","","","","","","","","","","",""
"html-keyboard-response","166","289929","0.0-5.0-5.0-1.16","609a83645a6b336762951202","not_provided","desktop","0","0","0","","","","","","working_memory","","null","<img class='a' src=images/squares/magenta.png><img class='d' src=images/squares/yellow.png><img class='i' src=images/squares/black.png><img class='k' src=images/squares/red.png><div class=""fixation"">+</div>","null","","","memory","exp","16","","","","","","","","","","","",""
"html-keyboard-response","167","290830","0.0-5.0-5.0-2.16","609a83645a6b336762951202","not_provided","desktop","0","0","0","","","","","","working_memory","","null","<div class=""fixation"">+</div>","null","","","","","","","","","","","","","","","","",""
"html-keyboard-response","168","291629","0.0-5.0-5.0-3.16","609a83645a6b336762951202","not_provided","desktop","0","0","0","","","","","","working_memory","","797","<img class='k' src=images/squares/orange.png><div class=""fixation"">+</div>","s","","","test_squares","exp","16","4","k","false","sk","d","","","","","","",""
"html-keyboard-response","169","292135","0.0-5.0-5.0-4.16","609a83645a6b336762951202","not_provided","desktop","0","0","0","","","","","","working_memory","","null","<div class=""fixation"">Incorrect</div>","null","","","","","","","","","","","","","","","","",""
"html-keyboard-response","170","293139","0.0-5.0-5.0-0.17","609a83645a6b336762951202","not_provided","desktop","0","0","0","","","","","","working_memory","","null","<div class=""fixation"">+</div>","null","","","","","","","","","","","","","","","","",""
"html-keyboard-response","171","293342","0.0-5.0-5.0-1.17","609a83645a6b336762951202","not_provided","desktop","0","0","0","","","","","","working_memory","","null","<img class='b' src=images/squares/green.png><img class='c' src=images/squares/orange.png><img class='f' src=images/squares/red.png><img class='e' src=images/squares/blue.png><img class='h' src=images/squares/magenta.png><img class='i' src=images/squares/yellow.png><img class='k' src=images/squares/brown.png><img class='j' src=images/squares/cyan.png><div class=""fixation"">+</div>","null","","","memory","exp","17","","","","","","","","","","","",""
"html-keyboard-response","172","294251","0.0-5.0-5.0-2.17","609a83645a6b336762951202","not_provided","desktop","0","0","0","","","","","","working_memory","","null","<div class=""fixation"">+</div>","null","","","","","","","","","","","","","","","","",""
"html-keyboard-response","173","295151","0.0-5.0-5.0-3.17","609a83645a6b336762951202","not_provided","desktop","0","0","0","","","","","","working_memory","","898","<img class='h' src=images/squares/magenta.png><div class=""fixation"">+</div>","k","","","test_squares","exp","17","8","s","false","sk","s","","","","","","",""
"html-keyboard-response","174","295653","0.0-5.0-5.0-4.17","609a83645a6b336762951202","not_provided","desktop","0","0","0","","","","","","working_memory","","null","<div class=""fixation"">Incorrect</div>","null","","","","","","","","","","","","","","","","",""
"html-keyboard-response","175","296655","0.0-5.0-5.0-0.18","609a83645a6b336762951202","not_provided","desktop","0","0","0","","","","","","working_memory","","null","<div class=""fixation"">+</div>","null","","","","","","","","","","","","","","","","",""
"html-keyboard-response","176","296864","0.0-5.0-5.0-1.18","609a83645a6b336762951202","not_provided","desktop","0","0","0","","","","","","working_memory","","null","<img class='c' src=images/squares/brown.png><img class='a' src=images/squares/yellow.png><img class='e' src=images/squares/orange.png><img class='d' src=images/squares/blue.png><img class='h' src=images/squares/magenta.png><img class='g' src=images/squares/black.png><img class='k' src=images/squares/red.png><img class='l' src=images/squares/cyan.png><div class=""fixation"">+</div>","null","","","memory","exp","18","","","","","","","","","","","",""
"html-keyboard-response","177","297767","0.0-5.0-5.0-2.18","609a83645a6b336762951202","not_provided","desktop","0","0","0","","","","","","working_memory","","null","<div class=""fixation"">+</div>","null","","","","","","","","","","","","","","","","",""
"html-keyboard-response","178","299673","0.0-5.0-5.0-3.18","609a83645a6b336762951202","not_provided","desktop","0","0","0","","","","","","working_memory","","1904","<img class='e' src=images/squares/green.png><div class=""fixation"">+</div>","s","","","test_squares","exp","18","8","k","false","sk","d","","","","","","",""
"html-keyboard-response","179","300177","0.0-5.0-5.0-4.18","609a83645a6b336762951202","not_provided","desktop","0","0","0","","","","","","working_memory","","null","<div class=""fixation"">Incorrect</div>","null","","","","","","","","","","","","","","","","",""
"html-keyboard-response","180","301183","0.0-5.0-5.0-0.19","609a83645a6b336762951202","not_provided","desktop","0","0","0","","","","","","working_memory","","null","<div class=""fixation"">+</div>","null","","","","","","","","","","","","","","","","",""
"html-keyboard-response","181","301392","0.0-5.0-5.0-1.19","609a83645a6b336762951202","not_provided","desktop","0","0","0","","","","","","working_memory","","null","<img class='a' src=images/squares/brown.png><img class='c' src=images/squares/green.png><img class='d' src=images/squares/cyan.png><img class='f' src=images/squares/yellow.png><img class='i' src=images/squares/magenta.png><img class='h' src=images/squares/blue.png><img class='k' src=images/squares/black.png><img class='l' src=images/squares/red.png><div class=""fixation"">+</div>","null","","","memory","exp","19","","","","","","","","","","","",""
"html-keyboard-response","182","302295","0.0-5.0-5.0-2.19","609a83645a6b336762951202","not_provided","desktop","0","0","0","","","","","","working_memory","","null","<div class=""fixation"">+</div>","null","","","","","","","","","","","","","","","","",""
"html-keyboard-response","183","303027","0.0-5.0-5.0-3.19","609a83645a6b336762951202","not_provided","desktop","0","0","0","","","","","","working_memory","","731","<img class='d' src=images/squares/cyan.png><div class=""fixation"">+</div>","s","","","test_squares","exp","19","8","s","true","sk","s","","","","","","",""
"html-keyboard-response","184","303530","0.0-5.0-5.0-4.19","609a83645a6b336762951202","not_provided","desktop","0","0","0","","","","","","working_memory","","null","<div class=""fixation"">Correct</div>","null","","","","","","","","","","","","","","","","",""
"html-keyboard-response","185","304549","0.0-5.0-5.0-0.20","609a83645a6b336762951202","not_provided","desktop","0","0","0","","","","","","working_memory","","null","<div class=""fixation"">+</div>","null","","","","","","","","","","","","","","","","",""
"html-keyboard-response","186","304751","0.0-5.0-5.0-1.20","609a83645a6b336762951202","not_provided","desktop","0","0","0","","","","","","working_memory","","null","<img class='a' src=images/squares/yellow.png><img class='d' src=images/squares/red.png><img class='g' src=images/squares/cyan.png><img class='j' src=images/squares/blue.png><div class=""fixation"">+</div>","null","","","memory","exp","20","","","","","","","","","","","",""
"html-keyboard-response","187","305655","0.0-5.0-5.0-2.20","609a83645a6b336762951202","not_provided","desktop","0","0","0","","","","","","working_memory","","null","<div class=""fixation"">+</div>","null","","","","","","","","","","","","","","","","",""
"html-keyboard-response","188","306427","0.0-5.0-5.0-3.20","609a83645a6b336762951202","not_provided","desktop","0","0","0","","","","","","working_memory","","766","<img class='g' src=images/squares/magenta.png><div class=""fixation"">+</div>","k","","","test_squares","exp","20","4","k","true","sk","d","","","","","","",""
"html-keyboard-response","189","306930","0.0-5.0-5.0-4.20","609a83645a6b336762951202","not_provided","desktop","0","0","0","","","","","","working_memory","","null","<div class=""fixation"">Correct</div>","null","","","","","","","","","","","","","","","","",""
"html-keyboard-response","190","307939","0.0-5.0-5.0-0.21","609a83645a6b336762951202","not_provided","desktop","0","0","0","","","","","","working_memory","","null","<div class=""fixation"">+</div>","null","","","","","","","","","","","","","","","","",""
"html-keyboard-response","191","308145","0.0-5.0-5.0-1.21","609a83645a6b336762951202","not_provided","desktop","0","0","0","","","","","","working_memory","","null","<img class='b' src=images/squares/orange.png><img class='c' src=images/squares/red.png><img class='f' src=images/squares/brown.png><img class='e' src=images/squares/green.png><img class='i' src=images/squares/magenta.png><img class='g' src=images/squares/black.png><img class='l' src=images/squares/blue.png><img class='k' src=images/squares/yellow.png><div class=""fixation"">+</div>","null","","","memory","exp","21","","","","","","","","","","","",""
"html-keyboard-response","192","309050","0.0-5.0-5.0-2.21","609a83645a6b336762951202","not_provided","desktop","0","0","0","","","","","","working_memory","","null","<div class=""fixation"">+</div>","null","","","","","","","","","","","","","","","","",""
"html-keyboard-response","193","309736","0.0-5.0-5.0-3.21","609a83645a6b336762951202","not_provided","desktop","0","0","0","","","","","","working_memory","","683","<img class='g' src=images/squares/black.png><div class=""fixation"">+</div>","k","","","test_squares","exp","21","8","s","false","sk","s","","","","","","",""
"html-keyboard-response","194","310246","0.0-5.0-5.0-4.21","609a83645a6b336762951202","not_provided","desktop","0","0","0","","","","","","working_memory","","null","<div class=""fixation"">Incorrect</div>","null","","","","","","","","","","","","","","","","",""
"html-keyboard-response","195","311249","0.0-5.0-5.0-0.22","609a83645a6b336762951202","not_provided","desktop","0","0","0","","","","","","working_memory","","null","<div class=""fixation"">+</div>","null","","","","","","","","","","","","","","","","",""
"html-keyboard-response","196","311452","0.0-5.0-5.0-1.22","609a83645a6b336762951202","not_provided","desktop","0","0","0","","","","","","working_memory","","null","<img class='c' src=images/squares/magenta.png><img class='e' src=images/squares/blue.png><img class='h' src=images/squares/orange.png><img class='k' src=images/squares/brown.png><div class=""fixation"">+</div>","null","","","memory","exp","22","","","","","","","","","","","",""
"html-keyboard-response","197","312360","0.0-5.0-5.0-2.22","609a83645a6b336762951202","not_provided","desktop","0","0","0","","","","","","working_memory","","null","<div class=""fixation"">+</div>","null","","","","","","","","","","","","","","","","",""
"html-keyboard-response","198","312997","0.0-5.0-5.0-3.22","609a83645a6b336762951202","not_provided","desktop","0","0","0","","","","","","working_memory","","635","<img class='k' src=images/squares/brown.png><div class=""fixation"">+</div>","s","","","test_squares","exp","22","4","s","true","sk","s","","","","","","",""
"html-keyboard-response","199","313498","0.0-5.0-5.0-4.22","609a83645a6b336762951202","not_provided","desktop","0","0","0","","","","","","working_memory","","null","<div class=""fixation"">Correct</div>","null","","","","","","","","","","","","","","","","",""
"html-keyboard-response","200","314501","0.0-5.0-5.0-0.23","609a83645a6b336762951202","not_provided","desktop","0","0","0","","","","","","working_memory","","null","<div class=""fixation"">+</div>","null","","","","","","","","","","","","","","","","",""
"html-keyboard-response","201","314707","0.0-5.0-5.0-1.23","609a83645a6b336762951202","not_provided","desktop","0","0","0","","","","","","working_memory","","null","<img class='c' src=images/squares/magenta.png><img class='d' src=images/squares/brown.png><img class='g' src=images/squares/black.png><img class='k' src=images/squares/red.png><div class=""fixation"">+</div>","null","","","memory","exp","23","","","","","","","","","","","",""
"html-keyboard-response","202","315612","0.0-5.0-5.0-2.23","609a83645a6b336762951202","not_provided","desktop","0","0","0","","","","","","working_memory","","null","<div class=""fixation"">+</div>","null","","","","","","","","","","","","","","","","",""
"html-keyboard-response","203","316396","0.0-5.0-5.0-3.23","609a83645a6b336762951202","not_provided","desktop","0","0","0","","","","","","working_memory","","782","<img class='k' src=images/squares/blue.png><div class=""fixation"">+</div>","s","","","test_squares","exp","23","4","k","false","sk","d","","","","","","",""
"html-keyboard-response","204","316898","0.0-5.0-5.0-4.23","609a83645a6b336762951202","not_provided","desktop","0","0","0","","","","","","working_memory","","null","<div class=""fixation"">Incorrect</div>","null","","","","","","","","","","","","","","","","",""
"html-keyboard-response","205","317902","0.0-5.0-5.0-0.24","609a83645a6b336762951202","not_provided","desktop","0","0","0","","","","","","working_memory","","null","<div class=""fixation"">+</div>","null","","","","","","","","","","","","","","","","",""
"html-keyboard-response","206","318111","0.0-5.0-5.0-1.24","609a83645a6b336762951202","not_provided","desktop","0","0","0","","","","","","working_memory","","null","<img class='a' src=images/squares/red.png><img class='f' src=images/squares/brown.png><img class='i' src=images/squares/magenta.png><img class='l' src=images/squares/yellow.png><div class=""fixation"">+</div>","null","","","memory","exp","24","","","","","","","","","","","",""
"html-keyboard-response","207","319013","0.0-5.0-5.0-2.24","609a83645a6b336762951202","not_provided","desktop","0","0","0","","","","","","working_memory","","null","<div class=""fixation"">+</div>","null","","","","","","","","","","","","","","","","",""
"html-keyboard-response","208","320518","0.0-5.0-5.0-3.24","609a83645a6b336762951202","not_provided","desktop","0","0","0","","","","","","working_memory","","1504","<img class='l' src=images/squares/black.png><div class=""fixation"">+</div>","k","","","test_squares","exp","24","4","k","true","sk","d","","","","","","",""
"html-keyboard-response","209","321020","0.0-5.0-5.0-4.24","609a83645a6b336762951202","not_provided","desktop","0","0","0","","","","","","working_memory","","null","<div class=""fixation"">Correct</div>","null","","","","","","","","","","","","","","","","",""
"html-keyboard-response","210","322028","0.0-5.0-5.0-0.25","609a83645a6b336762951202","not_provided","desktop","0","0","0","","","","","","working_memory","","null","<div class=""fixation"">+</div>","null","","","","","","","","","","","","","","","","",""
"html-keyboard-response","211","322235","0.0-5.0-5.0-1.25","609a83645a6b336762951202","not_provided","desktop","0","0","0","","","","","","working_memory","","null","<img class='c' src=images/squares/green.png><img class='b' src=images/squares/yellow.png><img class='e' src=images/squares/cyan.png><img class='f' src=images/squares/brown.png><img class='g' src=images/squares/blue.png><img class='i' src=images/squares/magenta.png><img class='l' src=images/squares/red.png><img class='k' src=images/squares/orange.png><div class=""fixation"">+</div>","null","","","memory","exp","25","","","","","","","","","","","",""
"html-keyboard-response","212","323143","0.0-5.0-5.0-2.25","609a83645a6b336762951202","not_provided","desktop","0","0","0","","","","","","working_memory","","null","<div class=""fixation"">+</div>","null","","","","","","","","","","","","","","","","",""
"html-keyboard-response","213","323889","0.0-5.0-5.0-3.25","609a83645a6b336762951202","not_provided","desktop","0","0","0","","","","","","working_memory","","744","<img class='b' src=images/squares/black.png><div class=""fixation"">+</div>","k","","","test_squares","exp","25","8","k","true","sk","d","","","","","","",""
"html-keyboard-response","214","324392","0.0-5.0-5.0-4.25","609a83645a6b336762951202","not_provided","desktop","0","0","0","","","","","","working_memory","","null","<div class=""fixation"">Correct</div>","null","","","","","","","","","","","","","","","","",""
"html-keyboard-response","215","325396","0.0-5.0-5.0-0.26","609a83645a6b336762951202","not_provided","desktop","0","0","0","","","","","","working_memory","","null","<div class=""fixation"">+</div>","null","","","","","","","","","","","","","","","","",""
"html-keyboard-response","216","325600","0.0-5.0-5.0-1.26","609a83645a6b336762951202","not_provided","desktop","0","0","0","","","","","","working_memory","","null","<img class='b' src=images/squares/blue.png><img class='a' src=images/squares/red.png><img class='e' src=images/squares/yellow.png><img class='f' src=images/squares/black.png><img class='g' src=images/squares/cyan.png><img class='h' src=images/squares/green.png><img class='k' src=images/squares/orange.png><img class='j' src=images/squares/magenta.png><div class=""fixation"">+</div>","null","","","memory","exp","26","","","","","","","","","","","",""
"html-keyboard-response","217","326508","0.0-5.0-5.0-2.26","609a83645a6b336762951202","not_provided","desktop","0","0","0","","","","","","working_memory","","null","<div class=""fixation"">+</div>","null","","","","","","","","","","","","","","","","",""
"html-keyboard-response","218","327203","0.0-5.0-5.0-3.26","609a83645a6b336762951202","not_provided","desktop","0","0","0","","","","","","working_memory","","693","<img class='a' src=images/squares/brown.png><div class=""fixation"">+</div>","s","","","test_squares","exp","26","8","k","false","sk","d","","","","","","",""
"html-keyboard-response","219","327715","0.0-5.0-5.0-4.26","609a83645a6b336762951202","not_provided","desktop","0","0","0","","","","","","working_memory","","null","<div class=""fixation"">Incorrect</div>","null","","","","","","","","","","","","","","","","",""
"html-keyboard-response","220","328716","0.0-5.0-5.0-0.27","609a83645a6b336762951202","not_provided","desktop","0","0","0","","","","","","working_memory","","null","<div class=""fixation"">+</div>","null","","","","","","","","","","","","","","","","",""
"html-keyboard-response","221","328924","0.0-5.0-5.0-1.27","609a83645a6b336762951202","not_provided","desktop","0","0","0","","","","","","working_memory","","null","<img class='c' src=images/squares/green.png><img class='e' src=images/squares/brown.png><img class='i' src=images/squares/orange.png><img class='l' src=images/squares/cyan.png><div class=""fixation"">+</div>","null","","","memory","exp","27","","","","","","","","","","","",""
"html-keyboard-response","222","329829","0.0-5.0-5.0-2.27","609a83645a6b336762951202","not_provided","desktop","0","0","0","","","","","","working_memory","","null","<div class=""fixation"">+</div>","null","","","","","","","","","","","","","","","","",""
"html-keyboard-response","223","330848","0.0-5.0-5.0-3.27","609a83645a6b336762951202","not_provided","desktop","0","0","0","","","","","","working_memory","","1018","<img class='c' src=images/squares/red.png><div class=""fixation"">+</div>","k","","","test_squares","exp","27","4","k","true","sk","d","","","","","","",""
"html-keyboard-response","224","331353","0.0-5.0-5.0-4.27","609a83645a6b336762951202","not_provided","desktop","0","0","0","","","","","","working_memory","","null","<div class=""fixation"">Correct</div>","null","","","","","","","","","","","","","","","","",""
"html-keyboard-response","225","332355","0.0-5.0-5.0-0.28","609a83645a6b336762951202","not_provided","desktop","0","0","0","","","","","","working_memory","","null","<div class=""fixation"">+</div>","null","","","","","","","","","","","","","","","","",""
"html-keyboard-response","226","332564","0.0-5.0-5.0-1.28","609a83645a6b336762951202","not_provided","desktop","0","0","0","","","","","","working_memory","","null","<img class='c' src=images/squares/cyan.png><img class='f' src=images/squares/brown.png><img class='i' src=images/squares/yellow.png><img class='j' src=images/squares/orange.png><div class=""fixation"">+</div>","null","","","memory","exp","28","","","","","","","","","","","",""
"html-keyboard-response","227","333467","0.0-5.0-5.0-2.28","609a83645a6b336762951202","not_provided","desktop","0","0","0","","","","","","working_memory","","null","<div class=""fixation"">+</div>","null","","","","","","","","","","","","","","","","",""
"html-keyboard-response","228","334183","0.0-5.0-5.0-3.28","609a83645a6b336762951202","not_provided","desktop","0","0","0","","","","","","working_memory","","715","<img class='j' src=images/squares/blue.png><div class=""fixation"">+</div>","k","","","test_squares","exp","28","4","k","true","sk","d","","","","","","",""
"html-keyboard-response","229","334689","0.0-5.0-5.0-4.28","609a83645a6b336762951202","not_provided","desktop","0","0","0","","","","","","working_memory","","null","<div class=""fixation"">Correct</div>","null","","","","","","","","","","","","","","","","",""
"html-keyboard-response","230","335695","0.0-5.0-5.0-0.29","609a83645a6b336762951202","not_provided","desktop","0","0","0","","","","","","working_memory","","null","<div class=""fixation"">+</div>","null","","","","","","","","","","","","","","","","",""
"html-keyboard-response","231","335904","0.0-5.0-5.0-1.29","609a83645a6b336762951202","not_provided","desktop","0","0","0","","","","","","working_memory","","null","<img class='b' src=images/squares/brown.png><img class='e' src=images/squares/yellow.png><img class='i' src=images/squares/orange.png><img class='l' src=images/squares/cyan.png><div class=""fixation"">+</div>","null","","","memory","exp","29","","","","","","","","","","","",""
"html-keyboard-response","232","336809","0.0-5.0-5.0-2.29","609a83645a6b336762951202","not_provided","desktop","0","0","0","","","","","","working_memory","","null","<div class=""fixation"">+</div>","null","","","","","","","","","","","","","","","","",""
"html-keyboard-response","233","337361","0.0-5.0-5.0-3.29","609a83645a6b336762951202","not_provided","desktop","0","0","0","","","","","","working_memory","","548","<img class='l' src=images/squares/black.png><div class=""fixation"">+</div>","k","","","test_squares","exp","29","4","k","true","sk","d","","","","","","",""
"html-keyboard-response","234","337863","0.0-5.0-5.0-4.29","609a83645a6b336762951202","not_provided","desktop","0","0","0","","","","","","working_memory","","null","<div class=""fixation"">Correct</div>","null","","","","","","","","","","","","","","","","",""
"html-keyboard-response","235","338867","0.0-5.0-5.0-0.30","609a83645a6b336762951202","not_provided","desktop","0","0","0","","","","","","working_memory","","null","<div class=""fixation"">+</div>","null","","","","","","","","","","","","","","","","",""
"html-keyboard-response","236","339070","0.0-5.0-5.0-1.30","609a83645a6b336762951202","not_provided","desktop","0","0","0","","","","","","working_memory","","null","<img class='a' src=images/squares/green.png><img class='b' src=images/squares/orange.png><img class='f' src=images/squares/magenta.png><img class='d' src=images/squares/red.png><img class='i' src=images/squares/brown.png><img class='h' src=images/squares/cyan.png><img class='k' src=images/squares/blue.png><img class='j' src=images/squares/black.png><div class=""fixation"">+</div>","null","","","memory","exp","30","","","","","","","","","","","",""
"html-keyboard-response","237","339976","0.0-5.0-5.0-2.30","609a83645a6b336762951202","not_provided","desktop","0","0","0","","","","","","working_memory","","null","<div class=""fixation"">+</div>","null","","","","","","","","","","","","","","","","",""
"html-keyboard-response","238","340582","0.0-5.0-5.0-3.30","609a83645a6b336762951202","not_provided","desktop","0","0","0","","","","","","working_memory","","602","<img class='d' src=images/squares/red.png><div class=""fixation"">+</div>","k","","","test_squares","exp","30","8","s","false","sk","s","","","","","","",""
"html-keyboard-response","239","341085","0.0-5.0-5.0-4.30","609a83645a6b336762951202","not_provided","desktop","0","0","0","","","","","","working_memory","","null","<div class=""fixation"">Incorrect</div>","null","","","","","","","","","","","","","","","","",""
"html-keyboard-response","240","342093","0.0-5.0-5.0-0.31","609a83645a6b336762951202","not_provided","desktop","0","0","0","","","","","","working_memory","","null","<div class=""fixation"">+</div>","null","","","","","","","","","","","","","","","","",""
"html-keyboard-response","241","342296","0.0-5.0-5.0-1.31","609a83645a6b336762951202","not_provided","desktop","0","0","0","","","","","","working_memory","","null","<img class='a' src=images/squares/green.png><img class='f' src=images/squares/black.png><img class='i' src=images/squares/cyan.png><img class='l' src=images/squares/brown.png><div class=""fixation"">+</div>","null","","","memory","exp","31","","","","","","","","","","","",""
"html-keyboard-response","242","343204","0.0-5.0-5.0-2.31","609a83645a6b336762951202","not_provided","desktop","0","0","0","","","","","","working_memory","","null","<div class=""fixation"">+</div>","null","","","","","","","","","","","","","","","","",""
"html-keyboard-response","243","343926","0.0-5.0-5.0-3.31","609a83645a6b336762951202","not_provided","desktop","0","0","0","","","","","","working_memory","","721","<img class='i' src=images/squares/blue.png><div class=""fixation"">+</div>","k","","","test_squares","exp","31","4","k","true","sk","d","","","","","","",""
"html-keyboard-response","244","344429","0.0-5.0-5.0-4.31","609a83645a6b336762951202","not_provided","desktop","0","0","0","","","","","","working_memory","","null","<div class=""fixation"">Correct</div>","null","","","","","","","","","","","","","","","","",""
"html-keyboard-response","245","345437","0.0-5.0-5.0-0.32","609a83645a6b336762951202","not_provided","desktop","0","0","0","","","","","","working_memory","","null","<div class=""fixation"">+</div>","null","","","","","","","","","","","","","","","","",""
"html-keyboard-response","246","345641","0.0-5.0-5.0-1.32","609a83645a6b336762951202","not_provided","desktop","0","0","0","","","","","","working_memory","","null","<img class='a' src=images/squares/brown.png><img class='e' src=images/squares/red.png><img class='h' src=images/squares/yellow.png><img class='l' src=images/squares/green.png><div class=""fixation"">+</div>","null","","","memory","exp","32","","","","","","","","","","","",""
"html-keyboard-response","247","346547","0.0-5.0-5.0-2.32","609a83645a6b336762951202","not_provided","desktop","0","0","0","","","","","","working_memory","","null","<div class=""fixation"">+</div>","null","","","","","","","","","","","","","","","","",""
"html-keyboard-response","248","347343","0.0-5.0-5.0-3.32","609a83645a6b336762951202","not_provided","desktop","0","0","0","","","","","","working_memory","","794","<img class='l' src=images/squares/green.png><div class=""fixation"">+</div>","s","","","test_squares","exp","32","4","s","true","sk","s","","","","","","",""
"html-keyboard-response","249","347846","0.0-5.0-5.0-4.32","609a83645a6b336762951202","not_provided","desktop","0","0","0","","","","","","working_memory","","null","<div class=""fixation"">Correct</div>","null","","","","","","","","","","","","","","","","",""
"html-keyboard-response","250","348847","0.0-5.0-5.0-0.33","609a83645a6b336762951202","not_provided","desktop","0","0","0","","","","","","working_memory","","null","<div class=""fixation"">+</div>","null","","","","","","","","","","","","","","","","",""
"html-keyboard-response","251","349053","0.0-5.0-5.0-1.33","609a83645a6b336762951202","not_provided","desktop","0","0","0","","","","","","working_memory","","null","<img class='a' src=images/squares/yellow.png><img class='f' src=images/squares/green.png><img class='i' src=images/squares/orange.png><img class='j' src=images/squares/magenta.png><div class=""fixation"">+</div>","null","","","memory","exp","33","","","","","","","","","","","",""
"html-keyboard-response","252","349956","0.0-5.0-5.0-2.33","609a83645a6b336762951202","not_provided","desktop","0","0","0","","","","","","working_memory","","null","<div class=""fixation"">+</div>","null","","","","","","","","","","","","","","","","",""
"html-keyboard-response","253","350715","0.0-5.0-5.0-3.33","609a83645a6b336762951202","not_provided","desktop","0","0","0","","","","","","working_memory","","758","<img class='i' src=images/squares/orange.png><div class=""fixation"">+</div>","s","","","test_squares","exp","33","4","s","true","sk","s","","","","","","",""
"html-keyboard-response","254","351220","0.0-5.0-5.0-4.33","609a83645a6b336762951202","not_provided","desktop","0","0","0","","","","","","working_memory","","null","<div class=""fixation"">Correct</div>","null","","","","","","","","","","","","","","","","",""
"html-keyboard-response","255","352226","0.0-5.0-5.0-0.34","609a83645a6b336762951202","not_provided","desktop","0","0","0","","","","","","working_memory","","null","<div class=""fixation"">+</div>","null","","","","","","","","","","","","","","","","",""
"html-keyboard-response","256","352430","0.0-5.0-5.0-1.34","609a83645a6b336762951202","not_provided","desktop","0","0","0","","","","","","working_memory","","null","<img class='c' src=images/squares/blue.png><img class='b' src=images/squares/brown.png><img class='d' src=images/squares/orange.png><img class='e' src=images/squares/yellow.png><img class='g' src=images/squares/magenta.png><img class='h' src=images/squares/red.png><img class='l' src=images/squares/cyan.png><img class='j' src=images/squares/black.png><div class=""fixation"">+</div>","null","","","memory","exp","34","","","","","","","","","","","",""
"html-keyboard-response","257","353332","0.0-5.0-5.0-2.34","609a83645a6b336762951202","not_provided","desktop","0","0","0","","","","","","working_memory","","null","<div class=""fixation"">+</div>","null","","","","","","","","","","","","","","","","",""
"html-keyboard-response","258","354072","0.0-5.0-5.0-3.34","609a83645a6b336762951202","not_provided","desktop","0","0","0","","","","","","working_memory","","738","<img class='c' src=images/squares/blue.png><div class=""fixation"">+</div>","s","","","test_squares","exp","34","8","s","true","sk","s","","","","","","",""
"html-keyboard-response","259","354574","0.0-5.0-5.0-4.34","609a83645a6b336762951202","not_provided","desktop","0","0","0","","","","","","working_memory","","null","<div class=""fixation"">Correct</div>","null","","","","","","","","","","","","","","","","",""
"html-keyboard-response","260","355582","0.0-5.0-5.0-0.35","609a83645a6b336762951202","not_provided","desktop","0","0","0","","","","","","working_memory","","null","<div class=""fixation"">+</div>","null","","","","","","","","","","","","","","","","",""
"html-keyboard-response","261","355792","0.0-5.0-5.0-1.35","609a83645a6b336762951202","not_provided","desktop","0","0","0","","","","","","working_memory","","null","<img class='b' src=images/squares/black.png><img class='c' src=images/squares/cyan.png><img class='e' src=images/squares/blue.png><img class='f' src=images/squares/orange.png><img class='g' src=images/squares/brown.png><img class='h' src=images/squares/yellow.png><img class='j' src=images/squares/red.png><img class='l' src=images/squares/green.png><div class=""fixation"">+</div>","null","","","memory","exp","35","","","","","","","","","","","",""
"html-keyboard-response","262","356694","0.0-5.0-5.0-2.35","609a83645a6b336762951202","not_provided","desktop","0","0","0","","","","","","working_memory","","null","<div class=""fixation"">+</div>","null","","","","","","","","","","","","","","","","",""
"html-keyboard-response","263","357423","0.0-5.0-5.0-3.35","609a83645a6b336762951202","not_provided","desktop","0","0","0","","","","","","working_memory","","727","<img class='h' src=images/squares/yellow.png><div class=""fixation"">+</div>","s","","","test_squares","exp","35","8","s","true","sk","s","","","","","","",""
"html-keyboard-response","264","357925","0.0-5.0-5.0-4.35","609a83645a6b336762951202","not_provided","desktop","0","0","0","","","","","","working_memory","","null","<div class=""fixation"">Correct</div>","null","","","","","","","","","","","","","","","","",""
"html-keyboard-response","265","358934","0.0-5.0-5.0-0.36","609a83645a6b336762951202","not_provided","desktop","0","0","0","","","","","","working_memory","","null","<div class=""fixation"">+</div>","null","","","","","","","","","","","","","","","","",""
"html-keyboard-response","266","359138","0.0-5.0-5.0-1.36","609a83645a6b336762951202","not_provided","desktop","0","0","0","","","","","","working_memory","","null","<img class='a' src=images/squares/yellow.png><img class='f' src=images/squares/black.png><img class='i' src=images/squares/blue.png><img class='k' src=images/squares/cyan.png><div class=""fixation"">+</div>","null","","","memory","exp","36","","","","","","","","","","","",""
"html-keyboard-response","267","360040","0.0-5.0-5.0-2.36","609a83645a6b336762951202","not_provided","desktop","0","0","0","","","","","","working_memory","","null","<div class=""fixation"">+</div>","null","","","","","","","","","","","","","","","","",""
"html-keyboard-response","268","360765","0.0-5.0-5.0-3.36","609a83645a6b336762951202","not_provided","desktop","0","0","0","","","","","","working_memory","","724","<img class='i' src=images/squares/green.png><div class=""fixation"">+</div>","k","","","test_squares","exp","36","4","k","true","sk","d","","","","","","",""
"html-keyboard-response","269","361268","0.0-5.0-5.0-4.36","609a83645a6b336762951202","not_provided","desktop","0","0","0","","","","","","working_memory","","null","<div class=""fixation"">Correct</div>","null","","","","","","","","","","","","","","","","",""
"html-keyboard-response","270","362276","0.0-5.0-5.0-0.37","609a83645a6b336762951202","not_provided","desktop","0","0","0","","","","","","working_memory","","null","<div class=""fixation"">+</div>","null","","","","","","","","","","","","","","","","",""
"html-keyboard-response","271","362479","0.0-5.0-5.0-1.37","609a83645a6b336762951202","not_provided","desktop","0","0","0","","","","","","working_memory","","null","<img class='c' src=images/squares/red.png><img class='b' src=images/squares/brown.png><img class='f' src=images/squares/orange.png><img class='e' src=images/squares/black.png><img class='i' src=images/squares/blue.png><img class='g' src=images/squares/yellow.png><img class='j' src=images/squares/magenta.png><img class='l' src=images/squares/cyan.png><div class=""fixation"">+</div>","null","","","memory","exp","37","","","","","","","","","","","",""
"html-keyboard-response","272","363383","0.0-5.0-5.0-2.37","609a83645a6b336762951202","not_provided","desktop","0","0","0","","","","","","working_memory","","null","<div class=""fixation"">+</div>","null","","","","","","","","","","","","","","","","",""
"html-keyboard-response","273","364397","0.0-5.0-5.0-3.37","609a83645a6b336762951202","not_provided","desktop","0","0","0","","","","","","working_memory","","1011","<img class='g' src=images/squares/green.png><div class=""fixation"">+</div>","k","","","test_squares","exp","37","8","k","true","sk","d","","","","","","",""
"html-keyboard-response","274","364900","0.0-5.0-5.0-4.37","609a83645a6b336762951202","not_provided","desktop","0","0","0","","","","","","working_memory","","null","<div class=""fixation"">Correct</div>","null","","","","","","","","","","","","","","","","",""
"html-keyboard-response","275","365906","0.0-5.0-5.0-0.38","609a83645a6b336762951202","not_provided","desktop","0","0","0","","","","","","working_memory","","null","<div class=""fixation"">+</div>","null","","","","","","","","","","","","","","","","",""
"html-keyboard-response","276","366110","0.0-5.0-5.0-1.38","609a83645a6b336762951202","not_provided","desktop","0","0","0","","","","","","working_memory","","null","<img class='a' src=images/squares/black.png><img class='f' src=images/squares/magenta.png><img class='i' src=images/squares/red.png><img class='j' src=images/squares/cyan.png><div class=""fixation"">+</div>","null","","","memory","exp","38","","","","","","","","","","","",""
"html-keyboard-response","277","367015","0.0-5.0-5.0-2.38","609a83645a6b336762951202","not_provided","desktop","0","0","0","","","","","","working_memory","","null","<div class=""fixation"">+</div>","null","","","","","","","","","","","","","","","","",""
"html-keyboard-response","278","368149","0.0-5.0-5.0-3.38","609a83645a6b336762951202","not_provided","desktop","0","0","0","","","","","","working_memory","","1129","<img class='i' src=images/squares/orange.png><div class=""fixation"">+</div>","s","","","test_squares","exp","38","4","k","false","sk","d","","","","","","",""
"html-keyboard-response","279","368653","0.0-5.0-5.0-4.38","609a83645a6b336762951202","not_provided","desktop","0","0","0","","","","","","working_memory","","null","<div class=""fixation"">Incorrect</div>","null","","","","","","","","","","","","","","","","",""
"html-keyboard-response","280","369655","0.0-5.0-5.0-0.39","609a83645a6b336762951202","not_provided","desktop","0","0","0","","","","","","working_memory","","null","<div class=""fixation"">+</div>","null","","","","","","","","","","","","","","","","",""
"html-keyboard-response","281","369857","0.0-5.0-5.0-1.39","609a83645a6b336762951202","not_provided","desktop","0","0","0","","","","","","working_memory","","null","<img class='c' src=images/squares/black.png><img class='d' src=images/squares/yellow.png><img class='i' src=images/squares/orange.png><img class='k' src=images/squares/red.png><div class=""fixation"">+</div>","null","","","memory","exp","39","","","","","","","","","","","",""
"html-keyboard-response","282","370761","0.0-5.0-5.0-2.39","609a83645a6b336762951202","not_provided","desktop","0","0","0","","","","","","working_memory","","null","<div class=""fixation"">+</div>","null","","","","","","","","","","","","","","","","",""
"html-keyboard-response","283","371368","0.0-5.0-5.0-3.39","609a83645a6b336762951202","not_provided","desktop","0","0","0","","","","","","working_memory","","603","<img class='c' src=images/squares/black.png><div class=""fixation"">+</div>","s","","","test_squares","exp","39","4","s","true","sk","s","","","","","","",""
"html-keyboard-response","284","371872","0.0-5.0-5.0-4.39","609a83645a6b336762951202","not_provided","desktop","0","0","0","","","","","","working_memory","","null","<div class=""fixation"">Correct</div>","null","","","","","","","","","","","","","","","","",""
"html-keyboard-response","285","372874","0.0-5.0-5.0-0.40","609a83645a6b336762951202","not_provided","desktop","0","0","0","","","","","","working_memory","","null","<div class=""fixation"">+</div>","null","","","","","","","","","","","","","","","","",""
"html-keyboard-response","286","373082","0.0-5.0-5.0-1.40","609a83645a6b336762951202","not_provided","desktop","0","0","0","","","","","","working_memory","","null","<img class='c' src=images/squares/brown.png><img class='b' src=images/squares/magenta.png><img class='f' src=images/squares/orange.png><img class='e' src=images/squares/green.png><img class='g' src=images/squares/red.png><img class='h' src=images/squares/yellow.png><img class='l' src=images/squares/cyan.png><img class='j' src=images/squares/blue.png><div class=""fixation"">+</div>","null","","","memory","exp","40","","","","","","","","","","","",""
"html-keyboard-response","287","373988","0.0-5.0-5.0-2.40","609a83645a6b336762951202","not_provided","desktop","0","0","0","","","","","","working_memory","","null","<div class=""fixation"">+</div>","null","","","","","","","","","","","","","","","","",""
"html-keyboard-response","288","374769","0.0-5.0-5.0-3.40","609a83645a6b336762951202","not_provided","desktop","0","0","0","","","","","","working_memory","","779","<img class='g' src=images/squares/red.png><div class=""fixation"">+</div>","k","","","test_squares","exp","40","8","s","false","sk","s","","","","","","",""
"html-keyboard-response","289","375274","0.0-5.0-5.0-4.40","609a83645a6b336762951202","not_provided","desktop","0","0","0","","","","","","working_memory","","null","<div class=""fixation"">Incorrect</div>","null","","","","","","","","","","","","","","","","",""
"html-keyboard-response","290","376281","0.0-5.0-5.0-0.41","609a83645a6b336762951202","not_provided","desktop","0","0","0","","","","","","working_memory","","null","<div class=""fixation"">+</div>","null","","","","","","","","","","","","","","","","",""
"html-keyboard-response","291","376486","0.0-5.0-5.0-1.41","609a83645a6b336762951202","not_provided","desktop","0","0","0","","","","","","working_memory","","null","<img class='a' src=images/squares/red.png><img class='d' src=images/squares/orange.png><img class='i' src=images/squares/blue.png><img class='j' src=images/squares/black.png><div class=""fixation"">+</div>","null","","","memory","exp","41","","","","","","","","","","","",""
"html-keyboard-response","292","377389","0.0-5.0-5.0-2.41","609a83645a6b336762951202","not_provided","desktop","0","0","0","","","","","","working_memory","","null","<div class=""fixation"">+</div>","null","","","","","","","","","","","","","","","","",""
"html-keyboard-response","293","378285","0.0-5.0-5.0-3.41","609a83645a6b336762951202","not_provided","desktop","0","0","0","","","","","","working_memory","","892","<img class='a' src=images/squares/cyan.png><div class=""fixation"">+</div>","k","","","test_squares","exp","41","4","k","true","sk","d","","","","","","",""
"html-keyboard-response","294","378790","0.0-5.0-5.0-4.41","609a83645a6b336762951202","not_provided","desktop","0","0","0","","","","","","working_memory","","null","<div class=""fixation"">Correct</div>","null","","","","","","","","","","","","","","","","",""
"html-keyboard-response","295","379800","0.0-5.0-5.0-0.42","609a83645a6b336762951202","not_provided","desktop","0","0","0","","","","","","working_memory","","null","<div class=""fixation"">+</div>","null","","","","","","","","","","","","","","","","",""
"html-keyboard-response","296","380005","0.0-5.0-5.0-1.42","609a83645a6b336762951202","not_provided","desktop","0","0","0","","","","","","working_memory","","null","<img class='b' src=images/squares/yellow.png><img class='a' src=images/squares/red.png><img class='e' src=images/squares/black.png><img class='d' src=images/squares/magenta.png><img class='h' src=images/squares/orange.png><img class='g' src=images/squares/cyan.png><img class='l' src=images/squares/blue.png><img class='j' src=images/squares/brown.png><div class=""fixation"">+</div>","null","","","memory","exp","42","","","","","","","","","","","",""
"html-keyboard-response","297","380912","0.0-5.0-5.0-2.42","609a83645a6b336762951202","not_provided","desktop","0","0","0","","","","","","working_memory","","null","<div class=""fixation"">+</div>","null","","","","","","","","","","","","","","","","",""
"html-keyboard-response","298","381497","0.0-5.0-5.0-3.42","609a83645a6b336762951202","not_provided","desktop","0","0","0","","","","","","working_memory","","582","<img class='l' src=images/squares/green.png><div class=""fixation"">+</div>","s","","","test_squares","exp","42","8","k","false","sk","d","","","","","","",""
"html-keyboard-response","299","381999","0.0-5.0-5.0-4.42","609a83645a6b336762951202","not_provided","desktop","0","0","0","","","","","","working_memory","","null","<div class=""fixation"">Incorrect</div>","null","","","","","","","","","","","","","","","","",""
"html-keyboard-response","300","383006","0.0-5.0-5.0-0.43","609a83645a6b336762951202","not_provided","desktop","0","0","0","","","","","","working_memory","","null","<div class=""fixation"">+</div>","null","","","","","","","","","","","","","","","","",""
"html-keyboard-response","301","383212","0.0-5.0-5.0-1.43","609a83645a6b336762951202","not_provided","desktop","0","0","0","","","","","","working_memory","","null","<img class='a' src=images/squares/cyan.png><img class='c' src=images/squares/brown.png><img class='f' src=images/squares/green.png><img class='d' src=images/squares/orange.png><img class='h' src=images/squares/magenta.png><img class='i' src=images/squares/yellow.png><img class='l' src=images/squares/blue.png><img class='j' src=images/squares/red.png><div class=""fixation"">+</div>","null","","","memory","exp","43","","","","","","","","","","","",""
"html-keyboard-response","302","384116","0.0-5.0-5.0-2.43","609a83645a6b336762951202","not_provided","desktop","0","0","0","","","","","","working_memory","","null","<div class=""fixation"">+</div>","null","","","","","","","","","","","","","","","","",""
"html-keyboard-response","303","384953","0.0-5.0-5.0-3.43","609a83645a6b336762951202","not_provided","desktop","0","0","0","","","","","","working_memory","","835","<img class='i' src=images/squares/yellow.png><div class=""fixation"">+</div>","s","","","test_squares","exp","43","8","s","true","sk","s","","","","","","",""
"html-keyboard-response","304","385459","0.0-5.0-5.0-4.43","609a83645a6b336762951202","not_provided","desktop","0","0","0","","","","","","working_memory","","null","<div class=""fixation"">Correct</div>","null","","","","","","","","","","","","","","","","",""
