"trial_type","trial_index","time_elapsed","internal_node_id","subject_id","study_id","device_type","blur_count","fullscreen_exit_count","failed_attention_checks","success","timeout","failed_images","failed_audio","failed_video","phase","value","rt","stimulus","response","view_history","question_order","trial_name","block_type","trial_num","set_size","correct_response","accuracy","mapping","condition","prompt","flipped","attention","expected_answer","category","question_index","task"
"pavlovia","0","2428","0.0-0.0","6986cba3e8ebc723b0882887","not_provided","desktop","0","0","0","","","","","","","","","","","","","","","","","","","","","","","","","","",""
"preload","1","15670","0.0-2.0","6986cba3e8ebc723b0882887","not_provided","desktop","0","0","0","true","false","[]","[]","[]","","","","","","","","","","","","","","","","","","","","","",""
"html-keyboard-response","2","23703","0.0-3.0-0.0","6986cba3e8ebc723b0882887","not_provided","desktop","0","0","0","","","","","","captcha","","","","","","","","","","","","","","","","","","","","",""
"fullscreen","3","133631","0.0-4.0","6986cba3e8ebc723b0882887","not_provided","desktop","0","0","0","true","","","","","setup","","","","","","","","","","","","","","","","","","","","",""
"call-function","4","133632","0.0-5.0-0.0","6986cba3e8ebc723b0882887","not_provided","desktop","0","0","0","","","","","","working_memory","","","","","","","","","","","","","","","","","","","","",""
"html-keyboard-response","5","174630","0.0-5.0-1.0","6986cba3e8ebc723b0882887","not_provided","desktop","0","0","0","","","","","","working_memory","","40998","<div style=""text-align:center;font-family:sans-serif;""><p>Welcome to the luck game experiment!</p><p>This two-day experiment takes part in a study aimed at developing better clinical treatments.</p><p>We appreciate your participation and require your full concentration.</p><br><p>This is a two-day study. Payment (£6/hour) is only given upon completing both parts today and tomorrow.</p><p>You must finish the second part for compensation. After today, you'll receive an invitation for tomorrow's session.</p><p>Please ensure you can attend both sessions before proceeding. Otherwise, you may exit now.</p><p>If you have any questions, please contact us via prolific.</p><br><p>Please stay attentive and in fullscreen mode to ensure payment.</p><p>Thank you for participating!</p><br><p id=""continue-prompt"" style=""visibility:hidden;""><b>Press any key to continue.</b></p></div>"," ","","","","","","","","","","","","","","","","",""
"instructions","6","318386","0.0-5.0-2.0-0.0","6986cba3e8ebc723b0882887","not_provided","desktop","0","0","0","","","","","","working_memory","","143755","","","[{""page_index"":0,""viewing_time"":3373},{""page_index"":1,""viewing_time"":2642},{""page_index"":2,""viewing_time"":12171},{""page_index"":3,""viewing_time"":9124},{""page_index"":4,""viewing_time"":9648},{""page_index"":5,""viewing_time"":25532},{""page_index"":6,""viewing_time"":21133},{""page_index"":5,""viewing_time"":935},{""page_index"":6,""viewing_time"":18410},{""page_index"":7,""viewing_time"":9202},{""page_index"":8,""viewing_time"":31586}]","","","","","","","","","","","","","","","",""
"survey-multi-choice","7","509804","0.0-5.0-2.0-1.0","6986cba3e8ebc723b0882887","not_provided","desktop","0","0","0","","","","","","working_memory","","191416","","{""set_size"":""4 or 8"",""steps"":""True"",""choose_square"":""Press the 's' or 'k' key."",""remember"":""The color and location of the single 'test' square"",""task"":""To tell if the 'test' square is in the same color as the square previously appearing in this location""}","","[0,1,2,3,4]","test_squares_quiz","","","","","","","","","","","","","",""
"html-button-response","8","514337","0.0-5.0-2.0-2.0-0.0","6986cba3e8ebc723b0882887","not_provided","desktop","0","0","0","","","","","","working_memory","","4532","<p>Sorry, you made a mistake on the quiz.<br>Let's go back to the instructions &mdash; please read carefully before submitting again.<br>Thank you!</p>","0","","","","","","","","","","","","","","","","",""
"instructions","9","620707","0.0-5.0-2.1-0.1","6986cba3e8ebc723b0882887","not_provided","desktop","0","0","0","","","","","","working_memory","","106369","","","[{""page_index"":0,""viewing_time"":2740},{""page_index"":1,""viewing_time"":2628},{""page_index"":2,""viewing_time"":2588},{""page_index"":3,""viewing_time"":2486},{""page_index"":4,""viewing_time"":32252},{""page_index"":3,""viewing_time"":2672},{""page_index"":4,""viewing_time"":2004},{""page_index"":5,""viewing_time"":11452},{""page_index"":6,""viewing_time"":26970},{""page_index"":7,""viewing_time"":10478},{""page_index"":8,""viewing_time"":10100}]","","","","","","","","","","","","","","","",""
"survey-multi-choice","10","674443","0.0-5.0-2.1-1.1","6986cba3e8ebc723b0882887","not_provided","desktop","0","0","0","","","","","","working_memory","","53735","","{""set_size"":""4 or 8"",""steps"":""True"",""choose_square"":""Press the 's' or 'k' key."",""remember"":""The colors and locations of the 'memory' squares"",""task"":""To tell if the 'test' square is in the same color as the square previously appearing in this location""}","","[0,1,2,3,4]","test_squares_quiz","","","","","","","","","","","","","",""
"html-keyboard-response","11","733775","0.0-5.0-3.0-0.0","6986cba3e8ebc723b0882887","not_provided","desktop","0","0","0","","","","","","working_memory","","59331","<p>We will now start some practice trials.<br><b>The practice trials will also include some trials in which you will need to remember only one square to make sure you understood the instructions.</b><br>You may already want to be ready with your fingers on '<b>s</b>' and '<b>k</b>'.<br><img class=""wm-example-img"" src=""images/examples/keyboard.png""><br><b style=""font-size:1.2em;"">&lsquo;S&rsquo; = SAME &nbsp;&nbsp;&nbsp; &lsquo;K&rsquo; = DIFFERENT</b><br><br><u>Please try to be as accurate as possible.</u><br><br><b>Press any key to begin</b></p>"," ","","","","","","","","","","","","","","","","",""
"html-keyboard-response","12","735777","0.0-5.0-3.0-1.0-0.0","6986cba3e8ebc723b0882887","not_provided","desktop","0","0","0","","","","","","working_memory","","null","<div class=""fixation"">+</div>","null","","","","","","","","","","","","","","","","",""
"html-keyboard-response","13","735978","0.0-5.0-3.0-1.0-1.0","6986cba3e8ebc723b0882887","not_provided","desktop","0","0","0","","","","","","working_memory","","null","<img class='upper1' src=images/squares/black.png><div class=""fixation"">+</div>","null","","","memory","practice","0","1","","","","","","","","","","",""
"html-keyboard-response","14","736880","0.0-5.0-3.0-1.0-2.0","6986cba3e8ebc723b0882887","not_provided","desktop","0","0","0","","","","","","working_memory","","null","<div class=""fixation"">+</div>","null","","","","","","","","","","","","","","","","",""
"html-keyboard-response","15","739501","0.0-5.0-3.0-1.0-3.0","6986cba3e8ebc723b0882887","not_provided","desktop","0","0","0","","","","","","working_memory","","2621","<img class='upper1' src=images/squares/black.png><div class=""fixation"">+</div>","s","","","test","practice","0","1","s","true","","","","","","","","",""
"html-keyboard-response","16","740002","0.0-5.0-3.0-1.0-4.0","6986cba3e8ebc723b0882887","not_provided","desktop","0","0","0","","","","","","working_memory","","null","<div class=""fixation"">Correct</div>","null","","","","","","","","","","","","","","","","",""
"html-keyboard-response","17","741003","0.0-5.0-3.0-1.0-0.1","6986cba3e8ebc723b0882887","not_provided","desktop","0","0","0","","","","","","working_memory","","null","<div class=""fixation"">+</div>","null","","","","","","","","","","","","","","","","",""
"html-keyboard-response","18","741206","0.0-5.0-3.0-1.0-1.1","6986cba3e8ebc723b0882887","not_provided","desktop","0","0","0","","","","","","working_memory","","null","<img class='a' src=images/squares/cyan.png><img class='e' src=images/squares/yellow.png><img class='g' src=images/squares/black.png><img class='k' src=images/squares/green.png><div class=""fixation"">+</div>","null","","","memory","practice","1","4","","","","","","","","","","",""
"html-keyboard-response","19","742108","0.0-5.0-3.0-1.0-2.1","6986cba3e8ebc723b0882887","not_provided","desktop","0","0","0","","","","","","working_memory","","null","<div class=""fixation"">+</div>","null","","","","","","","","","","","","","","","","",""
"html-keyboard-response","20","743492","0.0-5.0-3.0-1.0-3.1","6986cba3e8ebc723b0882887","not_provided","desktop","0","0","0","","","","","","working_memory","","1384","<img class='a' src=images/squares/magenta.png><div class=""fixation"">+</div>","k","","","test","practice","1","4","k","true","","","","","","","","",""
"html-keyboard-response","21","743993","0.0-5.0-3.0-1.0-4.1","6986cba3e8ebc723b0882887","not_provided","desktop","0","0","0","","","","","","working_memory","","null","<div class=""fixation"">Correct</div>","null","","","","","","","","","","","","","","","","",""
"html-keyboard-response","22","744994","0.0-5.0-3.0-1.0-0.2","6986cba3e8ebc723b0882887","not_provided","desktop","0","0","0","","","","","","working_memory","","null","<div class=""fixation"">+</div>","null","","","","","","","","","","","","","","","","",""
"html-keyboard-response","23","745196","0.0-5.0-3.0-1.0-1.2","6986cba3e8ebc723b0882887","not_provided","desktop","0","0","0","","","","","","working_memory","","null","<img class='upper2' src=images/squares/black.png><div class=""fixation"">+</div>","null","","","memory","practice","2","1","","","","","","","","","","",""
"html-keyboard-response","24","746099","0.0-5.0-3.0-1.0-2.2","6986cba3e8ebc723b0882887","not_provided","desktop","0","0","0","","","","","","working_memory","","null","<div class=""fixation"">+</div>","null","","","","","","","","","","","","","","","","",""
"html-keyboard-response","25","747220","0.0-5.0-3.0-1.0-3.2","6986cba3e8ebc723b0882887","not_provided","desktop","0","0","0","","","","","","working_memory","","1121","<img class='upper2' src=images/squares/black.png><div class=""fixation"">+</div>","s","","","test","practice","2","1","s","true","","","","","","","","",""
"html-keyboard-response","26","747721","0.0-5.0-3.0-1.0-4.2","6986cba3e8ebc723b0882887","not_provided","desktop","0","0","0","","","","","","working_memory","","null","<div class=""fixation"">Correct</div>","null","","","","","","","","","","","","","","","","",""
"html-keyboard-response","27","748722","0.0-5.0-3.0-1.0-0.3","6986cba3e8ebc723b0882887","not_provided","desktop","0","0","0","","","","","","working_memory","","null","<div class=""fixation"">+</div>","null","","","","","","","","","","","","","","","","",""
"html-keyboard-response","28","748923","0.0-5.0-3.0-1.0-1.3","6986cba3e8ebc723b0882887","not_provided","desktop","0","0","0","","","","","","working_memory","","null","<img class='c' src=images/squares/magenta.png><img class='b' src=images/squares/orange.png><img class='d' src=images/squares/red.png><img class='e' src=images/squares/cyan.png><img class='h' src=images/squares/black.png><img class='i' src=images/squares/green.png><img class='l' src=images/squares/brown.png><img class='k' src=images/squares/blue.png><div class=""fixation"">+</div>","null","","","memory","practice","3","8","","","","","","","","","","",""
"html-keyboard-response","29","749824","0.0-5.0-3.0-1.0-2.3","6986cba3e8ebc723b0882887","not_provided","desktop","0","0","0","","","","","","working_memory","","null","<div class=""fixation"">+</div>","null","","","","","","","","","","","","","","","","",""
"html-keyboard-response","30","751328","0.0-5.0-3.0-1.0-3.3","6986cba3e8ebc723b0882887","not_provided","desktop","0","0","0","","","","","","working_memory","","1503","<img class='c' src=images/squares/magenta.png><div class=""fixation"">+</div>","k","","","test","practice","3","8","s","false","","","","","","","","",""
"html-keyboard-response","31","751829","0.0-5.0-3.0-1.0-4.3","6986cba3e8ebc723b0882887","not_provided","desktop","0","0","0","","","","","","working_memory","","null","<div class=""fixation"">Incorrect</div>","null","","","","","","","","","","","","","","","","",""
"html-keyboard-response","32","752830","0.0-5.0-3.0-1.0-0.4","6986cba3e8ebc723b0882887","not_provided","desktop","0","0","0","","","","","","working_memory","","null","<div class=""fixation"">+</div>","null","","","","","","","","","","","","","","","","",""
"html-keyboard-response","33","753032","0.0-5.0-3.0-1.0-1.4","6986cba3e8ebc723b0882887","not_provided","desktop","0","0","0","","","","","","working_memory","","null","<img class='b' src=images/squares/black.png><img class='d' src=images/squares/blue.png><img class='g' src=images/squares/red.png><img class='j' src=images/squares/magenta.png><div class=""fixation"">+</div>","null","","","memory","practice","4","4","","","","","","","","","","",""
"html-keyboard-response","34","753932","0.0-5.0-3.0-1.0-2.4","6986cba3e8ebc723b0882887","not_provided","desktop","0","0","0","","","","","","working_memory","","null","<div class=""fixation"">+</div>","null","","","","","","","","","","","","","","","","",""
"html-keyboard-response","35","755600","0.0-5.0-3.0-1.0-3.4","6986cba3e8ebc723b0882887","not_provided","desktop","0","0","0","","","","","","working_memory","","1667","<img class='g' src=images/squares/yellow.png><div class=""fixation"">+</div>","k","","","test","practice","4","4","k","true","","","","","","","","",""
"html-keyboard-response","36","756105","0.0-5.0-3.0-1.0-4.4","6986cba3e8ebc723b0882887","not_provided","desktop","0","0","0","","","","","","working_memory","","null","<div class=""fixation"">Correct</div>","null","","","","","","","","","","","","","","","","",""
"html-keyboard-response","37","757115","0.0-5.0-3.0-1.0-0.5","6986cba3e8ebc723b0882887","not_provided","desktop","0","0","0","","","","","","working_memory","","null","<div class=""fixation"">+</div>","null","","","","","","","","","","","","","","","","",""
"html-keyboard-response","38","757317","0.0-5.0-3.0-1.0-1.5","6986cba3e8ebc723b0882887","not_provided","desktop","0","0","0","","","","","","working_memory","","null","<img class='a' src=images/squares/red.png><img class='d' src=images/squares/blue.png><img class='g' src=images/squares/black.png><img class='j' src=images/squares/green.png><div class=""fixation"">+</div>","null","","","memory","practice","5","4","","","","","","","","","","",""
"html-keyboard-response","39","758218","0.0-5.0-3.0-1.0-2.5","6986cba3e8ebc723b0882887","not_provided","desktop","0","0","0","","","","","","working_memory","","null","<div class=""fixation"">+</div>","null","","","","","","","","","","","","","","","","",""
"html-keyboard-response","40","759388","0.0-5.0-3.0-1.0-3.5","6986cba3e8ebc723b0882887","not_provided","desktop","0","0","0","","","","","","working_memory","","1170","<img class='a' src=images/squares/yellow.png><div class=""fixation"">+</div>","k","","","test","practice","5","4","k","true","","","","","","","","",""
"html-keyboard-response","41","759889","0.0-5.0-3.0-1.0-4.5","6986cba3e8ebc723b0882887","not_provided","desktop","0","0","0","","","","","","working_memory","","null","<div class=""fixation"">Correct</div>","null","","","","","","","","","","","","","","","","",""
"html-keyboard-response","42","760890","0.0-5.0-3.0-1.0-0.6","6986cba3e8ebc723b0882887","not_provided","desktop","0","0","0","","","","","","working_memory","","null","<div class=""fixation"">+</div>","null","","","","","","","","","","","","","","","","",""
"html-keyboard-response","43","761092","0.0-5.0-3.0-1.0-1.6","6986cba3e8ebc723b0882887","not_provided","desktop","0","0","0","","","","","","working_memory","","null","<img class='c' src=images/squares/magenta.png><img class='d' src=images/squares/black.png><img class='h' src=images/squares/red.png><img class='j' src=images/squares/cyan.png><div class=""fixation"">+</div>","null","","","memory","practice","6","4","","","","","","","","","","",""
"html-keyboard-response","44","761993","0.0-5.0-3.0-1.0-2.6","6986cba3e8ebc723b0882887","not_provided","desktop","0","0","0","","","","","","working_memory","","null","<div class=""fixation"">+</div>","null","","","","","","","","","","","","","","","","",""
"html-keyboard-response","45","763095","0.0-5.0-3.0-1.0-3.6","6986cba3e8ebc723b0882887","not_provided","desktop","0","0","0","","","","","","working_memory","","1102","<img class='d' src=images/squares/orange.png><div class=""fixation"">+</div>","k","","","test","practice","6","4","k","true","","","","","","","","",""
"html-keyboard-response","46","763604","0.0-5.0-3.0-1.0-4.6","6986cba3e8ebc723b0882887","not_provided","desktop","0","0","0","","","","","","working_memory","","null","<div class=""fixation"">Correct</div>","null","","","","","","","","","","","","","","","","",""
"html-keyboard-response","47","764606","0.0-5.0-3.0-1.0-0.7","6986cba3e8ebc723b0882887","not_provided","desktop","0","0","0","","","","","","working_memory","","null","<div class=""fixation"">+</div>","null","","","","","","","","","","","","","","","","",""
"html-keyboard-response","48","764808","0.0-5.0-3.0-1.0-1.7","6986cba3e8ebc723b0882887","not_provided","desktop","0","0","0","","","","","","working_memory","","null","<img class='b' src=images/squares/orange.png><img class='e' src=images/squares/magenta.png><img class='h' src=images/squares/yellow.png><img class='k' src=images/squares/brown.png><div class=""fixation"">+</div>","null","","","memory","practice","7","4","","","","","","","","","","",""
"html-keyboard-response","49","765708","0.0-5.0-3.0-1.0-2.7","6986cba3e8ebc723b0882887","not_provided","desktop","0","0","0","","","","","","working_memory","","null","<div class=""fixation"">+</div>","null","","","","","","","","","","","","","","","","",""
"html-keyboard-response","50","766902","0.0-5.0-3.0-1.0-3.7","6986cba3e8ebc723b0882887","not_provided","desktop","0","0","0","","","","","","working_memory","","1193","<img class='k' src=images/squares/black.png><div class=""fixation"">+</div>","k","","","test","practice","7","4","k","true","","","","","","","","",""
"html-keyboard-response","51","767403","0.0-5.0-3.0-1.0-4.7","6986cba3e8ebc723b0882887","not_provided","desktop","0","0","0","","","","","","working_memory","","null","<div class=""fixation"">Correct</div>","null","","","","","","","","","","","","","","","","",""
"html-keyboard-response","52","768404","0.0-5.0-3.0-1.0-0.8","6986cba3e8ebc723b0882887","not_provided","desktop","0","0","0","","","","","","working_memory","","null","<div class=""fixation"">+</div>","null","","","","","","","","","","","","","","","","",""
"html-keyboard-response","53","768614","0.0-5.0-3.0-1.0-1.8","6986cba3e8ebc723b0882887","not_provided","desktop","0","0","0","","","","","","working_memory","","null","<img class='b' src=images/squares/red.png><img class='d' src=images/squares/black.png><img class='g' src=images/squares/blue.png><img class='k' src=images/squares/cyan.png><div class=""fixation"">+</div>","null","","","memory","practice","8","4","","","","","","","","","","",""
"html-keyboard-response","54","769516","0.0-5.0-3.0-1.0-2.8","6986cba3e8ebc723b0882887","not_provided","desktop","0","0","0","","","","","","working_memory","","null","<div class=""fixation"">+</div>","null","","","","","","","","","","","","","","","","",""
"html-keyboard-response","55","770541","0.0-5.0-3.0-1.0-3.8","6986cba3e8ebc723b0882887","not_provided","desktop","0","0","0","","","","","","working_memory","","1025","<img class='d' src=images/squares/magenta.png><div class=""fixation"">+</div>","k","","","test","practice","8","4","k","true","","","","","","","","",""
"html-keyboard-response","56","771042","0.0-5.0-3.0-1.0-4.8","6986cba3e8ebc723b0882887","not_provided","desktop","0","0","0","","","","","","working_memory","","null","<div class=""fixation"">Correct</div>","null","","","","","","","","","","","","","","","","",""
"html-keyboard-response","57","772043","0.0-5.0-3.0-1.0-0.9","6986cba3e8ebc723b0882887","not_provided","desktop","0","0","0","","","","","","working_memory","","null","<div class=""fixation"">+</div>","null","","","","","","","","","","","","","","","","",""
"html-keyboard-response","58","772246","0.0-5.0-3.0-1.0-1.9","6986cba3e8ebc723b0882887","not_provided","desktop","0","0","0","","","","","","working_memory","","null","<img class='upper3' src=images/squares/green.png><div class=""fixation"">+</div>","null","","","memory","practice","9","1","","","","","","","","","","",""
"html-keyboard-response","59","773147","0.0-5.0-3.0-1.0-2.9","6986cba3e8ebc723b0882887","not_provided","desktop","0","0","0","","","","","","working_memory","","null","<div class=""fixation"">+</div>","null","","","","","","","","","","","","","","","","",""
"html-keyboard-response","60","774108","0.0-5.0-3.0-1.0-3.9","6986cba3e8ebc723b0882887","not_provided","desktop","0","0","0","","","","","","working_memory","","961","<img class='upper3' src=images/squares/red.png><div class=""fixation"">+</div>","k","","","test","practice","9","1","k","true","","","","","","","","",""
"html-keyboard-response","61","774617","0.0-5.0-3.0-1.0-4.9","6986cba3e8ebc723b0882887","not_provided","desktop","0","0","0","","","","","","working_memory","","null","<div class=""fixation"">Correct</div>","null","","","","","","","","","","","","","","","","",""
"html-keyboard-response","62","775624","0.0-5.0-3.0-1.0-0.10","6986cba3e8ebc723b0882887","not_provided","desktop","0","0","0","","","","","","working_memory","","null","<div class=""fixation"">+</div>","null","","","","","","","","","","","","","","","","",""
"html-keyboard-response","63","775826","0.0-5.0-3.0-1.0-1.10","6986cba3e8ebc723b0882887","not_provided","desktop","0","0","0","","","","","","working_memory","","null","<img class='b' src=images/squares/yellow.png><img class='f' src=images/squares/orange.png><img class='g' src=images/squares/magenta.png><img class='l' src=images/squares/cyan.png><div class=""fixation"">+</div>","null","","","memory","practice","10","4","","","","","","","","","","",""
"html-keyboard-response","64","776728","0.0-5.0-3.0-1.0-2.10","6986cba3e8ebc723b0882887","not_provided","desktop","0","0","0","","","","","","working_memory","","null","<div class=""fixation"">+</div>","null","","","","","","","","","","","","","","","","",""
"html-keyboard-response","65","777658","0.0-5.0-3.0-1.0-3.10","6986cba3e8ebc723b0882887","not_provided","desktop","0","0","0","","","","","","working_memory","","930","<img class='f' src=images/squares/blue.png><div class=""fixation"">+</div>","k","","","test","practice","10","4","k","true","","","","","","","","",""
"html-keyboard-response","66","778160","0.0-5.0-3.0-1.0-4.10","6986cba3e8ebc723b0882887","not_provided","desktop","0","0","0","","","","","","working_memory","","null","<div class=""fixation"">Correct</div>","null","","","","","","","","","","","","","","","","",""
"html-keyboard-response","67","779162","0.0-5.0-3.0-1.0-0.11","6986cba3e8ebc723b0882887","not_provided","desktop","0","0","0","","","","","","working_memory","","null","<div class=""fixation"">+</div>","null","","","","","","","","","","","","","","","","",""
"html-keyboard-response","68","779363","0.0-5.0-3.0-1.0-1.11","6986cba3e8ebc723b0882887","not_provided","desktop","0","0","0","","","","","","working_memory","","null","<img class='b' src=images/squares/cyan.png><img class='d' src=images/squares/brown.png><img class='g' src=images/squares/red.png><img class='l' src=images/squares/orange.png><div class=""fixation"">+</div>","null","","","memory","practice","11","4","","","","","","","","","","",""
"html-keyboard-response","69","780264","0.0-5.0-3.0-1.0-2.11","6986cba3e8ebc723b0882887","not_provided","desktop","0","0","0","","","","","","working_memory","","null","<div class=""fixation"">+</div>","null","","","","","","","","","","","","","","","","",""
"html-keyboard-response","70","781344","0.0-5.0-3.0-1.0-3.11","6986cba3e8ebc723b0882887","not_provided","desktop","0","0","0","","","","","","working_memory","","1080","<img class='b' src=images/squares/blue.png><div class=""fixation"">+</div>","k","","","test","practice","11","4","k","true","","","","","","","","",""
"html-keyboard-response","71","781845","0.0-5.0-3.0-1.0-4.11","6986cba3e8ebc723b0882887","not_provided","desktop","0","0","0","","","","","","working_memory","","null","<div class=""fixation"">Correct</div>","null","","","","","","","","","","","","","","","","",""
"html-keyboard-response","72","782847","0.0-5.0-3.0-1.0-0.12","6986cba3e8ebc723b0882887","not_provided","desktop","0","0","0","","","","","","working_memory","","null","<div class=""fixation"">+</div>","null","","","","","","","","","","","","","","","","",""
"html-keyboard-response","73","783048","0.0-5.0-3.0-1.0-1.12","6986cba3e8ebc723b0882887","not_provided","desktop","0","0","0","","","","","","working_memory","","null","<img class='b' src=images/squares/cyan.png><img class='e' src=images/squares/yellow.png><img class='i' src=images/squares/green.png><img class='l' src=images/squares/black.png><div class=""fixation"">+</div>","null","","","memory","practice","12","4","","","","","","","","","","",""
"html-keyboard-response","74","783950","0.0-5.0-3.0-1.0-2.12","6986cba3e8ebc723b0882887","not_provided","desktop","0","0","0","","","","","","working_memory","","null","<div class=""fixation"">+</div>","null","","","","","","","","","","","","","","","","",""
"html-keyboard-response","75","785113","0.0-5.0-3.0-1.0-3.12","6986cba3e8ebc723b0882887","not_provided","desktop","0","0","0","","","","","","working_memory","","1163","<img class='l' src=images/squares/black.png><div class=""fixation"">+</div>","s","","","test","practice","12","4","s","true","","","","","","","","",""
"html-keyboard-response","76","785615","0.0-5.0-3.0-1.0-4.12","6986cba3e8ebc723b0882887","not_provided","desktop","0","0","0","","","","","","working_memory","","null","<div class=""fixation"">Correct</div>","null","","","","","","","","","","","","","","","","",""
"html-keyboard-response","77","786616","0.0-5.0-3.0-1.0-0.13","6986cba3e8ebc723b0882887","not_provided","desktop","0","0","0","","","","","","working_memory","","null","<div class=""fixation"">+</div>","null","","","","","","","","","","","","","","","","",""
"html-keyboard-response","78","786818","0.0-5.0-3.0-1.0-1.13","6986cba3e8ebc723b0882887","not_provided","desktop","0","0","0","","","","","","working_memory","","null","<img class='lower2' src=images/squares/orange.png><div class=""fixation"">+</div>","null","","","memory","practice","13","1","","","","","","","","","","",""
"html-keyboard-response","79","787719","0.0-5.0-3.0-1.0-2.13","6986cba3e8ebc723b0882887","not_provided","desktop","0","0","0","","","","","","working_memory","","null","<div class=""fixation"">+</div>","null","","","","","","","","","","","","","","","","",""
"html-keyboard-response","80","788554","0.0-5.0-3.0-1.0-3.13","6986cba3e8ebc723b0882887","not_provided","desktop","0","0","0","","","","","","working_memory","","834","<img class='lower2' src=images/squares/red.png><div class=""fixation"">+</div>","k","","","test","practice","13","1","k","true","","","","","","","","",""
"html-keyboard-response","81","789055","0.0-5.0-3.0-1.0-4.13","6986cba3e8ebc723b0882887","not_provided","desktop","0","0","0","","","","","","working_memory","","null","<div class=""fixation"">Correct</div>","null","","","","","","","","","","","","","","","","",""
"html-keyboard-response","82","790055","0.0-5.0-3.0-1.0-0.14","6986cba3e8ebc723b0882887","not_provided","desktop","0","0","0","","","","","","working_memory","","null","<div class=""fixation"">+</div>","null","","","","","","","","","","","","","","","","",""
"html-keyboard-response","83","790256","0.0-5.0-3.0-1.0-1.14","6986cba3e8ebc723b0882887","not_provided","desktop","0","0","0","","","","","","working_memory","","null","<img class='upper1' src=images/squares/black.png><div class=""fixation"">+</div>","null","","","memory","practice","14","1","","","","","","","","","","",""
"html-keyboard-response","84","791157","0.0-5.0-3.0-1.0-2.14","6986cba3e8ebc723b0882887","not_provided","desktop","0","0","0","","","","","","working_memory","","null","<div class=""fixation"">+</div>","null","","","","","","","","","","","","","","","","",""
"html-keyboard-response","85","792160","0.0-5.0-3.0-1.0-3.14","6986cba3e8ebc723b0882887","not_provided","desktop","0","0","0","","","","","","working_memory","","1002","<img class='upper1' src=images/squares/black.png><div class=""fixation"">+</div>","s","","","test","practice","14","1","s","true","","","","","","","","",""
"html-keyboard-response","86","792661","0.0-5.0-3.0-1.0-4.14","6986cba3e8ebc723b0882887","not_provided","desktop","0","0","0","","","","","","working_memory","","null","<div class=""fixation"">Correct</div>","null","","","","","","","","","","","","","","","","",""
"html-keyboard-response","87","811501","0.0-5.0-4.0","6986cba3e8ebc723b0882887","not_provided","desktop","0","0","0","","","","","","working_memory","","18840","<div style=""text-align:center;font-family:sans-serif;""><p>Good job! You have finished the practice.</p><p>We will now start the real experiment.</p><p>Please try to be as accurate as possible.</p><p><b><u>Note: random guessing may risk your payment.</u></b></p><br><p><b>Press any key to begin.</b></p></div>"," ","","","","","","","","","","","","","","","","",""
"html-keyboard-response","88","812502","0.0-5.0-5.0-0.0","6986cba3e8ebc723b0882887","not_provided","desktop","0","0","0","","","","","","working_memory","","null","<div class=""fixation"">+</div>","null","","","","","","","","","","","","","","","","",""
"html-keyboard-response","89","812704","0.0-5.0-5.0-1.0","6986cba3e8ebc723b0882887","not_provided","desktop","0","0","0","","","","","","working_memory","","null","<img class='a' src=images/squares/cyan.png><img class='b' src=images/squares/brown.png><img class='e' src=images/squares/green.png><img class='d' src=images/squares/red.png><img class='g' src=images/squares/orange.png><img class='h' src=images/squares/magenta.png><img class='l' src=images/squares/blue.png><img class='j' src=images/squares/yellow.png><div class=""fixation"">+</div>","null","","","memory","exp","0","","","","","","","","","","","",""
"html-keyboard-response","90","813606","0.0-5.0-5.0-2.0","6986cba3e8ebc723b0882887","not_provided","desktop","0","0","0","","","","","","working_memory","","null","<div class=""fixation"">+</div>","null","","","","","","","","","","","","","","","","",""
"html-keyboard-response","91","814529","0.0-5.0-5.0-3.0","6986cba3e8ebc723b0882887","not_provided","desktop","0","0","0","","","","","","working_memory","","922","<img class='d' src=images/squares/black.png><div class=""fixation"">+</div>","k","","","test_squares","exp","0","8","k","true","sk","d","","","","","","",""
"html-keyboard-response","92","815029","0.0-5.0-5.0-4.0","6986cba3e8ebc723b0882887","not_provided","desktop","0","0","0","","","","","","working_memory","","null","<div class=""fixation"">Correct</div>","null","","","","","","","","","","","","","","","","",""
"html-keyboard-response","93","816030","0.0-5.0-5.0-0.1","6986cba3e8ebc723b0882887","not_provided","desktop","0","0","0","","","","","","working_memory","","null","<div class=""fixation"">+</div>","null","","","","","","","","","","","","","","","","",""
"html-keyboard-response","94","816232","0.0-5.0-5.0-1.1","6986cba3e8ebc723b0882887","not_provided","desktop","0","0","0","","","","","","working_memory","","null","<img class='b' src=images/squares/cyan.png><img class='a' src=images/squares/blue.png><img class='e' src=images/squares/black.png><img class='f' src=images/squares/orange.png><img class='i' src=images/squares/red.png><img class='h' src=images/squares/green.png><img class='l' src=images/squares/magenta.png><img class='j' src=images/squares/brown.png><div class=""fixation"">+</div>","null","","","memory","exp","1","","","","","","","","","","","",""
"html-keyboard-response","95","817133","0.0-5.0-5.0-2.1","6986cba3e8ebc723b0882887","not_provided","desktop","0","0","0","","","","","","working_memory","","null","<div class=""fixation"">+</div>","null","","","","","","","","","","","","","","","","",""
"html-keyboard-response","96","818225","0.0-5.0-5.0-3.1","6986cba3e8ebc723b0882887","not_provided","desktop","0","0","0","","","","","","working_memory","","1092","<img class='h' src=images/squares/yellow.png><div class=""fixation"">+</div>","k","","","test_squares","exp","1","8","k","true","sk","d","","","","","","",""
"html-keyboard-response","97","818726","0.0-5.0-5.0-4.1","6986cba3e8ebc723b0882887","not_provided","desktop","0","0","0","","","","","","working_memory","","null","<div class=""fixation"">Correct</div>","null","","","","","","","","","","","","","","","","",""
"html-keyboard-response","98","819727","0.0-5.0-5.0-0.2","6986cba3e8ebc723b0882887","not_provided","desktop","0","0","0","","","","","","working_memory","","null","<div class=""fixation"">+</div>","null","","","","","","","","","","","","","","","","",""
"html-keyboard-response","99","819929","0.0-5.0-5.0-1.2","6986cba3e8ebc723b0882887","not_provided","desktop","0","0","0","","","","","","working_memory","","null","<img class='a' src=images/squares/red.png><img class='d' src=images/squares/green.png><img class='g' src=images/squares/black.png><img class='k' src=images/squares/brown.png><div class=""fixation"">+</div>","null","","","memory","exp","2","","","","","","","","","","","",""
"html-keyboard-response","100","820831","0.0-5.0-5.0-2.2","6986cba3e8ebc723b0882887","not_provided","desktop","0","0","0","","","","","","working_memory","","null","<div class=""fixation"">+</div>","null","","","","","","","","","","","","","","","","",""
"html-keyboard-response","101","821605","0.0-5.0-5.0-3.2","6986cba3e8ebc723b0882887","not_provided","desktop","0","0","0","","","","","","working_memory","","774","<img class='d' src=images/squares/green.png><div class=""fixation"">+</div>","s","","","test_squares","exp","2","4","s","true","sk","s","","","","","","",""
"html-keyboard-response","102","822106","0.0-5.0-5.0-4.2","6986cba3e8ebc723b0882887","not_provided","desktop","0","0","0","","","","","","working_memory","","null","<div class=""fixation"">Correct</div>","null","","","","","","","","","","","","","","","","",""
"html-keyboard-response","103","823108","0.0-5.0-5.0-0.3","6986cba3e8ebc723b0882887","not_provided","desktop","0","0","0","","","","","","working_memory","","null","<div class=""fixation"">+</div>","null","","","","","","","","","","","","","","","","",""
"html-keyboard-response","104","823309","0.0-5.0-5.0-1.3","6986cba3e8ebc723b0882887","not_provided","desktop","0","0","0","","","","","","working_memory","","null","<img class='c' src=images/squares/orange.png><img class='f' src=images/squares/red.png><img class='i' src=images/squares/cyan.png><img class='l' src=images/squares/black.png><div class=""fixation"">+</div>","null","","","memory","exp","3","","","","","","","","","","","",""
"html-keyboard-response","105","824210","0.0-5.0-5.0-2.3","6986cba3e8ebc723b0882887","not_provided","desktop","0","0","0","","","","","","working_memory","","null","<div class=""fixation"">+</div>","null","","","","","","","","","","","","","","","","",""
"html-keyboard-response","106","825233","0.0-5.0-5.0-3.3","6986cba3e8ebc723b0882887","not_provided","desktop","0","0","0","","","","","","working_memory","","1022","<img class='c' src=images/squares/orange.png><div class=""fixation"">+</div>","k","","","test_squares","exp","3","4","s","false","sk","s","","","","","","",""
"html-keyboard-response","107","825734","0.0-5.0-5.0-4.3","6986cba3e8ebc723b0882887","not_provided","desktop","0","0","0","","","","","","working_memory","","null","<div class=""fixation"">Incorrect</div>","null","","","","","","","","","","","","","","","","",""
"html-keyboard-response","108","826736","0.0-5.0-5.0-0.4","6986cba3e8ebc723b0882887","not_provided","desktop","0","0","0","","","","","","working_memory","","null","<div class=""fixation"">+</div>","null","","","","","","","","","","","","","","","","",""
"html-keyboard-response","109","826937","0.0-5.0-5.0-1.4","6986cba3e8ebc723b0882887","not_provided","desktop","0","0","0","","","","","","working_memory","","null","<img class='a' src=images/squares/yellow.png><img class='d' src=images/squares/orange.png><img class='g' src=images/squares/brown.png><img class='l' src=images/squares/blue.png><div class=""fixation"">+</div>","null","","","memory","exp","4","","","","","","","","","","","",""
"html-keyboard-response","110","827839","0.0-5.0-5.0-2.4","6986cba3e8ebc723b0882887","not_provided","desktop","0","0","0","","","","","","working_memory","","null","<div class=""fixation"">+</div>","null","","","","","","","","","","","","","","","","",""
"html-keyboard-response","111","828640","0.0-5.0-5.0-3.4","6986cba3e8ebc723b0882887","not_provided","desktop","0","0","0","","","","","","working_memory","","801","<img class='d' src=images/squares/black.png><div class=""fixation"">+</div>","k","","","test_squares","exp","4","4","k","true","sk","d","","","","","","",""
"html-keyboard-response","112","829141","0.0-5.0-5.0-4.4","6986cba3e8ebc723b0882887","not_provided","desktop","0","0","0","","","","","","working_memory","","null","<div class=""fixation"">Correct</div>","null","","","","","","","","","","","","","","","","",""
"html-keyboard-response","113","830142","0.0-5.0-5.0-0.5","6986cba3e8ebc723b0882887","not_provided","desktop","0","0","0","","","","","","working_memory","","null","<div class=""fixation"">+</div>","null","","","","","","","","","","","","","","","","",""
"html-keyboard-response","114","830344","0.0-5.0-5.0-1.5","6986cba3e8ebc723b0882887","not_provided","desktop","0","0","0","","","","","","working_memory","","null","<img class='b' src=images/squares/blue.png><img class='c' src=images/squares/cyan.png><img class='e' src=images/squares/magenta.png><img class='f' src=images/squares/yellow.png><img class='i' src=images/squares/red.png><img class='g' src=images/squares/brown.png><img class='l' src=images/squares/black.png><img class='k' src=images/squares/green.png><div class=""fixation"">+</div>","null","","","memory","exp","5","","","","","","","","","","","",""
"html-keyboard-response","115","831245","0.0-5.0-5.0-2.5","6986cba3e8ebc723b0882887","not_provided","desktop","0","0","0","","","","","","working_memory","","null","<div class=""fixation"">+</div>","null","","","","","","","","","","","","","","","","",""
"html-keyboard-response","116","832252","0.0-5.0-5.0-3.5","6986cba3e8ebc723b0882887","not_provided","desktop","0","0","0","","","","","","working_memory","","1006","<img class='g' src=images/squares/brown.png><div class=""fixation"">+</div>","s","","","test_squares","exp","5","8","s","true","sk","s","","","","","","",""
"html-keyboard-response","117","832753","0.0-5.0-5.0-4.5","6986cba3e8ebc723b0882887","not_provided","desktop","0","0","0","","","","","","working_memory","","null","<div class=""fixation"">Correct</div>","null","","","","","","","","","","","","","","","","",""
"html-keyboard-response","118","833754","0.0-5.0-5.0-0.6","6986cba3e8ebc723b0882887","not_provided","desktop","0","0","0","","","","","","working_memory","","null","<div class=""fixation"">+</div>","null","","","","","","","","","","","","","","","","",""
"html-keyboard-response","119","833956","0.0-5.0-5.0-1.6","6986cba3e8ebc723b0882887","not_provided","desktop","0","0","0","","","","","","working_memory","","null","<img class='c' src=images/squares/cyan.png><img class='a' src=images/squares/black.png><img class='e' src=images/squares/magenta.png><img class='f' src=images/squares/yellow.png><img class='i' src=images/squares/blue.png><img class='g' src=images/squares/orange.png><img class='l' src=images/squares/red.png><img class='j' src=images/squares/brown.png><div class=""fixation"">+</div>","null","","","memory","exp","6","","","","","","","","","","","",""
"html-keyboard-response","120","834858","0.0-5.0-5.0-2.6","6986cba3e8ebc723b0882887","not_provided","desktop","0","0","0","","","","","","working_memory","","null","<div class=""fixation"">+</div>","null","","","","","","","","","","","","","","","","",""
"html-keyboard-response","121","835939","0.0-5.0-5.0-3.6","6986cba3e8ebc723b0882887","not_provided","desktop","0","0","0","","","","","","working_memory","","1081","<img class='f' src=images/squares/yellow.png><div class=""fixation"">+</div>","s","","","test_squares","exp","6","8","s","true","sk","s","","","","","","",""
"html-keyboard-response","122","836440","0.0-5.0-5.0-4.6","6986cba3e8ebc723b0882887","not_provided","desktop","0","0","0","","","","","","working_memory","","null","<div class=""fixation"">Correct</div>","null","","","","","","","","","","","","","","","","",""
"html-keyboard-response","123","837441","0.0-5.0-5.0-0.7","6986cba3e8ebc723b0882887","not_provided","desktop","0","0","0","","","","","","working_memory","","null","<div class=""fixation"">+</div>","null","","","","","","","","","","","","","","","","",""
"html-keyboard-response","124","837643","0.0-5.0-5.0-1.7","6986cba3e8ebc723b0882887","not_provided","desktop","0","0","0","","","","","","working_memory","","null","<img class='b' src=images/squares/black.png><img class='c' src=images/squares/red.png><img class='f' src=images/squares/orange.png><img class='d' src=images/squares/blue.png><img class='g' src=images/squares/magenta.png><img class='i' src=images/squares/green.png><img class='j' src=images/squares/brown.png><img class='l' src=images/squares/cyan.png><div class=""fixation"">+</div>","null","","","memory","exp","7","","","","","","","","","","","",""
"html-keyboard-response","125","838544","0.0-5.0-5.0-2.7","6986cba3e8ebc723b0882887","not_provided","desktop","0","0","0","","","","","","working_memory","","null","<div class=""fixation"">+</div>","null","","","","","","","","","","","","","","","","",""
"html-keyboard-response","126","839572","0.0-5.0-5.0-3.7","6986cba3e8ebc723b0882887","not_provided","desktop","0","0","0","","","","","","working_memory","","1028","<img class='b' src=images/squares/black.png><div class=""fixation"">+</div>","s","","","test_squares","exp","7","8","s","true","sk","s","","","","","","",""
"html-keyboard-response","127","840072","0.0-5.0-5.0-4.7","6986cba3e8ebc723b0882887","not_provided","desktop","0","0","0","","","","","","working_memory","","null","<div class=""fixation"">Correct</div>","null","","","","","","","","","","","","","","","","",""
"html-keyboard-response","128","841088","0.0-5.0-5.0-0.8","6986cba3e8ebc723b0882887","not_provided","desktop","0","0","0","","","","","","working_memory","","null","<div class=""fixation"">+</div>","null","","","","","","","","","","","","","","","","",""
"html-keyboard-response","129","841289","0.0-5.0-5.0-1.8","6986cba3e8ebc723b0882887","not_provided","desktop","0","0","0","","","","","","working_memory","","null","<img class='a' src=images/squares/blue.png><img class='e' src=images/squares/red.png><img class='g' src=images/squares/yellow.png><img class='k' src=images/squares/brown.png><div class=""fixation"">+</div>","null","","","memory","exp","8","","","","","","","","","","","",""
"html-keyboard-response","130","842190","0.0-5.0-5.0-2.8","6986cba3e8ebc723b0882887","not_provided","desktop","0","0","0","","","","","","working_memory","","null","<div class=""fixation"">+</div>","null","","","","","","","","","","","","","","","","",""
"html-keyboard-response","131","843061","0.0-5.0-5.0-3.8","6986cba3e8ebc723b0882887","not_provided","desktop","0","0","0","","","","","","working_memory","","871","<img class='k' src=images/squares/brown.png><div class=""fixation"">+</div>","s","","","test_squares","exp","8","4","s","true","sk","s","","","","","","",""
"html-keyboard-response","132","843563","0.0-5.0-5.0-4.8","6986cba3e8ebc723b0882887","not_provided","desktop","0","0","0","","","","","","working_memory","","null","<div class=""fixation"">Correct</div>","null","","","","","","","","","","","","","","","","",""
"html-keyboard-response","133","844564","0.0-5.0-5.0-0.9","6986cba3e8ebc723b0882887","not_provided","desktop","0","0","0","","","","","","working_memory","","null","<div class=""fixation"">+</div>","null","","","","","","","","","","","","","","","","",""
"html-keyboard-response","134","844767","0.0-5.0-5.0-1.9","6986cba3e8ebc723b0882887","not_provided","desktop","0","0","0","","","","","","working_memory","","null","<img class='b' src=images/squares/yellow.png><img class='c' src=images/squares/cyan.png><img class='f' src=images/squares/black.png><img class='e' src=images/squares/brown.png><img class='g' src=images/squares/orange.png><img class='h' src=images/squares/magenta.png><img class='j' src=images/squares/green.png><img class='k' src=images/squares/red.png><div class=""fixation"">+</div>","null","","","memory","exp","9","","","","","","","","","","","",""
"html-keyboard-response","135","845668","0.0-5.0-5.0-2.9","6986cba3e8ebc723b0882887","not_provided","desktop","0","0","0","","","","","","working_memory","","null","<div class=""fixation"">+</div>","null","","","","","","","","","","","","","","","","",""
"html-keyboard-response","136","846603","0.0-5.0-5.0-3.9","6986cba3e8ebc723b0882887","not_provided","desktop","0","0","0","","","","","","working_memory","","935","<img class='c' src=images/squares/cyan.png><div class=""fixation"">+</div>","k","","","test_squares","exp","9","8","s","false","sk","s","","","","","","",""
"html-keyboard-response","137","847108","0.0-5.0-5.0-4.9","6986cba3e8ebc723b0882887","not_provided","desktop","0","0","0","","","","","","working_memory","","null","<div class=""fixation"">Incorrect</div>","null","","","","","","","","","","","","","","","","",""
"html-keyboard-response","138","848110","0.0-5.0-5.0-0.10","6986cba3e8ebc723b0882887","not_provided","desktop","0","0","0","","","","","","working_memory","","null","<div class=""fixation"">+</div>","null","","","","","","","","","","","","","","","","",""
"html-keyboard-response","139","848312","0.0-5.0-5.0-1.10","6986cba3e8ebc723b0882887","not_provided","desktop","0","0","0","","","","","","working_memory","","null","<img class='c' src=images/squares/magenta.png><img class='a' src=images/squares/orange.png><img class='f' src=images/squares/blue.png><img class='d' src=images/squares/yellow.png><img class='i' src=images/squares/black.png><img class='g' src=images/squares/red.png><img class='j' src=images/squares/cyan.png><img class='l' src=images/squares/brown.png><div class=""fixation"">+</div>","null","","","memory","exp","10","","","","","","","","","","","",""
"html-keyboard-response","140","849213","0.0-5.0-5.0-2.10","6986cba3e8ebc723b0882887","not_provided","desktop","0","0","0","","","","","","working_memory","","null","<div class=""fixation"">+</div>","null","","","","","","","","","","","","","","","","",""
"html-keyboard-response","141","850189","0.0-5.0-5.0-3.10","6986cba3e8ebc723b0882887","not_provided","desktop","0","0","0","","","","","","working_memory","","975","<img class='d' src=images/squares/green.png><div class=""fixation"">+</div>","k","","","test_squares","exp","10","8","k","true","sk","d","","","","","","",""
"html-keyboard-response","142","850689","0.0-5.0-5.0-4.10","6986cba3e8ebc723b0882887","not_provided","desktop","0","0","0","","","","","","working_memory","","null","<div class=""fixation"">Correct</div>","null","","","","","","","","","","","","","","","","",""
"html-keyboard-response","143","851691","0.0-5.0-5.0-0.11","6986cba3e8ebc723b0882887","not_provided","desktop","0","0","0","","","","","","working_memory","","null","<div class=""fixation"">+</div>","null","","","","","","","","","","","","","","","","",""
"html-keyboard-response","144","851893","0.0-5.0-5.0-1.11","6986cba3e8ebc723b0882887","not_provided","desktop","0","0","0","","","","","","working_memory","","null","<img class='b' src=images/squares/orange.png><img class='a' src=images/squares/brown.png><img class='f' src=images/squares/black.png><img class='d' src=images/squares/magenta.png><img class='i' src=images/squares/red.png><img class='h' src=images/squares/blue.png><img class='k' src=images/squares/cyan.png><img class='l' src=images/squares/yellow.png><div class=""fixation"">+</div>","null","","","memory","exp","11","","","","","","","","","","","",""
"html-keyboard-response","145","852794","0.0-5.0-5.0-2.11","6986cba3e8ebc723b0882887","not_provided","desktop","0","0","0","","","","","","working_memory","","null","<div class=""fixation"">+</div>","null","","","","","","","","","","","","","","","","",""
"html-keyboard-response","146","853709","0.0-5.0-5.0-3.11","6986cba3e8ebc723b0882887","not_provided","desktop","0","0","0","","","","","","working_memory","","915","<img class='i' src=images/squares/green.png><div class=""fixation"">+</div>","s","","","test_squares","exp","11","8","k","false","sk","d","","","","","","",""
"html-keyboard-response","147","854210","0.0-5.0-5.0-4.11","6986cba3e8ebc723b0882887","not_provided","desktop","0","0","0","","","","","","working_memory","","null","<div class=""fixation"">Incorrect</div>","null","","","","","","","","","","","","","","","","",""
"html-keyboard-response","148","855211","0.0-5.0-5.0-0.12","6986cba3e8ebc723b0882887","not_provided","desktop","0","0","0","","","","","","working_memory","","null","<div class=""fixation"">+</div>","null","","","","","","","","","","","","","","","","",""
"html-keyboard-response","149","855413","0.0-5.0-5.0-1.12","6986cba3e8ebc723b0882887","not_provided","desktop","0","0","0","","","","","","working_memory","","null","<img class='b' src=images/squares/black.png><img class='c' src=images/squares/green.png><img class='f' src=images/squares/orange.png><img class='e' src=images/squares/magenta.png><img class='g' src=images/squares/blue.png><img class='h' src=images/squares/brown.png><img class='l' src=images/squares/yellow.png><img class='j' src=images/squares/cyan.png><div class=""fixation"">+</div>","null","","","memory","exp","12","","","","","","","","","","","",""
"html-keyboard-response","150","856314","0.0-5.0-5.0-2.12","6986cba3e8ebc723b0882887","not_provided","desktop","0","0","0","","","","","","working_memory","","null","<div class=""fixation"">+</div>","null","","","","","","","","","","","","","","","","",""
"html-keyboard-response","151","857190","0.0-5.0-5.0-3.12","6986cba3e8ebc723b0882887","not_provided","desktop","0","0","0","","","","","","working_memory","","875","<img class='l' src=images/squares/red.png><div class=""fixation"">+</div>","k","","","test_squares","exp","12","8","k","true","sk","d","","","","","","",""
"html-keyboard-response","152","857691","0.0-5.0-5.0-4.12","6986cba3e8ebc723b0882887","not_provided","desktop","0","0","0","","","","","","working_memory","","null","<div class=""fixation"">Correct</div>","null","","","","","","","","","","","","","","","","",""
"html-keyboard-response","153","858692","0.0-5.0-5.0-0.13","6986cba3e8ebc723b0882887","not_provided","desktop","0","0","0","","","","","","working_memory","","null","<div class=""fixation"">+</div>","null","","","","","","","","","","","","","","","","",""
"html-keyboard-response","154","858893","0.0-5.0-5.0-1.13","6986cba3e8ebc723b0882887","not_provided","desktop","0","0","0","","","","","","working_memory","","null","<img class='b' src=images/squares/blue.png><img class='e' src=images/squares/black.png><img class='h' src=images/squares/red.png><img class='l' src=images/squares/brown.png><div class=""fixation"">+</div>","null","","","memory","exp","13","","","","","","","","","","","",""
"html-keyboard-response","155","859794","0.0-5.0-5.0-2.13","6986cba3e8ebc723b0882887","not_provided","desktop","0","0","0","","","","","","working_memory","","null","<div class=""fixation"">+</div>","null","","","","","","","","","","","","","","","","",""
"html-keyboard-response","156","860556","0.0-5.0-5.0-3.13","6986cba3e8ebc723b0882887","not_provided","desktop","0","0","0","","","","","","working_memory","","762","<img class='b' src=images/squares/magenta.png><div class=""fixation"">+</div>","k","","","test_squares","exp","13","4","k","true","sk","d","","","","","","",""
"html-keyboard-response","157","861058","0.0-5.0-5.0-4.13","6986cba3e8ebc723b0882887","not_provided","desktop","0","0","0","","","","","","working_memory","","null","<div class=""fixation"">Correct</div>","null","","","","","","","","","","","","","","","","",""
"html-keyboard-response","158","862059","0.0-5.0-5.0-0.14","6986cba3e8ebc723b0882887","not_provided","desktop","0","0","0","","","","","","working_memory","","null","<div class=""fixation"">+</div>","null","","","","","","","","","","","","","","","","",""
"html-keyboard-response","159","862260","0.0-5.0-5.0-1.14","6986cba3e8ebc723b0882887","not_provided","desktop","0","0","0","","","","","","working_memory","","null","<img class='c' src=images/squares/black.png><img class='a' src=images/squares/brown.png><img class='d' src=images/squares/orange.png><img class='e' src=images/squares/blue.png><img class='h' src=images/squares/green.png><img class='g' src=images/squares/cyan.png><img class='j' src=images/squares/red.png><img class='l' src=images/squares/magenta.png><div class=""fixation"">+</div>","null","","","memory","exp","14","","","","","","","","","","","",""
"html-keyboard-response","160","863162","0.0-5.0-5.0-2.14","6986cba3e8ebc723b0882887","not_provided","desktop","0","0","0","","","","","","working_memory","","null","<div class=""fixation"">+</div>","null","","","","","","","","","","","","","","","","",""
"html-keyboard-response","161","863945","0.0-5.0-5.0-3.14","6986cba3e8ebc723b0882887","not_provided","desktop","0","0","0","","","","","","working_memory","","783","<img class='g' src=images/squares/yellow.png><div class=""fixation"">+</div>","k","","","test_squares","exp","14","8","k","true","sk","d","","","","","","",""
"html-keyboard-response","162","864446","0.0-5.0-5.0-4.14","6986cba3e8ebc723b0882887","not_provided","desktop","0","0","0","","","","","","working_memory","","null","<div class=""fixation"">Correct</div>","null","","","","","","","","","","","","","","","","",""
"html-keyboard-response","163","865448","0.0-5.0-5.0-0.15","6986cba3e8ebc723b0882887","not_provided","desktop","0","0","0","","","","","","working_memory","","null","<div class=""fixation"">+</div>","null","","","","","","","","","","","","","","","","",""
"html-keyboard-response","164","865649","0.0-5.0-5.0-1.15","6986cba3e8ebc723b0882887","not_provided","desktop","0","0","0","","","","","","working_memory","","null","<img class='a' src=images/squares/green.png><img class='f' src=images/squares/blue.png><img class='h' src=images/squares/black.png><img class='l' src=images/squares/yellow.png><div class=""fixation"">+</div>","null","","","memory","exp","15","","","","","","","","","","","",""
"html-keyboard-response","165","866551","0.0-5.0-5.0-2.15","6986cba3e8ebc723b0882887","not_provided","desktop","0","0","0","","","","","","working_memory","","null","<div class=""fixation"">+</div>","null","","","","","","","","","","","","","","","","",""
"html-keyboard-response","166","867338","0.0-5.0-5.0-3.15","6986cba3e8ebc723b0882887","not_provided","desktop","0","0","0","","","","","","working_memory","","787","<img class='a' src=images/squares/green.png><div class=""fixation"">+</div>","k","","","test_squares","exp","15","4","s","false","sk","s","","","","","","",""
"html-keyboard-response","167","867839","0.0-5.0-5.0-4.15","6986cba3e8ebc723b0882887","not_provided","desktop","0","0","0","","","","","","working_memory","","null","<div class=""fixation"">Incorrect</div>","null","","","","","","","","","","","","","","","","",""
"html-keyboard-response","168","868840","0.0-5.0-5.0-0.16","6986cba3e8ebc723b0882887","not_provided","desktop","0","0","0","","","","","","working_memory","","null","<div class=""fixation"">+</div>","null","","","","","","","","","","","","","","","","",""
"html-keyboard-response","169","869041","0.0-5.0-5.0-1.16","6986cba3e8ebc723b0882887","not_provided","desktop","0","0","0","","","","","","working_memory","","null","<img class='a' src=images/squares/green.png><img class='e' src=images/squares/black.png><img class='g' src=images/squares/brown.png><img class='k' src=images/squares/magenta.png><div class=""fixation"">+</div>","null","","","memory","exp","16","","","","","","","","","","","",""
"html-keyboard-response","170","869943","0.0-5.0-5.0-2.16","6986cba3e8ebc723b0882887","not_provided","desktop","0","0","0","","","","","","working_memory","","null","<div class=""fixation"">+</div>","null","","","","","","","","","","","","","","","","",""
"html-keyboard-response","171","870566","0.0-5.0-5.0-3.16","6986cba3e8ebc723b0882887","not_provided","desktop","0","0","0","","","","","","working_memory","","623","<img class='a' src=images/squares/green.png><div class=""fixation"">+</div>","s","","","test_squares","exp","16","4","s","true","sk","s","","","","","","",""
"html-keyboard-response","172","871067","0.0-5.0-5.0-4.16","6986cba3e8ebc723b0882887","not_provided","desktop","0","0","0","","","","","","working_memory","","null","<div class=""fixation"">Correct</div>","null","","","","","","","","","","","","","","","","",""
"html-keyboard-response","173","872068","0.0-5.0-5.0-0.17","6986cba3e8ebc723b0882887","not_provided","desktop","0","0","0","","","","","","working_memory","","null","<div class=""fixation"">+</div>","null","","","","","","","","","","","","","","","","",""
"html-keyboard-response","174","872270","0.0-5.0-5.0-1.17","6986cba3e8ebc723b0882887","not_provided","desktop","0","0","0","","","","","","working_memory","","null","<img class='b' src=images/squares/brown.png><img class='e' src=images/squares/orange.png><img class='g' src=images/squares/black.png><img class='l' src=images/squares/red.png><div class=""fixation"">+</div>","null","","","memory","exp","17","","","","","","","","","","","",""
"html-keyboard-response","175","873172","0.0-5.0-5.0-2.17","6986cba3e8ebc723b0882887","not_provided","desktop","0","0","0","","","","","","working_memory","","null","<div class=""fixation"">+</div>","null","","","","","","","","","","","","","","","","",""
"html-keyboard-response","176","873884","0.0-5.0-5.0-3.17","6986cba3e8ebc723b0882887","not_provided","desktop","0","0","0","","","","","","working_memory","","712","<img class='b' src=images/squares/blue.png><div class=""fixation"">+</div>","k","","","test_squares","exp","17","4","k","true","sk","d","","","","","","",""
"html-keyboard-response","177","874386","0.0-5.0-5.0-4.17","6986cba3e8ebc723b0882887","not_provided","desktop","0","0","0","","","","","","working_memory","","null","<div class=""fixation"">Correct</div>","null","","","","","","","","","","","","","","","","",""
"html-keyboard-response","178","875387","0.0-5.0-5.0-0.18","6986cba3e8ebc723b0882887","not_provided","desktop","0","0","0","","","","","","working_memory","","null","<div class=""fixation"">+</div>","null","","","","","","","","","","","","","","","","",""
"html-keyboard-response","179","875588","0.0-5.0-5.0-1.18","6986cba3e8ebc723b0882887","not_provided","desktop","0","0","0","","","","","","working_memory","","null","<img class='a' src=images/squares/blue.png><img class='b' src=images/squares/red.png><img class='f' src=images/squares/orange.png><img class='d' src=images/squares/green.png><img class='h' src=images/squares/magenta.png><img class='i' src=images/squares/cyan.png><img class='j' src=images/squares/yellow.png><img class='l' src=images/squares/black.png><div class=""fixation"">+</div>","null","","","memory","exp","18","","","","","","","","","","","",""
"html-keyboard-response","180","876489","0.0-5.0-5.0-2.18","6986cba3e8ebc723b0882887","not_provided","desktop","0","0","0","","","","","","working_memory","","null","<div class=""fixation"">+</div>","null","","","","","","","","","","","","","","","","",""
"html-keyboard-response","181","877305","0.0-5.0-5.0-3.18","6986cba3e8ebc723b0882887","not_provided","desktop","0","0","0","","","","","","working_memory","","816","<img class='j' src=images/squares/yellow.png><div class=""fixation"">+</div>","k","","","test_squares","exp","18","8","s","false","sk","s","","","","","","",""
"html-keyboard-response","182","877806","0.0-5.0-5.0-4.18","6986cba3e8ebc723b0882887","not_provided","desktop","0","0","0","","","","","","working_memory","","null","<div class=""fixation"">Incorrect</div>","null","","","","","","","","","","","","","","","","",""
"html-keyboard-response","183","878808","0.0-5.0-5.0-0.19","6986cba3e8ebc723b0882887","not_provided","desktop","0","0","0","","","","","","working_memory","","null","<div class=""fixation"">+</div>","null","","","","","","","","","","","","","","","","",""
"html-keyboard-response","184","879010","0.0-5.0-5.0-1.19","6986cba3e8ebc723b0882887","not_provided","desktop","0","0","0","","","","","","working_memory","","null","<img class='b' src=images/squares/yellow.png><img class='a' src=images/squares/black.png><img class='e' src=images/squares/blue.png><img class='f' src=images/squares/red.png><img class='i' src=images/squares/orange.png><img class='h' src=images/squares/green.png><img class='k' src=images/squares/cyan.png><img class='j' src=images/squares/magenta.png><div class=""fixation"">+</div>","null","","","memory","exp","19","","","","","","","","","","","",""
"html-keyboard-response","185","879911","0.0-5.0-5.0-2.19","6986cba3e8ebc723b0882887","not_provided","desktop","0","0","0","","","","","","working_memory","","null","<div class=""fixation"">+</div>","null","","","","","","","","","","","","","","","","",""
"html-keyboard-response","186","880672","0.0-5.0-5.0-3.19","6986cba3e8ebc723b0882887","not_provided","desktop","0","0","0","","","","","","working_memory","","761","<img class='k' src=images/squares/brown.png><div class=""fixation"">+</div>","k","","","test_squares","exp","19","8","k","true","sk","d","","","","","","",""
"html-keyboard-response","187","881173","0.0-5.0-5.0-4.19","6986cba3e8ebc723b0882887","not_provided","desktop","0","0","0","","","","","","working_memory","","null","<div class=""fixation"">Correct</div>","null","","","","","","","","","","","","","","","","",""
"html-keyboard-response","188","882174","0.0-5.0-5.0-0.20","6986cba3e8ebc723b0882887","not_provided","desktop","0","0","0","","","","","","working_memory","","null","<div class=""fixation"">+</div>","null","","","","","","","","","","","","","","","","",""
"html-keyboard-response","189","882377","0.0-5.0-5.0-1.20","6986cba3e8ebc723b0882887","not_provided","desktop","0","0","0","","","","","","working_memory","","null","<img class='c' src=images/squares/orange.png><img class='f' src=images/squares/brown.png><img class='g' src=images/squares/cyan.png><img class='k' src=images/squares/blue.png><div class=""fixation"">+</div>","null","","","memory","exp","20","","","","","","","","","","","",""
"html-keyboard-response","190","883278","0.0-5.0-5.0-2.20","6986cba3e8ebc723b0882887","not_provided","desktop","0","0","0","","","","","","working_memory","","null","<div class=""fixation"">+</div>","null","","","","","","","","","","","","","","","","",""
"html-keyboard-response","191","884352","0.0-5.0-5.0-3.20","6986cba3e8ebc723b0882887","not_provided","desktop","0","0","0","","","","","","working_memory","","1074","<img class='f' src=images/squares/yellow.png><div class=""fixation"">+</div>","k","","","test_squares","exp","20","4","k","true","sk","d","","","","","","",""
"html-keyboard-response","192","884853","0.0-5.0-5.0-4.20","6986cba3e8ebc723b0882887","not_provided","desktop","0","0","0","","","","","","working_memory","","null","<div class=""fixation"">Correct</div>","null","","","","","","","","","","","","","","","","",""
"html-keyboard-response","193","885854","0.0-5.0-5.0-0.21","6986cba3e8ebc723b0882887","not_provided","desktop","0","0","0","","","","","","working_memory","","null","<div class=""fixation"">+</div>","null","","","","","","","","","","","","","","","","",""
"html-keyboard-response","194","886056","0.0-5.0-5.0-1.21","6986cba3e8ebc723b0882887","not_provided","desktop","0","0","0","","","","","","working_memory","","null","<img class='b' src=images/squares/yellow.png><img class='a' src=images/squares/black.png><img class='e' src=images/squares/blue.png><img class='f' src=images/squares/brown.png><img class='h' src=images/squares/green.png><img class='i' src=images/squares/red.png><img class='j' src=images/squares/orange.png><img class='k' src=images/squares/magenta.png><div class=""fixation"">+</div>","null","","","memory","exp","21","","","","","","","","","","","",""
"html-keyboard-response","195","886957","0.0-5.0-5.0-2.21","6986cba3e8ebc723b0882887","not_provided","desktop","0","0","0","","","","","","working_memory","","null","<div class=""fixation"">+</div>","null","","","","","","","","","","","","","","","","",""
"html-keyboard-response","196","887942","0.0-5.0-5.0-3.21","6986cba3e8ebc723b0882887","not_provided","desktop","0","0","0","","","","","","working_memory","","984","<img class='e' src=images/squares/blue.png><div class=""fixation"">+</div>","s","","","test_squares","exp","21","8","s","true","sk","s","","","","","","",""
"html-keyboard-response","197","888443","0.0-5.0-5.0-4.21","6986cba3e8ebc723b0882887","not_provided","desktop","0","0","0","","","","","","working_memory","","null","<div class=""fixation"">Correct</div>","null","","","","","","","","","","","","","","","","",""
"html-keyboard-response","198","889445","0.0-5.0-5.0-0.22","6986cba3e8ebc723b0882887","not_provided","desktop","0","0","0","","","","","","working_memory","","null","<div class=""fixation"">+</div>","null","","","","","","","","","","","","","","","","",""
"html-keyboard-response","199","889647","0.0-5.0-5.0-1.22","6986cba3e8ebc723b0882887","not_provided","desktop","0","0","0","","","","","","working_memory","","null","<img class='b' src=images/squares/yellow.png><img class='c' src=images/squares/green.png><img class='f' src=images/squares/orange.png><img class='e' src=images/squares/blue.png><img class='h' src=images/squares/brown.png><img class='i' src=images/squares/magenta.png><img class='j' src=images/squares/cyan.png><img class='l' src=images/squares/red.png><div class=""fixation"">+</div>","null","","","memory","exp","22","","","","","","","","","","","",""
"html-keyboard-response","200","890547","0.0-5.0-5.0-2.22","6986cba3e8ebc723b0882887","not_provided","desktop","0","0","0","","","","","","working_memory","","null","<div class=""fixation"">+</div>","null","","","","","","","","","","","","","","","","",""
"html-keyboard-response","201","891563","0.0-5.0-5.0-3.22","6986cba3e8ebc723b0882887","not_provided","desktop","0","0","0","","","","","","working_memory","","1015","<img class='f' src=images/squares/black.png><div class=""fixation"">+</div>","k","","","test_squares","exp","22","8","k","true","sk","d","","","","","","",""
"html-keyboard-response","202","892064","0.0-5.0-5.0-4.22","6986cba3e8ebc723b0882887","not_provided","desktop","0","0","0","","","","","","working_memory","","null","<div class=""fixation"">Correct</div>","null","","","","","","","","","","","","","","","","",""
"html-keyboard-response","203","893067","0.0-5.0-5.0-0.23","6986cba3e8ebc723b0882887","not_provided","desktop","0","0","0","","","","","","working_memory","","null","<div class=""fixation"">+</div>","null","","","","","","","","","","","","","","","","",""
"html-keyboard-response","204","893268","0.0-5.0-5.0-1.23","6986cba3e8ebc723b0882887","not_provided","desktop","0","0","0","","","","","","working_memory","","null","<img class='c' src=images/squares/brown.png><img class='e' src=images/squares/black.png><img class='h' src=images/squares/cyan.png><img class='j' src=images/squares/blue.png><div class=""fixation"">+</div>","null","","","memory","exp","23","","","","","","","","","","","",""
"html-keyboard-response","205","894170","0.0-5.0-5.0-2.23","6986cba3e8ebc723b0882887","not_provided","desktop","0","0","0","","","","","","working_memory","","null","<div class=""fixation"">+</div>","null","","","","","","","","","","","","","","","","",""
"html-keyboard-response","206","895101","0.0-5.0-5.0-3.23","6986cba3e8ebc723b0882887","not_provided","desktop","0","0","0","","","","","","working_memory","","931","<img class='e' src=images/squares/orange.png><div class=""fixation"">+</div>","k","","","test_squares","exp","23","4","k","true","sk","d","","","","","","",""
"html-keyboard-response","207","895601","0.0-5.0-5.0-4.23","6986cba3e8ebc723b0882887","not_provided","desktop","0","0","0","","","","","","working_memory","","null","<div class=""fixation"">Correct</div>","null","","","","","","","","","","","","","","","","",""
"html-keyboard-response","208","896614","0.0-5.0-5.0-0.24","6986cba3e8ebc723b0882887","not_provided","desktop","0","0","0","","","","","","working_memory","","null","<div class=""fixation"">+</div>","null","","","","","","","","","","","","","","","","",""
"html-keyboard-response","209","896816","0.0-5.0-5.0-1.24","6986cba3e8ebc723b0882887","not_provided","desktop","0","0","0","","","","","","working_memory","","null","<img class='b' src=images/squares/green.png><img class='a' src=images/squares/brown.png><img class='e' src=images/squares/blue.png><img class='d' src=images/squares/red.png><img class='h' src=images/squares/orange.png><img class='g' src=images/squares/black.png><img class='j' src=images/squares/yellow.png><img class='k' src=images/squares/magenta.png><div class=""fixation"">+</div>","null","","","memory","exp","24","","","","","","","","","","","",""
"html-keyboard-response","210","897717","0.0-5.0-5.0-2.24","6986cba3e8ebc723b0882887","not_provided","desktop","0","0","0","","","","","","working_memory","","null","<div class=""fixation"">+</div>","null","","","","","","","","","","","","","","","","",""
"html-keyboard-response","211","898940","0.0-5.0-5.0-3.24","6986cba3e8ebc723b0882887","not_provided","desktop","0","0","0","","","","","","working_memory","","1222","<img class='b' src=images/squares/green.png><div class=""fixation"">+</div>","k","","","test_squares","exp","24","8","s","false","sk","s","","","","","","",""
"html-keyboard-response","212","899441","0.0-5.0-5.0-4.24","6986cba3e8ebc723b0882887","not_provided","desktop","0","0","0","","","","","","working_memory","","null","<div class=""fixation"">Incorrect</div>","null","","","","","","","","","","","","","","","","",""
"html-keyboard-response","213","900442","0.0-5.0-5.0-0.25","6986cba3e8ebc723b0882887","not_provided","desktop","0","0","0","","","","","","working_memory","","null","<div class=""fixation"">+</div>","null","","","","","","","","","","","","","","","","",""
"html-keyboard-response","214","900643","0.0-5.0-5.0-1.25","6986cba3e8ebc723b0882887","not_provided","desktop","0","0","0","","","","","","working_memory","","null","<img class='a' src=images/squares/brown.png><img class='c' src=images/squares/orange.png><img class='d' src=images/squares/black.png><img class='e' src=images/squares/magenta.png><img class='i' src=images/squares/yellow.png><img class='h' src=images/squares/cyan.png><img class='l' src=images/squares/red.png><img class='k' src=images/squares/green.png><div class=""fixation"">+</div>","null","","","memory","exp","25","","","","","","","","","","","",""
"html-keyboard-response","215","901544","0.0-5.0-5.0-2.25","6986cba3e8ebc723b0882887","not_provided","desktop","0","0","0","","","","","","working_memory","","null","<div class=""fixation"">+</div>","null","","","","","","","","","","","","","","","","",""
"html-keyboard-response","216","902493","0.0-5.0-5.0-3.25","6986cba3e8ebc723b0882887","not_provided","desktop","0","0","0","","","","","","working_memory","","948","<img class='k' src=images/squares/blue.png><div class=""fixation"">+</div>","k","","","test_squares","exp","25","8","k","true","sk","d","","","","","","",""
"html-keyboard-response","217","902994","0.0-5.0-5.0-4.25","6986cba3e8ebc723b0882887","not_provided","desktop","0","0","0","","","","","","working_memory","","null","<div class=""fixation"">Correct</div>","null","","","","","","","","","","","","","","","","",""
"html-keyboard-response","218","903995","0.0-5.0-5.0-0.26","6986cba3e8ebc723b0882887","not_provided","desktop","0","0","0","","","","","","working_memory","","null","<div class=""fixation"">+</div>","null","","","","","","","","","","","","","","","","",""
"html-keyboard-response","219","904196","0.0-5.0-5.0-1.26","6986cba3e8ebc723b0882887","not_provided","desktop","0","0","0","","","","","","working_memory","","null","<img class='a' src=images/squares/yellow.png><img class='c' src=images/squares/blue.png><img class='d' src=images/squares/green.png><img class='f' src=images/squares/brown.png><img class='g' src=images/squares/black.png><img class='h' src=images/squares/magenta.png><img class='l' src=images/squares/orange.png><img class='k' src=images/squares/red.png><div class=""fixation"">+</div>","null","","","memory","exp","26","","","","","","","","","","","",""
"html-keyboard-response","220","905097","0.0-5.0-5.0-2.26","6986cba3e8ebc723b0882887","not_provided","desktop","0","0","0","","","","","","working_memory","","null","<div class=""fixation"">+</div>","null","","","","","","","","","","","","","","","","",""
"html-keyboard-response","221","905957","0.0-5.0-5.0-3.26","6986cba3e8ebc723b0882887","not_provided","desktop","0","0","0","","","","","","working_memory","","860","<img class='f' src=images/squares/cyan.png><div class=""fixation"">+</div>","k","","","test_squares","exp","26","8","k","true","sk","d","","","","","","",""
"html-keyboard-response","222","906459","0.0-5.0-5.0-4.26","6986cba3e8ebc723b0882887","not_provided","desktop","0","0","0","","","","","","working_memory","","null","<div class=""fixation"">Correct</div>","null","","","","","","","","","","","","","","","","",""
"html-keyboard-response","223","907459","0.0-5.0-5.0-0.27","6986cba3e8ebc723b0882887","not_provided","desktop","0","0","0","","","","","","working_memory","","null","<div class=""fixation"">+</div>","null","","","","","","","","","","","","","","","","",""
"html-keyboard-response","224","907661","0.0-5.0-5.0-1.27","6986cba3e8ebc723b0882887","not_provided","desktop","0","0","0","","","","","","working_memory","","null","<img class='c' src=images/squares/magenta.png><img class='a' src=images/squares/cyan.png><img class='d' src=images/squares/brown.png><img class='f' src=images/squares/green.png><img class='i' src=images/squares/black.png><img class='h' src=images/squares/red.png><img class='l' src=images/squares/yellow.png><img class='j' src=images/squares/blue.png><div class=""fixation"">+</div>","null","","","memory","exp","27","","","","","","","","","","","",""
"html-keyboard-response","225","908562","0.0-5.0-5.0-2.27","6986cba3e8ebc723b0882887","not_provided","desktop","0","0","0","","","","","","working_memory","","null","<div class=""fixation"">+</div>","null","","","","","","","","","","","","","","","","",""
"html-keyboard-response","226","909665","0.0-5.0-5.0-3.27","6986cba3e8ebc723b0882887","not_provided","desktop","0","0","0","","","","","","working_memory","","1102","<img class='j' src=images/squares/blue.png><div class=""fixation"">+</div>","s","","","test_squares","exp","27","8","s","true","sk","s","","","","","","",""
"html-keyboard-response","227","910166","0.0-5.0-5.0-4.27","6986cba3e8ebc723b0882887","not_provided","desktop","0","0","0","","","","","","working_memory","","null","<div class=""fixation"">Correct</div>","null","","","","","","","","","","","","","","","","",""
"html-keyboard-response","228","911166","0.0-5.0-5.0-0.28","6986cba3e8ebc723b0882887","not_provided","desktop","0","0","0","","","","","","working_memory","","null","<div class=""fixation"">+</div>","null","","","","","","","","","","","","","","","","",""
"html-keyboard-response","229","911367","0.0-5.0-5.0-1.28","6986cba3e8ebc723b0882887","not_provided","desktop","0","0","0","","","","","","working_memory","","null","<img class='c' src=images/squares/magenta.png><img class='e' src=images/squares/cyan.png><img class='g' src=images/squares/black.png><img class='k' src=images/squares/green.png><div class=""fixation"">+</div>","null","","","memory","exp","28","","","","","","","","","","","",""
"html-keyboard-response","230","912269","0.0-5.0-5.0-2.28","6986cba3e8ebc723b0882887","not_provided","desktop","0","0","0","","","","","","working_memory","","null","<div class=""fixation"">+</div>","null","","","","","","","","","","","","","","","","",""
"html-keyboard-response","231","912984","0.0-5.0-5.0-3.28","6986cba3e8ebc723b0882887","not_provided","desktop","0","0","0","","","","","","working_memory","","715","<img class='e' src=images/squares/cyan.png><div class=""fixation"">+</div>","s","","","test_squares","exp","28","4","s","true","sk","s","","","","","","",""
"html-keyboard-response","232","913485","0.0-5.0-5.0-4.28","6986cba3e8ebc723b0882887","not_provided","desktop","0","0","0","","","","","","working_memory","","null","<div class=""fixation"">Correct</div>","null","","","","","","","","","","","","","","","","",""
"html-keyboard-response","233","914487","0.0-5.0-5.0-0.29","6986cba3e8ebc723b0882887","not_provided","desktop","0","0","0","","","","","","working_memory","","null","<div class=""fixation"">+</div>","null","","","","","","","","","","","","","","","","",""
"html-keyboard-response","234","914688","0.0-5.0-5.0-1.29","6986cba3e8ebc723b0882887","not_provided","desktop","0","0","0","","","","","","working_memory","","null","<img class='b' src=images/squares/magenta.png><img class='c' src=images/squares/green.png><img class='f' src=images/squares/blue.png><img class='d' src=images/squares/cyan.png><img class='g' src=images/squares/yellow.png><img class='i' src=images/squares/black.png><img class='k' src=images/squares/brown.png><img class='l' src=images/squares/orange.png><div class=""fixation"">+</div>","null","","","memory","exp","29","","","","","","","","","","","",""
"html-keyboard-response","235","915590","0.0-5.0-5.0-2.29","6986cba3e8ebc723b0882887","not_provided","desktop","0","0","0","","","","","","working_memory","","null","<div class=""fixation"">+</div>","null","","","","","","","","","","","","","","","","",""
"html-keyboard-response","236","916453","0.0-5.0-5.0-3.29","6986cba3e8ebc723b0882887","not_provided","desktop","0","0","0","","","","","","working_memory","","863","<img class='b' src=images/squares/magenta.png><div class=""fixation"">+</div>","k","","","test_squares","exp","29","8","s","false","sk","s","","","","","","",""
"html-keyboard-response","237","916954","0.0-5.0-5.0-4.29","6986cba3e8ebc723b0882887","not_provided","desktop","0","0","0","","","","","","working_memory","","null","<div class=""fixation"">Incorrect</div>","null","","","","","","","","","","","","","","","","",""
"html-keyboard-response","238","917955","0.0-5.0-5.0-0.30","6986cba3e8ebc723b0882887","not_provided","desktop","0","0","0","","","","","","working_memory","","null","<div class=""fixation"">+</div>","null","","","","","","","","","","","","","","","","",""
"html-keyboard-response","239","918156","0.0-5.0-5.0-1.30","6986cba3e8ebc723b0882887","not_provided","desktop","0","0","0","","","","","","working_memory","","null","<img class='a' src=images/squares/blue.png><img class='e' src=images/squares/green.png><img class='g' src=images/squares/orange.png><img class='k' src=images/squares/brown.png><div class=""fixation"">+</div>","null","","","memory","exp","30","","","","","","","","","","","",""
"html-keyboard-response","240","919057","0.0-5.0-5.0-2.30","6986cba3e8ebc723b0882887","not_provided","desktop","0","0","0","","","","","","working_memory","","null","<div class=""fixation"">+</div>","null","","","","","","","","","","","","","","","","",""
"html-keyboard-response","241","919715","0.0-5.0-5.0-3.30","6986cba3e8ebc723b0882887","not_provided","desktop","0","0","0","","","","","","working_memory","","657","<img class='k' src=images/squares/brown.png><div class=""fixation"">+</div>","s","","","test_squares","exp","30","4","s","true","sk","s","","","","","","",""
"html-keyboard-response","242","920219","0.0-5.0-5.0-4.30","6986cba3e8ebc723b0882887","not_provided","desktop","0","0","0","","","","","","working_memory","","null","<div class=""fixation"">Correct</div>","null","","","","","","","","","","","","","","","","",""
"html-keyboard-response","243","921220","0.0-5.0-5.0-0.31","6986cba3e8ebc723b0882887","not_provided","desktop","0","0","0","","","","","","working_memory","","null","<div class=""fixation"">+</div>","null","","","","","","","","","","","","","","","","",""
"html-keyboard-response","244","921421","0.0-5.0-5.0-1.31","6986cba3e8ebc723b0882887","not_provided","desktop","0","0","0","","","","","","working_memory","","null","<img class='a' src=images/squares/orange.png><img class='b' src=images/squares/red.png><img class='f' src=images/squares/brown.png><img class='e' src=images/squares/magenta.png><img class='h' src=images/squares/blue.png><img class='i' src=images/squares/cyan.png><img class='l' src=images/squares/black.png><img class='j' src=images/squares/yellow.png><div class=""fixation"">+</div>","null","","","memory","exp","31","","","","","","","","","","","",""
"html-keyboard-response","245","922322","0.0-5.0-5.0-2.31","6986cba3e8ebc723b0882887","not_provided","desktop","0","0","0","","","","","","working_memory","","null","<div class=""fixation"">+</div>","null","","","","","","","","","","","","","","","","",""
"html-keyboard-response","246","923411","0.0-5.0-5.0-3.31","6986cba3e8ebc723b0882887","not_provided","desktop","0","0","0","","","","","","working_memory","","1089","<img class='i' src=images/squares/green.png><div class=""fixation"">+</div>","k","","","test_squares","exp","31","8","k","true","sk","d","","","","","","",""
"html-keyboard-response","247","923913","0.0-5.0-5.0-4.31","6986cba3e8ebc723b0882887","not_provided","desktop","0","0","0","","","","","","working_memory","","null","<div class=""fixation"">Correct</div>","null","","","","","","","","","","","","","","","","",""
"html-keyboard-response","248","924914","0.0-5.0-5.0-0.32","6986cba3e8ebc723b0882887","not_provided","desktop","0","0","0","","","","","","working_memory","","null","<div class=""fixation"">+</div>","null","","","","","","","","","","","","","","","","",""
"html-keyboard-response","249","925125","0.0-5.0-5.0-1.32","6986cba3e8ebc723b0882887","not_provided","desktop","0","0","0","","","","","","working_memory","","null","<img class='b' src=images/squares/magenta.png><img class='f' src=images/squares/red.png><img class='h' src=images/squares/blue.png><img class='j' src=images/squares/orange.png><div class=""fixation"">+</div>","null","","","memory","exp","32","","","","","","","","","","","",""
"html-keyboard-response","250","926026","0.0-5.0-5.0-2.32","6986cba3e8ebc723b0882887","not_provided","desktop","0","0","0","","","","","","working_memory","","null","<div class=""fixation"">+</div>","null","","","","","","","","","","","","","","","","",""
"html-keyboard-response","251","927089","0.0-5.0-5.0-3.32","6986cba3e8ebc723b0882887","not_provided","desktop","0","0","0","","","","","","working_memory","","1063","<img class='j' src=images/squares/brown.png><div class=""fixation"">+</div>","s","","","test_squares","exp","32","4","k","false","sk","d","","","","","","",""
"html-keyboard-response","252","927591","0.0-5.0-5.0-4.32","6986cba3e8ebc723b0882887","not_provided","desktop","0","0","0","","","","","","working_memory","","null","<div class=""fixation"">Incorrect</div>","null","","","","","","","","","","","","","","","","",""
"html-keyboard-response","253","928604","0.0-5.0-5.0-0.33","6986cba3e8ebc723b0882887","not_provided","desktop","0","0","0","","","","","","working_memory","","null","<div class=""fixation"">+</div>","null","","","","","","","","","","","","","","","","",""
"html-keyboard-response","254","928806","0.0-5.0-5.0-1.33","6986cba3e8ebc723b0882887","not_provided","desktop","0","0","0","","","","","","working_memory","","null","<img class='b' src=images/squares/cyan.png><img class='e' src=images/squares/blue.png><img class='h' src=images/squares/red.png><img class='l' src=images/squares/green.png><div class=""fixation"">+</div>","null","","","memory","exp","33","","","","","","","","","","","",""
"html-keyboard-response","255","929707","0.0-5.0-5.0-2.33","6986cba3e8ebc723b0882887","not_provided","desktop","0","0","0","","","","","","working_memory","","null","<div class=""fixation"">+</div>","null","","","","","","","","","","","","","","","","",""
"html-keyboard-response","256","930556","0.0-5.0-5.0-3.33","6986cba3e8ebc723b0882887","not_provided","desktop","0","0","0","","","","","","working_memory","","848","<img class='b' src=images/squares/cyan.png><div class=""fixation"">+</div>","s","","","test_squares","exp","33","4","s","true","sk","s","","","","","","",""
"html-keyboard-response","257","931058","0.0-5.0-5.0-4.33","6986cba3e8ebc723b0882887","not_provided","desktop","0","0","0","","","","","","working_memory","","null","<div class=""fixation"">Correct</div>","null","","","","","","","","","","","","","","","","",""
"html-keyboard-response","258","932059","0.0-5.0-5.0-0.34","6986cba3e8ebc723b0882887","not_provided","desktop","0","0","0","","","","","","working_memory","","null","<div class=""fixation"">+</div>","null","","","","","","","","","","","","","","","","",""
"html-keyboard-response","259","932261","0.0-5.0-5.0-1.34","6986cba3e8ebc723b0882887","not_provided","desktop","0","0","0","","","","","","working_memory","","null","<img class='b' src=images/squares/blue.png><img class='c' src=images/squares/yellow.png><img class='f' src=images/squares/green.png><img class='e' src=images/squares/magenta.png><img class='g' src=images/squares/black.png><img class='h' src=images/squares/brown.png><img class='l' src=images/squares/red.png><img class='k' src=images/squares/orange.png><div class=""fixation"">+</div>","null","","","memory","exp","34","","","","","","","","","","","",""
"html-keyboard-response","260","933163","0.0-5.0-5.0-2.34","6986cba3e8ebc723b0882887","not_provided","desktop","0","0","0","","","","","","working_memory","","null","<div class=""fixation"">+</div>","null","","","","","","","","","","","","","","","","",""
"html-keyboard-response","261","934101","0.0-5.0-5.0-3.34","6986cba3e8ebc723b0882887","not_provided","desktop","0","0","0","","","","","","working_memory","","938","<img class='g' src=images/squares/black.png><div class=""fixation"">+</div>","k","","","test_squares","exp","34","8","s","false","sk","s","","","","","","",""
"html-keyboard-response","262","934602","0.0-5.0-5.0-4.34","6986cba3e8ebc723b0882887","not_provided","desktop","0","0","0","","","","","","working_memory","","null","<div class=""fixation"">Incorrect</div>","null","","","","","","","","","","","","","","","","",""
"html-keyboard-response","263","935612","0.0-5.0-5.0-0.35","6986cba3e8ebc723b0882887","not_provided","desktop","0","0","0","","","","","","working_memory","","null","<div class=""fixation"">+</div>","null","","","","","","","","","","","","","","","","",""
"html-keyboard-response","264","935815","0.0-5.0-5.0-1.35","6986cba3e8ebc723b0882887","not_provided","desktop","0","0","0","","","","","","working_memory","","null","<img class='c' src=images/squares/magenta.png><img class='a' src=images/squares/black.png><img class='d' src=images/squares/yellow.png><img class='f' src=images/squares/cyan.png><img class='h' src=images/squares/blue.png><img class='g' src=images/squares/red.png><img class='j' src=images/squares/orange.png><img class='l' src=images/squares/green.png><div class=""fixation"">+</div>","null","","","memory","exp","35","","","","","","","","","","","",""
"html-keyboard-response","265","936716","0.0-5.0-5.0-2.35","6986cba3e8ebc723b0882887","not_provided","desktop","0","0","0","","","","","","working_memory","","null","<div class=""fixation"">+</div>","null","","","","","","","","","","","","","","","","",""
"html-keyboard-response","266","937771","0.0-5.0-5.0-3.35","6986cba3e8ebc723b0882887","not_provided","desktop","0","0","0","","","","","","working_memory","","1055","<img class='a' src=images/squares/black.png><div class=""fixation"">+</div>","s","","","test_squares","exp","35","8","s","true","sk","s","","","","","","",""
"html-keyboard-response","267","938272","0.0-5.0-5.0-4.35","6986cba3e8ebc723b0882887","not_provided","desktop","0","0","0","","","","","","working_memory","","null","<div class=""fixation"">Correct</div>","null","","","","","","","","","","","","","","","","",""
"html-keyboard-response","268","939273","0.0-5.0-5.0-0.36","6986cba3e8ebc723b0882887","not_provided","desktop","0","0","0","","","","","","working_memory","","null","<div class=""fixation"">+</div>","null","","","","","","","","","","","","","","","","",""
"html-keyboard-response","269","939475","0.0-5.0-5.0-1.36","6986cba3e8ebc723b0882887","not_provided","desktop","0","0","0","","","","","","working_memory","","null","<img class='c' src=images/squares/yellow.png><img class='e' src=images/squares/blue.png><img class='g' src=images/squares/green.png><img class='k' src=images/squares/magenta.png><div class=""fixation"">+</div>","null","","","memory","exp","36","","","","","","","","","","","",""
"html-keyboard-response","270","940376","0.0-5.0-5.0-2.36","6986cba3e8ebc723b0882887","not_provided","desktop","0","0","0","","","","","","working_memory","","null","<div class=""fixation"">+</div>","null","","","","","","","","","","","","","","","","",""
"html-keyboard-response","271","941788","0.0-5.0-5.0-3.36","6986cba3e8ebc723b0882887","not_provided","desktop","0","0","0","","","","","","working_memory","","1411","<img class='c' src=images/squares/brown.png><div class=""fixation"">+</div>","k","","","test_squares","exp","36","4","k","true","sk","d","","","","","","",""
"html-keyboard-response","272","942289","0.0-5.0-5.0-4.36","6986cba3e8ebc723b0882887","not_provided","desktop","0","0","0","","","","","","working_memory","","null","<div class=""fixation"">Correct</div>","null","","","","","","","","","","","","","","","","",""
"html-keyboard-response","273","943290","0.0-5.0-5.0-0.37","6986cba3e8ebc723b0882887","not_provided","desktop","0","0","0","","","","","","working_memory","","null","<div class=""fixation"">+</div>","null","","","","","","","","","","","","","","","","",""
"html-keyboard-response","274","943492","0.0-5.0-5.0-1.37","6986cba3e8ebc723b0882887","not_provided","desktop","0","0","0","","","","","","working_memory","","null","<img class='b' src=images/squares/brown.png><img class='c' src=images/squares/green.png><img class='d' src=images/squares/magenta.png><img class='e' src=images/squares/yellow.png><img class='h' src=images/squares/black.png><img class='g' src=images/squares/orange.png><img class='j' src=images/squares/cyan.png><img class='k' src=images/squares/blue.png><div class=""fixation"">+</div>","null","","","memory","exp","37","","","","","","","","","","","",""
"html-keyboard-response","275","944393","0.0-5.0-5.0-2.37","6986cba3e8ebc723b0882887","not_provided","desktop","0","0","0","","","","","","working_memory","","null","<div class=""fixation"">+</div>","null","","","","","","","","","","","","","","","","",""
"html-keyboard-response","276","945359","0.0-5.0-5.0-3.37","6986cba3e8ebc723b0882887","not_provided","desktop","0","0","0","","","","","","working_memory","","965","<img class='g' src=images/squares/red.png><div class=""fixation"">+</div>","k","","","test_squares","exp","37","8","k","true","sk","d","","","","","","",""
"html-keyboard-response","277","945859","0.0-5.0-5.0-4.37","6986cba3e8ebc723b0882887","not_provided","desktop","0","0","0","","","","","","working_memory","","null","<div class=""fixation"">Correct</div>","null","","","","","","","","","","","","","","","","",""
"html-keyboard-response","278","946860","0.0-5.0-5.0-0.38","6986cba3e8ebc723b0882887","not_provided","desktop","0","0","0","","","","","","working_memory","","null","<div class=""fixation"">+</div>","null","","","","","","","","","","","","","","","","",""
"html-keyboard-response","279","947061","0.0-5.0-5.0-1.38","6986cba3e8ebc723b0882887","not_provided","desktop","0","0","0","","","","","","working_memory","","null","<img class='b' src=images/squares/green.png><img class='c' src=images/squares/blue.png><img class='f' src=images/squares/cyan.png><img class='d' src=images/squares/yellow.png><img class='i' src=images/squares/magenta.png><img class='h' src=images/squares/orange.png><img class='l' src=images/squares/black.png><img class='j' src=images/squares/brown.png><div class=""fixation"">+</div>","null","","","memory","exp","38","","","","","","","","","","","",""
"html-keyboard-response","280","947963","0.0-5.0-5.0-2.38","6986cba3e8ebc723b0882887","not_provided","desktop","0","0","0","","","","","","working_memory","","null","<div class=""fixation"">+</div>","null","","","","","","","","","","","","","","","","",""
"html-keyboard-response","281","949034","0.0-5.0-5.0-3.38","6986cba3e8ebc723b0882887","not_provided","desktop","0","0","0","","","","","","working_memory","","1070","<img class='h' src=images/squares/orange.png><div class=""fixation"">+</div>","k","","","test_squares","exp","38","8","s","false","sk","s","","","","","","",""
"html-keyboard-response","282","949536","0.0-5.0-5.0-4.38","6986cba3e8ebc723b0882887","not_provided","desktop","0","0","0","","","","","","working_memory","","null","<div class=""fixation"">Incorrect</div>","null","","","","","","","","","","","","","","","","",""
"html-keyboard-response","283","950537","0.0-5.0-5.0-0.39","6986cba3e8ebc723b0882887","not_provided","desktop","0","0","0","","","","","","working_memory","","null","<div class=""fixation"">+</div>","null","","","","","","","","","","","","","","","","",""
"html-keyboard-response","284","950739","0.0-5.0-5.0-1.39","6986cba3e8ebc723b0882887","not_provided","desktop","0","0","0","","","","","","working_memory","","null","<img class='c' src=images/squares/blue.png><img class='a' src=images/squares/green.png><img class='e' src=images/squares/yellow.png><img class='f' src=images/squares/red.png><img class='i' src=images/squares/black.png><img class='h' src=images/squares/orange.png><img class='j' src=images/squares/brown.png><img class='l' src=images/squares/magenta.png><div class=""fixation"">+</div>","null","","","memory","exp","39","","","","","","","","","","","",""
"html-keyboard-response","285","951640","0.0-5.0-5.0-2.39","6986cba3e8ebc723b0882887","not_provided","desktop","0","0","0","","","","","","working_memory","","null","<div class=""fixation"">+</div>","null","","","","","","","","","","","","","","","","",""
"html-keyboard-response","286","952780","0.0-5.0-5.0-3.39","6986cba3e8ebc723b0882887","not_provided","desktop","0","0","0","","","","","","working_memory","","1140","<img class='l' src=images/squares/magenta.png><div class=""fixation"">+</div>","k","","","test_squares","exp","39","8","s","false","sk","s","","","","","","",""
"html-keyboard-response","287","953281","0.0-5.0-5.0-4.39","6986cba3e8ebc723b0882887","not_provided","desktop","0","0","0","","","","","","working_memory","","null","<div class=""fixation"">Incorrect</div>","null","","","","","","","","","","","","","","","","",""
"html-keyboard-response","288","954282","0.0-5.0-5.0-0.40","6986cba3e8ebc723b0882887","not_provided","desktop","0","0","0","","","","","","working_memory","","null","<div class=""fixation"">+</div>","null","","","","","","","","","","","","","","","","",""
"html-keyboard-response","289","954483","0.0-5.0-5.0-1.40","6986cba3e8ebc723b0882887","not_provided","desktop","0","0","0","","","","","","working_memory","","null","<img class='a' src=images/squares/black.png><img class='d' src=images/squares/cyan.png><img class='i' src=images/squares/magenta.png><img class='l' src=images/squares/green.png><div class=""fixation"">+</div>","null","","","memory","exp","40","","","","","","","","","","","",""
"html-keyboard-response","290","955384","0.0-5.0-5.0-2.40","6986cba3e8ebc723b0882887","not_provided","desktop","0","0","0","","","","","","working_memory","","null","<div class=""fixation"">+</div>","null","","","","","","","","","","","","","","","","",""
"html-keyboard-response","291","956391","0.0-5.0-5.0-3.40","6986cba3e8ebc723b0882887","not_provided","desktop","0","0","0","","","","","","working_memory","","1007","<img class='a' src=images/squares/black.png><div class=""fixation"">+</div>","k","","","test_squares","exp","40","4","s","false","sk","s","","","","","","",""
"html-keyboard-response","292","956893","0.0-5.0-5.0-4.40","6986cba3e8ebc723b0882887","not_provided","desktop","0","0","0","","","","","","working_memory","","null","<div class=""fixation"">Incorrect</div>","null","","","","","","","","","","","","","","","","",""
"html-keyboard-response","293","957894","0.0-5.0-5.0-0.41","6986cba3e8ebc723b0882887","not_provided","desktop","0","0","0","","","","","","working_memory","","null","<div class=""fixation"">+</div>","null","","","","","","","","","","","","","","","","",""
"html-keyboard-response","294","958096","0.0-5.0-5.0-1.41","6986cba3e8ebc723b0882887","not_provided","desktop","0","0","0","","","","","","working_memory","","null","<img class='c' src=images/squares/black.png><img class='d' src=images/squares/cyan.png><img class='h' src=images/squares/red.png><img class='k' src=images/squares/orange.png><div class=""fixation"">+</div>","null","","","memory","exp","41","","","","","","","","","","","",""
"html-keyboard-response","295","958997","0.0-5.0-5.0-2.41","6986cba3e8ebc723b0882887","not_provided","desktop","0","0","0","","","","","","working_memory","","null","<div class=""fixation"">+</div>","null","","","","","","","","","","","","","","","","",""
"html-keyboard-response","296","959788","0.0-5.0-5.0-3.41","6986cba3e8ebc723b0882887","not_provided","desktop","0","0","0","","","","","","working_memory","","791","<img class='k' src=images/squares/orange.png><div class=""fixation"">+</div>","s","","","test_squares","exp","41","4","s","true","sk","s","","","","","","",""
"html-keyboard-response","297","960290","0.0-5.0-5.0-4.41","6986cba3e8ebc723b0882887","not_provided","desktop","0","0","0","","","","","","working_memory","","null","<div class=""fixation"">Correct</div>","null","","","","","","","","","","","","","","","","",""
"html-keyboard-response","298","961290","0.0-5.0-5.0-0.42","6986cba3e8ebc723b0882887","not_provided","desktop","0","0","0","","","","","","working_memory","","null","<div class=""fixation"">+</div>","null","","","","","","","","","","","","","","","","",""
"html-keyboard-response","299","961492","0.0-5.0-5.0-1.42","6986cba3e8ebc723b0882887","not_provided","desktop","0","0","0","","","","","","working_memory","","null","<img class='a' src=images/squares/black.png><img class='c' src=images/squares/red.png><img class='e' src=images/squares/cyan.png><img class='d' src=images/squares/brown.png><img class='g' src=images/squares/orange.png><img class='h' src=images/squares/magenta.png><img class='k' src=images/squares/green.png><img class='l' src=images/squares/blue.png><div class=""fixation"">+</div>","null","","","memory","exp","42","","","","","","","","","","","",""
"html-keyboard-response","300","962393","0.0-5.0-5.0-2.42","6986cba3e8ebc723b0882887","not_provided","desktop","0","0","0","","","","","","working_memory","","null","<div class=""fixation"">+</div>","null","","","","","","","","","","","","","","","","",""
