"trial_type","trial_index","time_elapsed","internal_node_id","subject_id","study_id","device_type","blur_count","fullscreen_exit_count","failed_attention_checks","success","timeout","failed_images","failed_audio","failed_video","phase","value","rt","stimulus","response","view_history","question_order","trial_name","block_type","trial_num","set_size","correct_response","accuracy","mapping","condition","prompt","flipped","attention","expected_answer","category","question_index","task"
"pavlovia","0","2183","0.0-0.0","69309f7da595fb656eebdeb1","not_provided","desktop","0","0","0","","","","","","","","","","","","","","","","","","","","","","","","","","",""
"preload","1","3628","0.0-2.0","69309f7da595fb656eebdeb1","not_provided","desktop","0","0","0","true","false","[]","[]","[]","","","","","","","","","","","","","","","","","","","","","",""
"html-keyboard-response","2","23367","0.0-3.0-0.0","69309f7da595fb656eebdeb1","not_provided","desktop","0","0","0","","","","","","captcha","","","","","","","","","","","","","","","","","","","","",""
"fullscreen","3","32643","0.0-4.0","69309f7da595fb656eebdeb1","not_provided","desktop","0","0","0","true","","","","","setup","","","","","","","","","","","","","","","","","","","","",""
"call-function","4","32646","0.0-5.0-0.0","69309f7da595fb656eebdeb1","not_provided","desktop","0","0","0","","","","","","working_memory","","","","","","","","","","","","","","","","","","","","",""
"html-keyboard-response","5","75616","0.0-5.0-1.0","69309f7da595fb656eebdeb1","not_provided","desktop","0","0","0","","","","","","working_memory","","42968","<div style=""text-align:center;font-family:sans-serif;""><p>Welcome to the luck game experiment!</p><p>This two-day experiment takes part in a study aimed at developing better clinical treatments.</p><p>We appreciate your participation and require your full concentration.</p><br><p>This is a two-day study. Payment (£6/hour) is only given upon completing both parts today and tomorrow.</p><p>You must finish the second part for compensation. After today, you'll receive an invitation for tomorrow's session.</p><p>Please ensure you can attend both sessions before proceeding. Otherwise, you may exit now.</p><p>If you have any questions, please contact us via prolific.</p><br><p>Please stay attentive and in fullscreen mode to ensure payment.</p><p>Thank you for participating!</p><br><p id=""continue-prompt"" style=""visibility:hidden;""><b>Press any key to continue.</b></p></div>"," ","","","","","","","","","","","","","","","","",""
"instructions","6","128672","0.0-5.0-2.0-0.0","69309f7da595fb656eebdeb1","not_provided","desktop","0","0","0","","","","","","working_memory","","53054","","","[{""page_index"":0,""viewing_time"":4303},{""page_index"":1,""viewing_time"":9672},{""page_index"":2,""viewing_time"":5007},{""page_index"":3,""viewing_time"":2422},{""page_index"":4,""viewing_time"":7651},{""page_index"":5,""viewing_time"":6363},{""page_index"":6,""viewing_time"":6813},{""page_index"":7,""viewing_time"":5162},{""page_index"":8,""viewing_time"":5660}]","","","","","","","","","","","","","","","",""
"survey-multi-choice","7","157650","0.0-5.0-2.0-1.0","69309f7da595fb656eebdeb1","not_provided","desktop","0","0","0","","","","","","working_memory","","28971","","{""set_size"":""4 or 6"",""steps"":""True"",""choose_square"":""Press the 'k' or 's' key."",""remember"":""The colors and locations of the 'memory' squares"",""task"":""To tell if the 'test' square is in the same color as the square previously appearing in this location""}","","[0,1,2,3,4]","test_squares_quiz","","","","","","","","","","","","","",""
"html-button-response","8","161892","0.0-5.0-2.0-2.0-0.0","69309f7da595fb656eebdeb1","not_provided","desktop","0","0","0","","","","","","working_memory","","4236","<p>Sorry, you made a mistake on the quiz.<br>Let's go back to the instructions &mdash; please read carefully before submitting again.<br>Thank you!</p>","0","","","","","","","","","","","","","","","","",""
"instructions","9","196819","0.0-5.0-2.1-0.1","69309f7da595fb656eebdeb1","not_provided","desktop","0","0","0","","","","","","working_memory","","34925","","","[{""page_index"":0,""viewing_time"":2191},{""page_index"":1,""viewing_time"":2109},{""page_index"":2,""viewing_time"":3904},{""page_index"":3,""viewing_time"":3452},{""page_index"":4,""viewing_time"":4509},{""page_index"":5,""viewing_time"":4811},{""page_index"":6,""viewing_time"":6784},{""page_index"":7,""viewing_time"":3046},{""page_index"":8,""viewing_time"":4117}]","","","","","","","","","","","","","","","",""
"survey-multi-choice","10","225122","0.0-5.0-2.1-1.1","69309f7da595fb656eebdeb1","not_provided","desktop","0","0","0","","","","","","working_memory","","28298","","{""set_size"":""4 or 8"",""steps"":""True"",""choose_square"":""Press the 'k' or 's' key."",""remember"":""The colors and locations of the 'memory' squares"",""task"":""To tell if the 'test' square is in the same color as the square previously appearing in this location""}","","[0,1,2,3,4]","test_squares_quiz","","","","","","","","","","","","","",""
"html-keyboard-response","11","229653","0.0-5.0-3.0-0.0","69309f7da595fb656eebdeb1","not_provided","desktop","0","0","0","","","","","","working_memory","","4528","<p>We will now start some practice trials.<br><b>The practice trials will also include some trials in which you will need to remember only one square to make sure you understood the instructions.</b><br>You may already want to be ready with your fingers on '<b>s</b>' and '<b>k</b>'.<br><img class=""wm-example-img"" src=""images/examples/keyboard.png""><br><b style=""font-size:1.2em;"">&lsquo;K&rsquo; = SAME &nbsp;&nbsp;&nbsp; &lsquo;S&rsquo; = DIFFERENT</b><br><br><u>Please try to be as accurate as possible.</u><br><br><b>Press any key to begin</b></p>"," ","","","","","","","","","","","","","","","","",""
"html-keyboard-response","12","231656","0.0-5.0-3.0-1.0-0.0","69309f7da595fb656eebdeb1","not_provided","desktop","0","0","0","","","","","","working_memory","","null","<div class=""fixation"">+</div>","null","","","","","","","","","","","","","","","","",""
"html-keyboard-response","13","231858","0.0-5.0-3.0-1.0-1.0","69309f7da595fb656eebdeb1","not_provided","desktop","0","0","0","","","","","","working_memory","","null","<img class='lower3' src=images/squares/cyan.png><div class=""fixation"">+</div>","null","","","memory","practice","0","1","","","","","","","","","","",""
"html-keyboard-response","14","232760","0.0-5.0-3.0-1.0-2.0","69309f7da595fb656eebdeb1","not_provided","desktop","0","0","0","","","","","","working_memory","","null","<div class=""fixation"">+</div>","null","","","","","","","","","","","","","","","","",""
"html-keyboard-response","15","235855","0.0-5.0-3.0-1.0-3.0","69309f7da595fb656eebdeb1","not_provided","desktop","0","0","0","","","","","","working_memory","","3092","<img class='lower3' src=images/squares/brown.png><div class=""fixation"">+</div>","s","","","test","practice","0","1","s","true","","","","","","","","",""
"html-keyboard-response","16","236357","0.0-5.0-3.0-1.0-4.0","69309f7da595fb656eebdeb1","not_provided","desktop","0","0","0","","","","","","working_memory","","null","<div class=""fixation"">Correct</div>","null","","","","","","","","","","","","","","","","",""
"html-keyboard-response","17","237359","0.0-5.0-3.0-1.0-0.1","69309f7da595fb656eebdeb1","not_provided","desktop","0","0","0","","","","","","working_memory","","null","<div class=""fixation"">+</div>","null","","","","","","","","","","","","","","","","",""
"html-keyboard-response","18","237562","0.0-5.0-3.0-1.0-1.1","69309f7da595fb656eebdeb1","not_provided","desktop","0","0","0","","","","","","working_memory","","null","<img class='b' src=images/squares/yellow.png><img class='f' src=images/squares/green.png><img class='g' src=images/squares/brown.png><img class='l' src=images/squares/blue.png><div class=""fixation"">+</div>","null","","","memory","practice","1","4","","","","","","","","","","",""
"html-keyboard-response","19","238464","0.0-5.0-3.0-1.0-2.1","69309f7da595fb656eebdeb1","not_provided","desktop","0","0","0","","","","","","working_memory","","null","<div class=""fixation"">+</div>","null","","","","","","","","","","","","","","","","",""
"html-keyboard-response","20","240363","0.0-5.0-3.0-1.0-3.1","69309f7da595fb656eebdeb1","not_provided","desktop","0","0","0","","","","","","working_memory","","1897","<img class='g' src=images/squares/brown.png><div class=""fixation"">+</div>","k","","","test","practice","1","4","k","true","","","","","","","","",""
"html-keyboard-response","21","240864","0.0-5.0-3.0-1.0-4.1","69309f7da595fb656eebdeb1","not_provided","desktop","0","0","0","","","","","","working_memory","","null","<div class=""fixation"">Correct</div>","null","","","","","","","","","","","","","","","","",""
"html-keyboard-response","22","241866","0.0-5.0-3.0-1.0-0.2","69309f7da595fb656eebdeb1","not_provided","desktop","0","0","0","","","","","","working_memory","","null","<div class=""fixation"">+</div>","null","","","","","","","","","","","","","","","","",""
"html-keyboard-response","23","242068","0.0-5.0-3.0-1.0-1.2","69309f7da595fb656eebdeb1","not_provided","desktop","0","0","0","","","","","","working_memory","","null","<img class='a' src=images/squares/blue.png><img class='f' src=images/squares/green.png><img class='g' src=images/squares/orange.png><img class='j' src=images/squares/cyan.png><div class=""fixation"">+</div>","null","","","memory","practice","2","4","","","","","","","","","","",""
"html-keyboard-response","24","242970","0.0-5.0-3.0-1.0-2.2","69309f7da595fb656eebdeb1","not_provided","desktop","0","0","0","","","","","","working_memory","","null","<div class=""fixation"">+</div>","null","","","","","","","","","","","","","","","","",""
"html-keyboard-response","25","244589","0.0-5.0-3.0-1.0-3.2","69309f7da595fb656eebdeb1","not_provided","desktop","0","0","0","","","","","","working_memory","","1617","<img class='j' src=images/squares/magenta.png><div class=""fixation"">+</div>","s","","","test","practice","2","4","s","true","","","","","","","","",""
"html-keyboard-response","26","245091","0.0-5.0-3.0-1.0-4.2","69309f7da595fb656eebdeb1","not_provided","desktop","0","0","0","","","","","","working_memory","","null","<div class=""fixation"">Correct</div>","null","","","","","","","","","","","","","","","","",""
"html-keyboard-response","27","246093","0.0-5.0-3.0-1.0-0.3","69309f7da595fb656eebdeb1","not_provided","desktop","0","0","0","","","","","","working_memory","","null","<div class=""fixation"">+</div>","null","","","","","","","","","","","","","","","","",""
"html-keyboard-response","28","246296","0.0-5.0-3.0-1.0-1.3","69309f7da595fb656eebdeb1","not_provided","desktop","0","0","0","","","","","","working_memory","","null","<img class='c' src=images/squares/red.png><img class='f' src=images/squares/brown.png><img class='h' src=images/squares/cyan.png><img class='l' src=images/squares/orange.png><div class=""fixation"">+</div>","null","","","memory","practice","3","4","","","","","","","","","","",""
"html-keyboard-response","29","247199","0.0-5.0-3.0-1.0-2.3","69309f7da595fb656eebdeb1","not_provided","desktop","0","0","0","","","","","","working_memory","","null","<div class=""fixation"">+</div>","null","","","","","","","","","","","","","","","","",""
"html-keyboard-response","30","249774","0.0-5.0-3.0-1.0-3.3","69309f7da595fb656eebdeb1","not_provided","desktop","0","0","0","","","","","","working_memory","","2573","<img class='h' src=images/squares/cyan.png><div class=""fixation"">+</div>","k","","","test","practice","3","4","k","true","","","","","","","","",""
"html-keyboard-response","31","250276","0.0-5.0-3.0-1.0-4.3","69309f7da595fb656eebdeb1","not_provided","desktop","0","0","0","","","","","","working_memory","","null","<div class=""fixation"">Correct</div>","null","","","","","","","","","","","","","","","","",""
"html-keyboard-response","32","251280","0.0-5.0-3.0-1.0-0.4","69309f7da595fb656eebdeb1","not_provided","desktop","0","0","0","","","","","","working_memory","","null","<div class=""fixation"">+</div>","null","","","","","","","","","","","","","","","","",""
"html-keyboard-response","33","251483","0.0-5.0-3.0-1.0-1.4","69309f7da595fb656eebdeb1","not_provided","desktop","0","0","0","","","","","","working_memory","","null","<img class='a' src=images/squares/black.png><img class='c' src=images/squares/brown.png><img class='e' src=images/squares/cyan.png><img class='f' src=images/squares/magenta.png><img class='h' src=images/squares/orange.png><img class='i' src=images/squares/yellow.png><img class='k' src=images/squares/red.png><img class='l' src=images/squares/blue.png><div class=""fixation"">+</div>","null","","","memory","practice","4","8","","","","","","","","","","",""
"html-keyboard-response","34","252386","0.0-5.0-3.0-1.0-2.4","69309f7da595fb656eebdeb1","not_provided","desktop","0","0","0","","","","","","working_memory","","null","<div class=""fixation"">+</div>","null","","","","","","","","","","","","","","","","",""
"html-keyboard-response","35","255477","0.0-5.0-3.0-1.0-3.4","69309f7da595fb656eebdeb1","not_provided","desktop","0","0","0","","","","","","working_memory","","3089","<img class='k' src=images/squares/green.png><div class=""fixation"">+</div>","s","","","test","practice","4","8","s","true","","","","","","","","",""
"html-keyboard-response","36","255979","0.0-5.0-3.0-1.0-4.4","69309f7da595fb656eebdeb1","not_provided","desktop","0","0","0","","","","","","working_memory","","null","<div class=""fixation"">Correct</div>","null","","","","","","","","","","","","","","","","",""
"html-keyboard-response","37","256981","0.0-5.0-3.0-1.0-0.5","69309f7da595fb656eebdeb1","not_provided","desktop","0","0","0","","","","","","working_memory","","null","<div class=""fixation"">+</div>","null","","","","","","","","","","","","","","","","",""
"html-keyboard-response","38","257184","0.0-5.0-3.0-1.0-1.5","69309f7da595fb656eebdeb1","not_provided","desktop","0","0","0","","","","","","working_memory","","null","<img class='c' src=images/squares/black.png><img class='e' src=images/squares/cyan.png><img class='i' src=images/squares/green.png><img class='k' src=images/squares/yellow.png><div class=""fixation"">+</div>","null","","","memory","practice","5","4","","","","","","","","","","",""
"html-keyboard-response","39","258086","0.0-5.0-3.0-1.0-2.5","69309f7da595fb656eebdeb1","not_provided","desktop","0","0","0","","","","","","working_memory","","null","<div class=""fixation"">+</div>","null","","","","","","","","","","","","","","","","",""
"html-keyboard-response","40","260437","0.0-5.0-3.0-1.0-3.5","69309f7da595fb656eebdeb1","not_provided","desktop","0","0","0","","","","","","working_memory","","2349","<img class='i' src=images/squares/green.png><div class=""fixation"">+</div>","k","","","test","practice","5","4","k","true","","","","","","","","",""
"html-keyboard-response","41","260940","0.0-5.0-3.0-1.0-4.5","69309f7da595fb656eebdeb1","not_provided","desktop","0","0","0","","","","","","working_memory","","null","<div class=""fixation"">Correct</div>","null","","","","","","","","","","","","","","","","",""
"html-keyboard-response","42","261941","0.0-5.0-3.0-1.0-0.6","69309f7da595fb656eebdeb1","not_provided","desktop","0","0","0","","","","","","working_memory","","null","<div class=""fixation"">+</div>","null","","","","","","","","","","","","","","","","",""
"html-keyboard-response","43","262145","0.0-5.0-3.0-1.0-1.6","69309f7da595fb656eebdeb1","not_provided","desktop","0","0","0","","","","","","working_memory","","null","<img class='c' src=images/squares/green.png><img class='a' src=images/squares/orange.png><img class='f' src=images/squares/black.png><img class='e' src=images/squares/magenta.png><img class='h' src=images/squares/blue.png><img class='g' src=images/squares/cyan.png><img class='l' src=images/squares/yellow.png><img class='k' src=images/squares/brown.png><div class=""fixation"">+</div>","null","","","memory","practice","6","8","","","","","","","","","","",""
"html-keyboard-response","44","263047","0.0-5.0-3.0-1.0-2.6","69309f7da595fb656eebdeb1","not_provided","desktop","0","0","0","","","","","","working_memory","","null","<div class=""fixation"">+</div>","null","","","","","","","","","","","","","","","","",""
"html-keyboard-response","45","264537","0.0-5.0-3.0-1.0-3.6","69309f7da595fb656eebdeb1","not_provided","desktop","0","0","0","","","","","","working_memory","","1488","<img class='c' src=images/squares/green.png><div class=""fixation"">+</div>","k","","","test","practice","6","8","k","true","","","","","","","","",""
"html-keyboard-response","46","265038","0.0-5.0-3.0-1.0-4.6","69309f7da595fb656eebdeb1","not_provided","desktop","0","0","0","","","","","","working_memory","","null","<div class=""fixation"">Correct</div>","null","","","","","","","","","","","","","","","","",""
"html-keyboard-response","47","266040","0.0-5.0-3.0-1.0-0.7","69309f7da595fb656eebdeb1","not_provided","desktop","0","0","0","","","","","","working_memory","","null","<div class=""fixation"">+</div>","null","","","","","","","","","","","","","","","","",""
"html-keyboard-response","48","266242","0.0-5.0-3.0-1.0-1.7","69309f7da595fb656eebdeb1","not_provided","desktop","0","0","0","","","","","","working_memory","","null","<img class='b' src=images/squares/orange.png><img class='f' src=images/squares/green.png><img class='i' src=images/squares/cyan.png><img class='l' src=images/squares/blue.png><div class=""fixation"">+</div>","null","","","memory","practice","7","4","","","","","","","","","","",""
"html-keyboard-response","49","267144","0.0-5.0-3.0-1.0-2.7","69309f7da595fb656eebdeb1","not_provided","desktop","0","0","0","","","","","","working_memory","","null","<div class=""fixation"">+</div>","null","","","","","","","","","","","","","","","","",""
"html-keyboard-response","50","269222","0.0-5.0-3.0-1.0-3.7","69309f7da595fb656eebdeb1","not_provided","desktop","0","0","0","","","","","","working_memory","","2076","<img class='i' src=images/squares/red.png><div class=""fixation"">+</div>","s","","","test","practice","7","4","s","true","","","","","","","","",""
"html-keyboard-response","51","269723","0.0-5.0-3.0-1.0-4.7","69309f7da595fb656eebdeb1","not_provided","desktop","0","0","0","","","","","","working_memory","","null","<div class=""fixation"">Correct</div>","null","","","","","","","","","","","","","","","","",""
"html-keyboard-response","52","270725","0.0-5.0-3.0-1.0-0.8","69309f7da595fb656eebdeb1","not_provided","desktop","0","0","0","","","","","","working_memory","","null","<div class=""fixation"">+</div>","null","","","","","","","","","","","","","","","","",""
"html-keyboard-response","53","270928","0.0-5.0-3.0-1.0-1.8","69309f7da595fb656eebdeb1","not_provided","desktop","0","0","0","","","","","","working_memory","","null","<img class='b' src=images/squares/green.png><img class='e' src=images/squares/yellow.png><img class='h' src=images/squares/red.png><img class='j' src=images/squares/brown.png><div class=""fixation"">+</div>","null","","","memory","practice","8","4","","","","","","","","","","",""
"html-keyboard-response","54","271830","0.0-5.0-3.0-1.0-2.8","69309f7da595fb656eebdeb1","not_provided","desktop","0","0","0","","","","","","working_memory","","null","<div class=""fixation"">+</div>","null","","","","","","","","","","","","","","","","",""
"html-keyboard-response","55","273588","0.0-5.0-3.0-1.0-3.8","69309f7da595fb656eebdeb1","not_provided","desktop","0","0","0","","","","","","working_memory","","1756","<img class='e' src=images/squares/yellow.png><div class=""fixation"">+</div>","s","","","test","practice","8","4","k","false","","","","","","","","",""
"html-keyboard-response","56","274090","0.0-5.0-3.0-1.0-4.8","69309f7da595fb656eebdeb1","not_provided","desktop","0","0","0","","","","","","working_memory","","null","<div class=""fixation"">Incorrect</div>","null","","","","","","","","","","","","","","","","",""
"html-keyboard-response","57","275092","0.0-5.0-3.0-1.0-0.9","69309f7da595fb656eebdeb1","not_provided","desktop","0","0","0","","","","","","working_memory","","null","<div class=""fixation"">+</div>","null","","","","","","","","","","","","","","","","",""
"html-keyboard-response","58","275295","0.0-5.0-3.0-1.0-1.9","69309f7da595fb656eebdeb1","not_provided","desktop","0","0","0","","","","","","working_memory","","null","<img class='a' src=images/squares/brown.png><img class='b' src=images/squares/orange.png><img class='d' src=images/squares/magenta.png><img class='f' src=images/squares/red.png><img class='h' src=images/squares/yellow.png><img class='i' src=images/squares/black.png><img class='l' src=images/squares/green.png><img class='k' src=images/squares/cyan.png><div class=""fixation"">+</div>","null","","","memory","practice","9","8","","","","","","","","","","",""
"html-keyboard-response","59","276197","0.0-5.0-3.0-1.0-2.9","69309f7da595fb656eebdeb1","not_provided","desktop","0","0","0","","","","","","working_memory","","null","<div class=""fixation"">+</div>","null","","","","","","","","","","","","","","","","",""
"html-keyboard-response","60","279840","0.0-5.0-3.0-1.0-3.9","69309f7da595fb656eebdeb1","not_provided","desktop","0","0","0","","","","","","working_memory","","3640","<img class='k' src=images/squares/cyan.png><div class=""fixation"">+</div>","s","","","test","practice","9","8","k","false","","","","","","","","",""
"html-keyboard-response","61","280341","0.0-5.0-3.0-1.0-4.9","69309f7da595fb656eebdeb1","not_provided","desktop","0","0","0","","","","","","working_memory","","null","<div class=""fixation"">Incorrect</div>","null","","","","","","","","","","","","","","","","",""
"html-keyboard-response","62","281343","0.0-5.0-3.0-1.0-0.10","69309f7da595fb656eebdeb1","not_provided","desktop","0","0","0","","","","","","working_memory","","null","<div class=""fixation"">+</div>","null","","","","","","","","","","","","","","","","",""
"html-keyboard-response","63","281548","0.0-5.0-3.0-1.0-1.10","69309f7da595fb656eebdeb1","not_provided","desktop","0","0","0","","","","","","working_memory","","null","<img class='lower1' src=images/squares/red.png><div class=""fixation"">+</div>","null","","","memory","practice","10","1","","","","","","","","","","",""
"html-keyboard-response","64","282450","0.0-5.0-3.0-1.0-2.10","69309f7da595fb656eebdeb1","not_provided","desktop","0","0","0","","","","","","working_memory","","null","<div class=""fixation"">+</div>","null","","","","","","","","","","","","","","","","",""
"html-keyboard-response","65","283913","0.0-5.0-3.0-1.0-3.10","69309f7da595fb656eebdeb1","not_provided","desktop","0","0","0","","","","","","working_memory","","1461","<img class='lower1' src=images/squares/red.png><div class=""fixation"">+</div>","k","","","test","practice","10","1","k","true","","","","","","","","",""
"html-keyboard-response","66","284414","0.0-5.0-3.0-1.0-4.10","69309f7da595fb656eebdeb1","not_provided","desktop","0","0","0","","","","","","working_memory","","null","<div class=""fixation"">Correct</div>","null","","","","","","","","","","","","","","","","",""
"html-keyboard-response","67","285417","0.0-5.0-3.0-1.0-0.11","69309f7da595fb656eebdeb1","not_provided","desktop","0","0","0","","","","","","working_memory","","null","<div class=""fixation"">+</div>","null","","","","","","","","","","","","","","","","",""
"html-keyboard-response","68","285621","0.0-5.0-3.0-1.0-1.11","69309f7da595fb656eebdeb1","not_provided","desktop","0","0","0","","","","","","working_memory","","null","<img class='a' src=images/squares/magenta.png><img class='b' src=images/squares/blue.png><img class='d' src=images/squares/red.png><img class='e' src=images/squares/green.png><img class='g' src=images/squares/yellow.png><img class='i' src=images/squares/brown.png><img class='k' src=images/squares/cyan.png><img class='j' src=images/squares/orange.png><div class=""fixation"">+</div>","null","","","memory","practice","11","8","","","","","","","","","","",""
"html-keyboard-response","69","286523","0.0-5.0-3.0-1.0-2.11","69309f7da595fb656eebdeb1","not_provided","desktop","0","0","0","","","","","","working_memory","","null","<div class=""fixation"">+</div>","null","","","","","","","","","","","","","","","","",""
"html-keyboard-response","70","288203","0.0-5.0-3.0-1.0-3.11","69309f7da595fb656eebdeb1","not_provided","desktop","0","0","0","","","","","","working_memory","","1678","<img class='d' src=images/squares/red.png><div class=""fixation"">+</div>","k","","","test","practice","11","8","k","true","","","","","","","","",""
"html-keyboard-response","71","288705","0.0-5.0-3.0-1.0-4.11","69309f7da595fb656eebdeb1","not_provided","desktop","0","0","0","","","","","","working_memory","","null","<div class=""fixation"">Correct</div>","null","","","","","","","","","","","","","","","","",""
"html-keyboard-response","72","289707","0.0-5.0-3.0-1.0-0.12","69309f7da595fb656eebdeb1","not_provided","desktop","0","0","0","","","","","","working_memory","","null","<div class=""fixation"">+</div>","null","","","","","","","","","","","","","","","","",""
"html-keyboard-response","73","289910","0.0-5.0-3.0-1.0-1.12","69309f7da595fb656eebdeb1","not_provided","desktop","0","0","0","","","","","","working_memory","","null","<img class='b' src=images/squares/cyan.png><img class='e' src=images/squares/green.png><img class='h' src=images/squares/blue.png><img class='l' src=images/squares/black.png><div class=""fixation"">+</div>","null","","","memory","practice","12","4","","","","","","","","","","",""
"html-keyboard-response","74","290812","0.0-5.0-3.0-1.0-2.12","69309f7da595fb656eebdeb1","not_provided","desktop","0","0","0","","","","","","working_memory","","null","<div class=""fixation"">+</div>","null","","","","","","","","","","","","","","","","",""
"html-keyboard-response","75","292276","0.0-5.0-3.0-1.0-3.12","69309f7da595fb656eebdeb1","not_provided","desktop","0","0","0","","","","","","working_memory","","1461","<img class='h' src=images/squares/blue.png><div class=""fixation"">+</div>","s","","","test","practice","12","4","k","false","","","","","","","","",""
"html-keyboard-response","76","292777","0.0-5.0-3.0-1.0-4.12","69309f7da595fb656eebdeb1","not_provided","desktop","0","0","0","","","","","","working_memory","","null","<div class=""fixation"">Incorrect</div>","null","","","","","","","","","","","","","","","","",""
"html-keyboard-response","77","293779","0.0-5.0-3.0-1.0-0.13","69309f7da595fb656eebdeb1","not_provided","desktop","0","0","0","","","","","","working_memory","","null","<div class=""fixation"">+</div>","null","","","","","","","","","","","","","","","","",""
"html-keyboard-response","78","293982","0.0-5.0-3.0-1.0-1.13","69309f7da595fb656eebdeb1","not_provided","desktop","0","0","0","","","","","","working_memory","","null","<img class='upper2' src=images/squares/green.png><div class=""fixation"">+</div>","null","","","memory","practice","13","1","","","","","","","","","","",""
"html-keyboard-response","79","294884","0.0-5.0-3.0-1.0-2.13","69309f7da595fb656eebdeb1","not_provided","desktop","0","0","0","","","","","","working_memory","","null","<div class=""fixation"">+</div>","null","","","","","","","","","","","","","","","","",""
"html-keyboard-response","80","296400","0.0-5.0-3.0-1.0-3.13","69309f7da595fb656eebdeb1","not_provided","desktop","0","0","0","","","","","","working_memory","","1514","<img class='upper2' src=images/squares/brown.png><div class=""fixation"">+</div>","s","","","test","practice","13","1","s","true","","","","","","","","",""
"html-keyboard-response","81","296902","0.0-5.0-3.0-1.0-4.13","69309f7da595fb656eebdeb1","not_provided","desktop","0","0","0","","","","","","working_memory","","null","<div class=""fixation"">Correct</div>","null","","","","","","","","","","","","","","","","",""
"html-keyboard-response","82","297904","0.0-5.0-3.0-1.0-0.14","69309f7da595fb656eebdeb1","not_provided","desktop","0","0","0","","","","","","working_memory","","null","<div class=""fixation"">+</div>","null","","","","","","","","","","","","","","","","",""
"html-keyboard-response","83","298106","0.0-5.0-3.0-1.0-1.14","69309f7da595fb656eebdeb1","not_provided","desktop","0","0","0","","","","","","working_memory","","null","<img class='upper3' src=images/squares/magenta.png><div class=""fixation"">+</div>","null","","","memory","practice","14","1","","","","","","","","","","",""
"html-keyboard-response","84","299008","0.0-5.0-3.0-1.0-2.14","69309f7da595fb656eebdeb1","not_provided","desktop","0","0","0","","","","","","working_memory","","null","<div class=""fixation"">+</div>","null","","","","","","","","","","","","","","","","",""
"html-keyboard-response","85","300260","0.0-5.0-3.0-1.0-3.14","69309f7da595fb656eebdeb1","not_provided","desktop","0","0","0","","","","","","working_memory","","1249","<img class='upper3' src=images/squares/red.png><div class=""fixation"">+</div>","s","","","test","practice","14","1","s","true","","","","","","","","",""
"html-keyboard-response","86","300765","0.0-5.0-3.0-1.0-4.14","69309f7da595fb656eebdeb1","not_provided","desktop","0","0","0","","","","","","working_memory","","null","<div class=""fixation"">Correct</div>","null","","","","","","","","","","","","","","","","",""
"html-keyboard-response","87","310105","0.0-5.0-4.0","69309f7da595fb656eebdeb1","not_provided","desktop","0","0","0","","","","","","working_memory","","9337","<div style=""text-align:center;font-family:sans-serif;""><p>Good job! You have finished the practice.</p><p>We will now start the real experiment.</p><p>Please try to be as accurate as possible.</p><p><b><u>Note: random guessing may risk your payment.</u></b></p><br><p><b>Press any key to begin.</b></p></div>"," ","","","","","","","","","","","","","","","","",""
"html-keyboard-response","88","311107","0.0-5.0-5.0-0.0","69309f7da595fb656eebdeb1","not_provided","desktop","0","0","0","","","","","","working_memory","","null","<div class=""fixation"">+</div>","null","","","","","","","","","","","","","","","","",""
"html-keyboard-response","89","311310","0.0-5.0-5.0-1.0","69309f7da595fb656eebdeb1","not_provided","desktop","0","0","0","","","","","","working_memory","","null","<img class='b' src=images/squares/yellow.png><img class='d' src=images/squares/orange.png><img class='g' src=images/squares/green.png><img class='j' src=images/squares/brown.png><div class=""fixation"">+</div>","null","","","memory","exp","0","","","","","","","","","","","",""
"html-keyboard-response","90","312212","0.0-5.0-5.0-2.0","69309f7da595fb656eebdeb1","not_provided","desktop","0","0","0","","","","","","working_memory","","null","<div class=""fixation"">+</div>","null","","","","","","","","","","","","","","","","",""
"html-keyboard-response","91","314167","0.0-5.0-5.0-3.0","69309f7da595fb656eebdeb1","not_provided","desktop","0","0","0","","","","","","working_memory","","1953","<img class='b' src=images/squares/red.png><div class=""fixation"">+</div>","s","","","test_squares","exp","0","4","s","true","ks","d","","","","","","",""
"html-keyboard-response","92","314668","0.0-5.0-5.0-4.0","69309f7da595fb656eebdeb1","not_provided","desktop","0","0","0","","","","","","working_memory","","null","<div class=""fixation"">Correct</div>","null","","","","","","","","","","","","","","","","",""
"html-keyboard-response","93","315671","0.0-5.0-5.0-0.1","69309f7da595fb656eebdeb1","not_provided","desktop","0","0","0","","","","","","working_memory","","null","<div class=""fixation"">+</div>","null","","","","","","","","","","","","","","","","",""
"html-keyboard-response","94","315874","0.0-5.0-5.0-1.1","69309f7da595fb656eebdeb1","not_provided","desktop","0","0","0","","","","","","working_memory","","null","<img class='c' src=images/squares/cyan.png><img class='b' src=images/squares/magenta.png><img class='d' src=images/squares/brown.png><img class='e' src=images/squares/red.png><img class='g' src=images/squares/green.png><img class='i' src=images/squares/blue.png><img class='k' src=images/squares/orange.png><img class='l' src=images/squares/yellow.png><div class=""fixation"">+</div>","null","","","memory","exp","1","","","","","","","","","","","",""
"html-keyboard-response","95","316777","0.0-5.0-5.0-2.1","69309f7da595fb656eebdeb1","not_provided","desktop","0","0","0","","","","","","working_memory","","null","<div class=""fixation"">+</div>","null","","","","","","","","","","","","","","","","",""
"html-keyboard-response","96","317968","0.0-5.0-5.0-3.1","69309f7da595fb656eebdeb1","not_provided","desktop","0","0","0","","","","","","working_memory","","1189","<img class='c' src=images/squares/black.png><div class=""fixation"">+</div>","s","","","test_squares","exp","1","8","s","true","ks","d","","","","","","",""
"html-keyboard-response","97","318469","0.0-5.0-5.0-4.1","69309f7da595fb656eebdeb1","not_provided","desktop","0","0","0","","","","","","working_memory","","null","<div class=""fixation"">Correct</div>","null","","","","","","","","","","","","","","","","",""
"html-keyboard-response","98","319471","0.0-5.0-5.0-0.2","69309f7da595fb656eebdeb1","not_provided","desktop","0","0","0","","","","","","working_memory","","null","<div class=""fixation"">+</div>","null","","","","","","","","","","","","","","","","",""
"html-keyboard-response","99","319673","0.0-5.0-5.0-1.2","69309f7da595fb656eebdeb1","not_provided","desktop","0","0","0","","","","","","working_memory","","null","<img class='b' src=images/squares/brown.png><img class='d' src=images/squares/green.png><img class='i' src=images/squares/yellow.png><img class='j' src=images/squares/red.png><div class=""fixation"">+</div>","null","","","memory","exp","2","","","","","","","","","","","",""
"html-keyboard-response","100","320575","0.0-5.0-5.0-2.2","69309f7da595fb656eebdeb1","not_provided","desktop","0","0","0","","","","","","working_memory","","null","<div class=""fixation"">+</div>","null","","","","","","","","","","","","","","","","",""
"html-keyboard-response","101","321630","0.0-5.0-5.0-3.2","69309f7da595fb656eebdeb1","not_provided","desktop","0","0","0","","","","","","working_memory","","1052","<img class='d' src=images/squares/magenta.png><div class=""fixation"">+</div>","s","","","test_squares","exp","2","4","s","true","ks","d","","","","","","",""
"html-keyboard-response","102","322137","0.0-5.0-5.0-4.2","69309f7da595fb656eebdeb1","not_provided","desktop","0","0","0","","","","","","working_memory","","null","<div class=""fixation"">Correct</div>","null","","","","","","","","","","","","","","","","",""
"html-keyboard-response","103","323138","0.0-5.0-5.0-0.3","69309f7da595fb656eebdeb1","not_provided","desktop","0","0","0","","","","","","working_memory","","null","<div class=""fixation"">+</div>","null","","","","","","","","","","","","","","","","",""
"html-keyboard-response","104","323341","0.0-5.0-5.0-1.3","69309f7da595fb656eebdeb1","not_provided","desktop","0","0","0","","","","","","working_memory","","null","<img class='b' src=images/squares/brown.png><img class='d' src=images/squares/magenta.png><img class='i' src=images/squares/green.png><img class='l' src=images/squares/orange.png><div class=""fixation"">+</div>","null","","","memory","exp","3","","","","","","","","","","","",""
"html-keyboard-response","105","324243","0.0-5.0-5.0-2.3","69309f7da595fb656eebdeb1","not_provided","desktop","0","0","0","","","","","","working_memory","","null","<div class=""fixation"">+</div>","null","","","","","","","","","","","","","","","","",""
"html-keyboard-response","106","325165","0.0-5.0-5.0-3.3","69309f7da595fb656eebdeb1","not_provided","desktop","0","0","0","","","","","","working_memory","","920","<img class='i' src=images/squares/yellow.png><div class=""fixation"">+</div>","s","","","test_squares","exp","3","4","s","true","ks","d","","","","","","",""
"html-keyboard-response","107","325667","0.0-5.0-5.0-4.3","69309f7da595fb656eebdeb1","not_provided","desktop","0","0","0","","","","","","working_memory","","null","<div class=""fixation"">Correct</div>","null","","","","","","","","","","","","","","","","",""
"html-keyboard-response","108","326669","0.0-5.0-5.0-0.4","69309f7da595fb656eebdeb1","not_provided","desktop","0","0","0","","","","","","working_memory","","null","<div class=""fixation"">+</div>","null","","","","","","","","","","","","","","","","",""
"html-keyboard-response","109","326871","0.0-5.0-5.0-1.4","69309f7da595fb656eebdeb1","not_provided","desktop","0","0","0","","","","","","working_memory","","null","<img class='c' src=images/squares/magenta.png><img class='d' src=images/squares/cyan.png><img class='i' src=images/squares/blue.png><img class='l' src=images/squares/black.png><div class=""fixation"">+</div>","null","","","memory","exp","4","","","","","","","","","","","",""
"html-keyboard-response","110","327772","0.0-5.0-5.0-2.4","69309f7da595fb656eebdeb1","not_provided","desktop","0","0","0","","","","","","working_memory","","null","<div class=""fixation"">+</div>","null","","","","","","","","","","","","","","","","",""
"html-keyboard-response","111","329105","0.0-5.0-5.0-3.4","69309f7da595fb656eebdeb1","not_provided","desktop","0","0","0","","","","","","working_memory","","1330","<img class='c' src=images/squares/orange.png><div class=""fixation"">+</div>","s","","","test_squares","exp","4","4","s","true","ks","d","","","","","","",""
"html-keyboard-response","112","329609","0.0-5.0-5.0-4.4","69309f7da595fb656eebdeb1","not_provided","desktop","0","0","0","","","","","","working_memory","","null","<div class=""fixation"">Correct</div>","null","","","","","","","","","","","","","","","","",""
"html-keyboard-response","113","330611","0.0-5.0-5.0-0.5","69309f7da595fb656eebdeb1","not_provided","desktop","0","0","0","","","","","","working_memory","","null","<div class=""fixation"">+</div>","null","","","","","","","","","","","","","","","","",""
"html-keyboard-response","114","330815","0.0-5.0-5.0-1.5","69309f7da595fb656eebdeb1","not_provided","desktop","0","0","0","","","","","","working_memory","","null","<img class='b' src=images/squares/cyan.png><img class='c' src=images/squares/blue.png><img class='f' src=images/squares/yellow.png><img class='d' src=images/squares/magenta.png><img class='i' src=images/squares/black.png><img class='h' src=images/squares/red.png><img class='j' src=images/squares/brown.png><img class='k' src=images/squares/green.png><div class=""fixation"">+</div>","null","","","memory","exp","5","","","","","","","","","","","",""
"html-keyboard-response","115","331717","0.0-5.0-5.0-2.5","69309f7da595fb656eebdeb1","not_provided","desktop","0","0","0","","","","","","working_memory","","null","<div class=""fixation"">+</div>","null","","","","","","","","","","","","","","","","",""
"html-keyboard-response","116","333139","0.0-5.0-5.0-3.5","69309f7da595fb656eebdeb1","not_provided","desktop","0","0","0","","","","","","working_memory","","1419","<img class='k' src=images/squares/orange.png><div class=""fixation"">+</div>","s","","","test_squares","exp","5","8","s","true","ks","d","","","","","","",""
"html-keyboard-response","117","333642","0.0-5.0-5.0-4.5","69309f7da595fb656eebdeb1","not_provided","desktop","0","0","0","","","","","","working_memory","","null","<div class=""fixation"">Correct</div>","null","","","","","","","","","","","","","","","","",""
"html-keyboard-response","118","334644","0.0-5.0-5.0-0.6","69309f7da595fb656eebdeb1","not_provided","desktop","0","0","0","","","","","","working_memory","","null","<div class=""fixation"">+</div>","null","","","","","","","","","","","","","","","","",""
"html-keyboard-response","119","334847","0.0-5.0-5.0-1.6","69309f7da595fb656eebdeb1","not_provided","desktop","0","0","0","","","","","","working_memory","","null","<img class='c' src=images/squares/black.png><img class='d' src=images/squares/cyan.png><img class='g' src=images/squares/green.png><img class='k' src=images/squares/blue.png><div class=""fixation"">+</div>","null","","","memory","exp","6","","","","","","","","","","","",""
"html-keyboard-response","120","335749","0.0-5.0-5.0-2.6","69309f7da595fb656eebdeb1","not_provided","desktop","0","0","0","","","","","","working_memory","","null","<div class=""fixation"">+</div>","null","","","","","","","","","","","","","","","","",""
"html-keyboard-response","121","336742","0.0-5.0-5.0-3.6","69309f7da595fb656eebdeb1","not_provided","desktop","0","0","0","","","","","","working_memory","","989","<img class='d' src=images/squares/cyan.png><div class=""fixation"">+</div>","k","","","test_squares","exp","6","4","k","true","ks","s","","","","","","",""
"html-keyboard-response","122","337244","0.0-5.0-5.0-4.6","69309f7da595fb656eebdeb1","not_provided","desktop","0","0","0","","","","","","working_memory","","null","<div class=""fixation"">Correct</div>","null","","","","","","","","","","","","","","","","",""
"html-keyboard-response","123","338245","0.0-5.0-5.0-0.7","69309f7da595fb656eebdeb1","not_provided","desktop","0","0","0","","","","","","working_memory","","null","<div class=""fixation"">+</div>","null","","","","","","","","","","","","","","","","",""
"html-keyboard-response","124","338448","0.0-5.0-5.0-1.7","69309f7da595fb656eebdeb1","not_provided","desktop","0","0","0","","","","","","working_memory","","null","<img class='a' src=images/squares/brown.png><img class='e' src=images/squares/blue.png><img class='i' src=images/squares/cyan.png><img class='l' src=images/squares/orange.png><div class=""fixation"">+</div>","null","","","memory","exp","7","","","","","","","","","","","",""
"html-keyboard-response","125","339350","0.0-5.0-5.0-2.7","69309f7da595fb656eebdeb1","not_provided","desktop","0","0","0","","","","","","working_memory","","null","<div class=""fixation"">+</div>","null","","","","","","","","","","","","","","","","",""
"html-keyboard-response","126","340318","0.0-5.0-5.0-3.7","69309f7da595fb656eebdeb1","not_provided","desktop","0","0","0","","","","","","working_memory","","966","<img class='a' src=images/squares/brown.png><div class=""fixation"">+</div>","k","","","test_squares","exp","7","4","k","true","ks","s","","","","","","",""
"html-keyboard-response","127","340819","0.0-5.0-5.0-4.7","69309f7da595fb656eebdeb1","not_provided","desktop","0","0","0","","","","","","working_memory","","null","<div class=""fixation"">Correct</div>","null","","","","","","","","","","","","","","","","",""
"html-keyboard-response","128","341821","0.0-5.0-5.0-0.8","69309f7da595fb656eebdeb1","not_provided","desktop","0","0","0","","","","","","working_memory","","null","<div class=""fixation"">+</div>","null","","","","","","","","","","","","","","","","",""
"html-keyboard-response","129","342025","0.0-5.0-5.0-1.8","69309f7da595fb656eebdeb1","not_provided","desktop","0","0","0","","","","","","working_memory","","null","<img class='b' src=images/squares/brown.png><img class='a' src=images/squares/magenta.png><img class='f' src=images/squares/cyan.png><img class='d' src=images/squares/orange.png><img class='h' src=images/squares/yellow.png><img class='i' src=images/squares/red.png><img class='l' src=images/squares/blue.png><img class='j' src=images/squares/black.png><div class=""fixation"">+</div>","null","","","memory","exp","8","","","","","","","","","","","",""
"html-keyboard-response","130","342927","0.0-5.0-5.0-2.8","69309f7da595fb656eebdeb1","not_provided","desktop","0","0","0","","","","","","working_memory","","null","<div class=""fixation"">+</div>","null","","","","","","","","","","","","","","","","",""
"html-keyboard-response","131","344266","0.0-5.0-5.0-3.8","69309f7da595fb656eebdeb1","not_provided","desktop","0","0","0","","","","","","working_memory","","1337","<img class='i' src=images/squares/green.png><div class=""fixation"">+</div>","s","","","test_squares","exp","8","8","s","true","ks","d","","","","","","",""
"html-keyboard-response","132","344768","0.0-5.0-5.0-4.8","69309f7da595fb656eebdeb1","not_provided","desktop","0","0","0","","","","","","working_memory","","null","<div class=""fixation"">Correct</div>","null","","","","","","","","","","","","","","","","",""
"html-keyboard-response","133","345769","0.0-5.0-5.0-0.9","69309f7da595fb656eebdeb1","not_provided","desktop","0","0","0","","","","","","working_memory","","null","<div class=""fixation"">+</div>","null","","","","","","","","","","","","","","","","",""
"html-keyboard-response","134","345973","0.0-5.0-5.0-1.9","69309f7da595fb656eebdeb1","not_provided","desktop","0","0","0","","","","","","working_memory","","null","<img class='c' src=images/squares/magenta.png><img class='a' src=images/squares/black.png><img class='e' src=images/squares/orange.png><img class='f' src=images/squares/yellow.png><img class='h' src=images/squares/cyan.png><img class='i' src=images/squares/red.png><img class='l' src=images/squares/brown.png><img class='j' src=images/squares/green.png><div class=""fixation"">+</div>","null","","","memory","exp","9","","","","","","","","","","","",""
"html-keyboard-response","135","346875","0.0-5.0-5.0-2.9","69309f7da595fb656eebdeb1","not_provided","desktop","0","0","0","","","","","","working_memory","","null","<div class=""fixation"">+</div>","null","","","","","","","","","","","","","","","","",""
"html-keyboard-response","136","348750","0.0-5.0-5.0-3.9","69309f7da595fb656eebdeb1","not_provided","desktop","0","0","0","","","","","","working_memory","","1871","<img class='j' src=images/squares/green.png><div class=""fixation"">+</div>","k","","","test_squares","exp","9","8","k","true","ks","s","","","","","","",""
"html-keyboard-response","137","349251","0.0-5.0-5.0-4.9","69309f7da595fb656eebdeb1","not_provided","desktop","0","0","0","","","","","","working_memory","","null","<div class=""fixation"">Correct</div>","null","","","","","","","","","","","","","","","","",""
"html-keyboard-response","138","350253","0.0-5.0-5.0-0.10","69309f7da595fb656eebdeb1","not_provided","desktop","0","0","0","","","","","","working_memory","","null","<div class=""fixation"">+</div>","null","","","","","","","","","","","","","","","","",""
"html-keyboard-response","139","350456","0.0-5.0-5.0-1.10","69309f7da595fb656eebdeb1","not_provided","desktop","0","0","0","","","","","","working_memory","","null","<img class='a' src=images/squares/brown.png><img class='d' src=images/squares/red.png><img class='i' src=images/squares/black.png><img class='j' src=images/squares/green.png><div class=""fixation"">+</div>","null","","","memory","exp","10","","","","","","","","","","","",""
"html-keyboard-response","140","351357","0.0-5.0-5.0-2.10","69309f7da595fb656eebdeb1","not_provided","desktop","0","0","0","","","","","","working_memory","","null","<div class=""fixation"">+</div>","null","","","","","","","","","","","","","","","","",""
"html-keyboard-response","141","352899","0.0-5.0-5.0-3.10","69309f7da595fb656eebdeb1","not_provided","desktop","0","0","0","","","","","","working_memory","","1540","<img class='i' src=images/squares/black.png><div class=""fixation"">+</div>","k","","","test_squares","exp","10","4","k","true","ks","s","","","","","","",""
"html-keyboard-response","142","353401","0.0-5.0-5.0-4.10","69309f7da595fb656eebdeb1","not_provided","desktop","0","0","0","","","","","","working_memory","","null","<div class=""fixation"">Correct</div>","null","","","","","","","","","","","","","","","","",""
"html-keyboard-response","143","354403","0.0-5.0-5.0-0.11","69309f7da595fb656eebdeb1","not_provided","desktop","0","0","0","","","","","","working_memory","","null","<div class=""fixation"">+</div>","null","","","","","","","","","","","","","","","","",""
"html-keyboard-response","144","354606","0.0-5.0-5.0-1.11","69309f7da595fb656eebdeb1","not_provided","desktop","0","0","0","","","","","","working_memory","","null","<img class='b' src=images/squares/brown.png><img class='c' src=images/squares/black.png><img class='e' src=images/squares/magenta.png><img class='d' src=images/squares/blue.png><img class='g' src=images/squares/orange.png><img class='i' src=images/squares/green.png><img class='k' src=images/squares/cyan.png><img class='l' src=images/squares/yellow.png><div class=""fixation"">+</div>","null","","","memory","exp","11","","","","","","","","","","","",""
"html-keyboard-response","145","355509","0.0-5.0-5.0-2.11","69309f7da595fb656eebdeb1","not_provided","desktop","0","0","0","","","","","","working_memory","","null","<div class=""fixation"">+</div>","null","","","","","","","","","","","","","","","","",""
"html-keyboard-response","146","356517","0.0-5.0-5.0-3.11","69309f7da595fb656eebdeb1","not_provided","desktop","0","0","0","","","","","","working_memory","","1006","<img class='c' src=images/squares/black.png><div class=""fixation"">+</div>","k","","","test_squares","exp","11","8","k","true","ks","s","","","","","","",""
"html-keyboard-response","147","357019","0.0-5.0-5.0-4.11","69309f7da595fb656eebdeb1","not_provided","desktop","0","0","0","","","","","","working_memory","","null","<div class=""fixation"">Correct</div>","null","","","","","","","","","","","","","","","","",""
"html-keyboard-response","148","358021","0.0-5.0-5.0-0.12","69309f7da595fb656eebdeb1","not_provided","desktop","0","0","0","","","","","","working_memory","","null","<div class=""fixation"">+</div>","null","","","","","","","","","","","","","","","","",""
"html-keyboard-response","149","358225","0.0-5.0-5.0-1.12","69309f7da595fb656eebdeb1","not_provided","desktop","0","0","0","","","","","","working_memory","","null","<img class='c' src=images/squares/orange.png><img class='d' src=images/squares/green.png><img class='h' src=images/squares/cyan.png><img class='l' src=images/squares/yellow.png><div class=""fixation"">+</div>","null","","","memory","exp","12","","","","","","","","","","","",""
"html-keyboard-response","150","359127","0.0-5.0-5.0-2.12","69309f7da595fb656eebdeb1","not_provided","desktop","0","0","0","","","","","","working_memory","","null","<div class=""fixation"">+</div>","null","","","","","","","","","","","","","","","","",""
"html-keyboard-response","151","360018","0.0-5.0-5.0-3.12","69309f7da595fb656eebdeb1","not_provided","desktop","0","0","0","","","","","","working_memory","","889","<img class='d' src=images/squares/magenta.png><div class=""fixation"">+</div>","s","","","test_squares","exp","12","4","s","true","ks","d","","","","","","",""
"html-keyboard-response","152","360519","0.0-5.0-5.0-4.12","69309f7da595fb656eebdeb1","not_provided","desktop","0","0","0","","","","","","working_memory","","null","<div class=""fixation"">Correct</div>","null","","","","","","","","","","","","","","","","",""
"html-keyboard-response","153","361522","0.0-5.0-5.0-0.13","69309f7da595fb656eebdeb1","not_provided","desktop","0","0","0","","","","","","working_memory","","null","<div class=""fixation"">+</div>","null","","","","","","","","","","","","","","","","",""
"html-keyboard-response","154","361725","0.0-5.0-5.0-1.13","69309f7da595fb656eebdeb1","not_provided","desktop","0","0","0","","","","","","working_memory","","null","<img class='b' src=images/squares/black.png><img class='a' src=images/squares/blue.png><img class='f' src=images/squares/yellow.png><img class='e' src=images/squares/red.png><img class='h' src=images/squares/green.png><img class='g' src=images/squares/magenta.png><img class='k' src=images/squares/cyan.png><img class='j' src=images/squares/orange.png><div class=""fixation"">+</div>","null","","","memory","exp","13","","","","","","","","","","","",""
"html-keyboard-response","155","362627","0.0-5.0-5.0-2.13","69309f7da595fb656eebdeb1","not_provided","desktop","0","0","0","","","","","","working_memory","","null","<div class=""fixation"">+</div>","null","","","","","","","","","","","","","","","","",""
"html-keyboard-response","156","364134","0.0-5.0-5.0-3.13","69309f7da595fb656eebdeb1","not_provided","desktop","0","0","0","","","","","","working_memory","","1505","<img class='b' src=images/squares/black.png><div class=""fixation"">+</div>","s","","","test_squares","exp","13","8","k","false","ks","s","","","","","","",""
"html-keyboard-response","157","364635","0.0-5.0-5.0-4.13","69309f7da595fb656eebdeb1","not_provided","desktop","0","0","0","","","","","","working_memory","","null","<div class=""fixation"">Incorrect</div>","null","","","","","","","","","","","","","","","","",""
"html-keyboard-response","158","365638","0.0-5.0-5.0-0.14","69309f7da595fb656eebdeb1","not_provided","desktop","0","0","0","","","","","","working_memory","","null","<div class=""fixation"">+</div>","null","","","","","","","","","","","","","","","","",""
"html-keyboard-response","159","365841","0.0-5.0-5.0-1.14","69309f7da595fb656eebdeb1","not_provided","desktop","0","0","0","","","","","","working_memory","","null","<img class='a' src=images/squares/cyan.png><img class='c' src=images/squares/red.png><img class='f' src=images/squares/yellow.png><img class='e' src=images/squares/blue.png><img class='h' src=images/squares/black.png><img class='g' src=images/squares/brown.png><img class='l' src=images/squares/green.png><img class='j' src=images/squares/orange.png><div class=""fixation"">+</div>","null","","","memory","exp","14","","","","","","","","","","","",""
"html-keyboard-response","160","366743","0.0-5.0-5.0-2.14","69309f7da595fb656eebdeb1","not_provided","desktop","0","0","0","","","","","","working_memory","","null","<div class=""fixation"">+</div>","null","","","","","","","","","","","","","","","","",""
"html-keyboard-response","161","368176","0.0-5.0-5.0-3.14","69309f7da595fb656eebdeb1","not_provided","desktop","0","0","0","","","","","","working_memory","","1431","<img class='g' src=images/squares/brown.png><div class=""fixation"">+</div>","k","","","test_squares","exp","14","8","k","true","ks","s","","","","","","",""
"html-keyboard-response","162","368677","0.0-5.0-5.0-4.14","69309f7da595fb656eebdeb1","not_provided","desktop","0","0","0","","","","","","working_memory","","null","<div class=""fixation"">Correct</div>","null","","","","","","","","","","","","","","","","",""
"html-keyboard-response","163","369679","0.0-5.0-5.0-0.15","69309f7da595fb656eebdeb1","not_provided","desktop","0","0","0","","","","","","working_memory","","null","<div class=""fixation"">+</div>","null","","","","","","","","","","","","","","","","",""
"html-keyboard-response","164","369882","0.0-5.0-5.0-1.15","69309f7da595fb656eebdeb1","not_provided","desktop","0","0","0","","","","","","working_memory","","null","<img class='c' src=images/squares/red.png><img class='e' src=images/squares/cyan.png><img class='i' src=images/squares/black.png><img class='j' src=images/squares/blue.png><div class=""fixation"">+</div>","null","","","memory","exp","15","","","","","","","","","","","",""
"html-keyboard-response","165","370783","0.0-5.0-5.0-2.15","69309f7da595fb656eebdeb1","not_provided","desktop","0","0","0","","","","","","working_memory","","null","<div class=""fixation"">+</div>","null","","","","","","","","","","","","","","","","",""
"html-keyboard-response","166","371785","0.0-5.0-5.0-3.15","69309f7da595fb656eebdeb1","not_provided","desktop","0","0","0","","","","","","working_memory","","1000","<img class='e' src=images/squares/green.png><div class=""fixation"">+</div>","s","","","test_squares","exp","15","4","s","true","ks","d","","","","","","",""
"html-keyboard-response","167","372286","0.0-5.0-5.0-4.15","69309f7da595fb656eebdeb1","not_provided","desktop","0","0","0","","","","","","working_memory","","null","<div class=""fixation"">Correct</div>","null","","","","","","","","","","","","","","","","",""
"html-keyboard-response","168","373288","0.0-5.0-5.0-0.16","69309f7da595fb656eebdeb1","not_provided","desktop","0","0","0","","","","","","working_memory","","null","<div class=""fixation"">+</div>","null","","","","","","","","","","","","","","","","",""
"html-keyboard-response","169","373491","0.0-5.0-5.0-1.16","69309f7da595fb656eebdeb1","not_provided","desktop","0","0","0","","","","","","working_memory","","null","<img class='b' src=images/squares/magenta.png><img class='f' src=images/squares/brown.png><img class='i' src=images/squares/green.png><img class='l' src=images/squares/red.png><div class=""fixation"">+</div>","null","","","memory","exp","16","","","","","","","","","","","",""
"html-keyboard-response","170","374393","0.0-5.0-5.0-2.16","69309f7da595fb656eebdeb1","not_provided","desktop","0","0","0","","","","","","working_memory","","null","<div class=""fixation"">+</div>","null","","","","","","","","","","","","","","","","",""
"html-keyboard-response","171","377513","0.0-5.0-5.0-3.16","69309f7da595fb656eebdeb1","not_provided","desktop","0","0","0","","","","","","working_memory","","3118","<img class='f' src=images/squares/brown.png><div class=""fixation"">+</div>","s","","","test_squares","exp","16","4","k","false","ks","s","","","","","","",""
"html-keyboard-response","172","378014","0.0-5.0-5.0-4.16","69309f7da595fb656eebdeb1","not_provided","desktop","0","0","0","","","","","","working_memory","","null","<div class=""fixation"">Incorrect</div>","null","","","","","","","","","","","","","","","","",""
"html-keyboard-response","173","379016","0.0-5.0-5.0-0.17","69309f7da595fb656eebdeb1","not_provided","desktop","0","0","0","","","","","","working_memory","","null","<div class=""fixation"">+</div>","null","","","","","","","","","","","","","","","","",""
"html-keyboard-response","174","379219","0.0-5.0-5.0-1.17","69309f7da595fb656eebdeb1","not_provided","desktop","0","0","0","","","","","","working_memory","","null","<img class='b' src=images/squares/brown.png><img class='f' src=images/squares/red.png><img class='i' src=images/squares/blue.png><img class='l' src=images/squares/orange.png><div class=""fixation"">+</div>","null","","","memory","exp","17","","","","","","","","","","","",""
"html-keyboard-response","175","380121","0.0-5.0-5.0-2.17","69309f7da595fb656eebdeb1","not_provided","desktop","0","0","0","","","","","","working_memory","","null","<div class=""fixation"">+</div>","null","","","","","","","","","","","","","","","","",""
"html-keyboard-response","176","381377","0.0-5.0-5.0-3.17","69309f7da595fb656eebdeb1","not_provided","desktop","0","0","0","","","","","","working_memory","","1254","<img class='i' src=images/squares/blue.png><div class=""fixation"">+</div>","s","","","test_squares","exp","17","4","k","false","ks","s","","","","","","",""
"html-keyboard-response","177","381879","0.0-5.0-5.0-4.17","69309f7da595fb656eebdeb1","not_provided","desktop","0","0","0","","","","","","working_memory","","null","<div class=""fixation"">Incorrect</div>","null","","","","","","","","","","","","","","","","",""
"html-keyboard-response","178","382881","0.0-5.0-5.0-0.18","69309f7da595fb656eebdeb1","not_provided","desktop","0","0","0","","","","","","working_memory","","null","<div class=""fixation"">+</div>","null","","","","","","","","","","","","","","","","",""
"html-keyboard-response","179","383084","0.0-5.0-5.0-1.18","69309f7da595fb656eebdeb1","not_provided","desktop","0","0","0","","","","","","working_memory","","null","<img class='a' src=images/squares/red.png><img class='e' src=images/squares/green.png><img class='i' src=images/squares/brown.png><img class='l' src=images/squares/black.png><div class=""fixation"">+</div>","null","","","memory","exp","18","","","","","","","","","","","",""
"html-keyboard-response","180","383986","0.0-5.0-5.0-2.18","69309f7da595fb656eebdeb1","not_provided","desktop","0","0","0","","","","","","working_memory","","null","<div class=""fixation"">+</div>","null","","","","","","","","","","","","","","","","",""
"html-keyboard-response","181","386150","0.0-5.0-5.0-3.18","69309f7da595fb656eebdeb1","not_provided","desktop","0","0","0","","","","","","working_memory","","2162","<img class='l' src=images/squares/black.png><div class=""fixation"">+</div>","k","","","test_squares","exp","18","4","k","true","ks","s","","","","","","",""
"html-keyboard-response","182","386652","0.0-5.0-5.0-4.18","69309f7da595fb656eebdeb1","not_provided","desktop","0","0","0","","","","","","working_memory","","null","<div class=""fixation"">Correct</div>","null","","","","","","","","","","","","","","","","",""
"html-keyboard-response","183","387654","0.0-5.0-5.0-0.19","69309f7da595fb656eebdeb1","not_provided","desktop","0","0","0","","","","","","working_memory","","null","<div class=""fixation"">+</div>","null","","","","","","","","","","","","","","","","",""
"html-keyboard-response","184","387857","0.0-5.0-5.0-1.19","69309f7da595fb656eebdeb1","not_provided","desktop","0","0","0","","","","","","working_memory","","null","<img class='a' src=images/squares/yellow.png><img class='c' src=images/squares/orange.png><img class='e' src=images/squares/red.png><img class='d' src=images/squares/black.png><img class='i' src=images/squares/brown.png><img class='g' src=images/squares/blue.png><img class='k' src=images/squares/magenta.png><img class='j' src=images/squares/cyan.png><div class=""fixation"">+</div>","null","","","memory","exp","19","","","","","","","","","","","",""
"html-keyboard-response","185","388759","0.0-5.0-5.0-2.19","69309f7da595fb656eebdeb1","not_provided","desktop","0","0","0","","","","","","working_memory","","null","<div class=""fixation"">+</div>","null","","","","","","","","","","","","","","","","",""
"html-keyboard-response","186","390116","0.0-5.0-5.0-3.19","69309f7da595fb656eebdeb1","not_provided","desktop","0","0","0","","","","","","working_memory","","1355","<img class='e' src=images/squares/green.png><div class=""fixation"">+</div>","s","","","test_squares","exp","19","8","s","true","ks","d","","","","","","",""
"html-keyboard-response","187","390617","0.0-5.0-5.0-4.19","69309f7da595fb656eebdeb1","not_provided","desktop","0","0","0","","","","","","working_memory","","null","<div class=""fixation"">Correct</div>","null","","","","","","","","","","","","","","","","",""
"html-keyboard-response","188","391619","0.0-5.0-5.0-0.20","69309f7da595fb656eebdeb1","not_provided","desktop","0","0","0","","","","","","working_memory","","null","<div class=""fixation"">+</div>","null","","","","","","","","","","","","","","","","",""
"html-keyboard-response","189","391822","0.0-5.0-5.0-1.20","69309f7da595fb656eebdeb1","not_provided","desktop","0","0","0","","","","","","working_memory","","null","<img class='b' src=images/squares/magenta.png><img class='d' src=images/squares/green.png><img class='h' src=images/squares/red.png><img class='j' src=images/squares/orange.png><div class=""fixation"">+</div>","null","","","memory","exp","20","","","","","","","","","","","",""
"html-keyboard-response","190","392724","0.0-5.0-5.0-2.20","69309f7da595fb656eebdeb1","not_provided","desktop","0","0","0","","","","","","working_memory","","null","<div class=""fixation"">+</div>","null","","","","","","","","","","","","","","","","",""
"html-keyboard-response","191","394197","0.0-5.0-5.0-3.20","69309f7da595fb656eebdeb1","not_provided","desktop","0","0","0","","","","","","working_memory","","1472","<img class='j' src=images/squares/orange.png><div class=""fixation"">+</div>","k","","","test_squares","exp","20","4","k","true","ks","s","","","","","","",""
"html-keyboard-response","192","394699","0.0-5.0-5.0-4.20","69309f7da595fb656eebdeb1","not_provided","desktop","0","0","0","","","","","","working_memory","","null","<div class=""fixation"">Correct</div>","null","","","","","","","","","","","","","","","","",""
"html-keyboard-response","193","395701","0.0-5.0-5.0-0.21","69309f7da595fb656eebdeb1","not_provided","desktop","0","0","0","","","","","","working_memory","","null","<div class=""fixation"">+</div>","null","","","","","","","","","","","","","","","","",""
"html-keyboard-response","194","395904","0.0-5.0-5.0-1.21","69309f7da595fb656eebdeb1","not_provided","desktop","0","0","0","","","","","","working_memory","","null","<img class='b' src=images/squares/brown.png><img class='a' src=images/squares/green.png><img class='f' src=images/squares/yellow.png><img class='d' src=images/squares/blue.png><img class='g' src=images/squares/orange.png><img class='i' src=images/squares/cyan.png><img class='l' src=images/squares/black.png><img class='j' src=images/squares/magenta.png><div class=""fixation"">+</div>","null","","","memory","exp","21","","","","","","","","","","","",""
"html-keyboard-response","195","396806","0.0-5.0-5.0-2.21","69309f7da595fb656eebdeb1","not_provided","desktop","0","0","0","","","","","","working_memory","","null","<div class=""fixation"">+</div>","null","","","","","","","","","","","","","","","","",""
"html-keyboard-response","196","398459","0.0-5.0-5.0-3.21","69309f7da595fb656eebdeb1","not_provided","desktop","0","0","0","","","","","","working_memory","","1652","<img class='i' src=images/squares/red.png><div class=""fixation"">+</div>","s","","","test_squares","exp","21","8","s","true","ks","d","","","","","","",""
"html-keyboard-response","197","398961","0.0-5.0-5.0-4.21","69309f7da595fb656eebdeb1","not_provided","desktop","0","0","0","","","","","","working_memory","","null","<div class=""fixation"">Correct</div>","null","","","","","","","","","","","","","","","","",""
"html-keyboard-response","198","399963","0.0-5.0-5.0-0.22","69309f7da595fb656eebdeb1","not_provided","desktop","0","0","0","","","","","","working_memory","","null","<div class=""fixation"">+</div>","null","","","","","","","","","","","","","","","","",""
"html-keyboard-response","199","400166","0.0-5.0-5.0-1.22","69309f7da595fb656eebdeb1","not_provided","desktop","0","0","0","","","","","","working_memory","","null","<img class='b' src=images/squares/black.png><img class='c' src=images/squares/orange.png><img class='e' src=images/squares/magenta.png><img class='f' src=images/squares/red.png><img class='g' src=images/squares/brown.png><img class='h' src=images/squares/yellow.png><img class='l' src=images/squares/green.png><img class='j' src=images/squares/blue.png><div class=""fixation"">+</div>","null","","","memory","exp","22","","","","","","","","","","","",""
"html-keyboard-response","200","401068","0.0-5.0-5.0-2.22","69309f7da595fb656eebdeb1","not_provided","desktop","0","0","0","","","","","","working_memory","","null","<div class=""fixation"">+</div>","null","","","","","","","","","","","","","","","","",""
"html-keyboard-response","201","402848","0.0-5.0-5.0-3.22","69309f7da595fb656eebdeb1","not_provided","desktop","0","0","0","","","","","","working_memory","","1778","<img class='h' src=images/squares/cyan.png><div class=""fixation"">+</div>","s","","","test_squares","exp","22","8","s","true","ks","d","","","","","","",""
"html-keyboard-response","202","403350","0.0-5.0-5.0-4.22","69309f7da595fb656eebdeb1","not_provided","desktop","0","0","0","","","","","","working_memory","","null","<div class=""fixation"">Correct</div>","null","","","","","","","","","","","","","","","","",""
"html-keyboard-response","203","404352","0.0-5.0-5.0-0.23","69309f7da595fb656eebdeb1","not_provided","desktop","0","0","0","","","","","","working_memory","","null","<div class=""fixation"">+</div>","null","","","","","","","","","","","","","","","","",""
"html-keyboard-response","204","404555","0.0-5.0-5.0-1.23","69309f7da595fb656eebdeb1","not_provided","desktop","0","0","0","","","","","","working_memory","","null","<img class='b' src=images/squares/magenta.png><img class='c' src=images/squares/black.png><img class='d' src=images/squares/orange.png><img class='e' src=images/squares/green.png><img class='i' src=images/squares/yellow.png><img class='h' src=images/squares/cyan.png><img class='l' src=images/squares/red.png><img class='k' src=images/squares/brown.png><div class=""fixation"">+</div>","null","","","memory","exp","23","","","","","","","","","","","",""
"html-keyboard-response","205","405457","0.0-5.0-5.0-2.23","69309f7da595fb656eebdeb1","not_provided","desktop","0","0","0","","","","","","working_memory","","null","<div class=""fixation"">+</div>","null","","","","","","","","","","","","","","","","",""
"html-keyboard-response","206","406910","0.0-5.0-5.0-3.23","69309f7da595fb656eebdeb1","not_provided","desktop","0","0","0","","","","","","working_memory","","1451","<img class='i' src=images/squares/blue.png><div class=""fixation"">+</div>","s","","","test_squares","exp","23","8","s","true","ks","d","","","","","","",""
"html-keyboard-response","207","407412","0.0-5.0-5.0-4.23","69309f7da595fb656eebdeb1","not_provided","desktop","0","0","0","","","","","","working_memory","","null","<div class=""fixation"">Correct</div>","null","","","","","","","","","","","","","","","","",""
"html-keyboard-response","208","408414","0.0-5.0-5.0-0.24","69309f7da595fb656eebdeb1","not_provided","desktop","0","0","0","","","","","","working_memory","","null","<div class=""fixation"">+</div>","null","","","","","","","","","","","","","","","","",""
"html-keyboard-response","209","408618","0.0-5.0-5.0-1.24","69309f7da595fb656eebdeb1","not_provided","desktop","0","0","0","","","","","","working_memory","","null","<img class='c' src=images/squares/blue.png><img class='b' src=images/squares/orange.png><img class='d' src=images/squares/cyan.png><img class='f' src=images/squares/black.png><img class='g' src=images/squares/green.png><img class='i' src=images/squares/brown.png><img class='j' src=images/squares/magenta.png><img class='l' src=images/squares/yellow.png><div class=""fixation"">+</div>","null","","","memory","exp","24","","","","","","","","","","","",""
"html-keyboard-response","210","409520","0.0-5.0-5.0-2.24","69309f7da595fb656eebdeb1","not_provided","desktop","0","0","0","","","","","","working_memory","","null","<div class=""fixation"">+</div>","null","","","","","","","","","","","","","","","","",""
"html-keyboard-response","211","411415","0.0-5.0-5.0-3.24","69309f7da595fb656eebdeb1","not_provided","desktop","0","0","0","","","","","","working_memory","","1893","<img class='c' src=images/squares/red.png><div class=""fixation"">+</div>","s","","","test_squares","exp","24","8","s","true","ks","d","","","","","","",""
"html-keyboard-response","212","411917","0.0-5.0-5.0-4.24","69309f7da595fb656eebdeb1","not_provided","desktop","0","0","0","","","","","","working_memory","","null","<div class=""fixation"">Correct</div>","null","","","","","","","","","","","","","","","","",""
"html-keyboard-response","213","412919","0.0-5.0-5.0-0.25","69309f7da595fb656eebdeb1","not_provided","desktop","0","0","0","","","","","","working_memory","","null","<div class=""fixation"">+</div>","null","","","","","","","","","","","","","","","","",""
"html-keyboard-response","214","413122","0.0-5.0-5.0-1.25","69309f7da595fb656eebdeb1","not_provided","desktop","0","0","0","","","","","","working_memory","","null","<img class='c' src=images/squares/red.png><img class='a' src=images/squares/blue.png><img class='f' src=images/squares/magenta.png><img class='e' src=images/squares/brown.png><img class='h' src=images/squares/orange.png><img class='i' src=images/squares/green.png><img class='j' src=images/squares/black.png><img class='l' src=images/squares/yellow.png><div class=""fixation"">+</div>","null","","","memory","exp","25","","","","","","","","","","","",""
"html-keyboard-response","215","414025","0.0-5.0-5.0-2.25","69309f7da595fb656eebdeb1","not_provided","desktop","0","0","0","","","","","","working_memory","","null","<div class=""fixation"">+</div>","null","","","","","","","","","","","","","","","","",""
"html-keyboard-response","216","415842","0.0-5.0-5.0-3.25","69309f7da595fb656eebdeb1","not_provided","desktop","0","0","0","","","","","","working_memory","","1816","<img class='h' src=images/squares/cyan.png><div class=""fixation"">+</div>","s","","","test_squares","exp","25","8","s","true","ks","d","","","","","","",""
"html-keyboard-response","217","416344","0.0-5.0-5.0-4.25","69309f7da595fb656eebdeb1","not_provided","desktop","0","0","0","","","","","","working_memory","","null","<div class=""fixation"">Correct</div>","null","","","","","","","","","","","","","","","","",""
"html-keyboard-response","218","417346","0.0-5.0-5.0-0.26","69309f7da595fb656eebdeb1","not_provided","desktop","0","0","0","","","","","","working_memory","","null","<div class=""fixation"">+</div>","null","","","","","","","","","","","","","","","","",""
"html-keyboard-response","219","417550","0.0-5.0-5.0-1.26","69309f7da595fb656eebdeb1","not_provided","desktop","0","0","0","","","","","","working_memory","","null","<img class='b' src=images/squares/red.png><img class='c' src=images/squares/yellow.png><img class='d' src=images/squares/magenta.png><img class='e' src=images/squares/orange.png><img class='i' src=images/squares/blue.png><img class='g' src=images/squares/green.png><img class='j' src=images/squares/brown.png><img class='k' src=images/squares/cyan.png><div class=""fixation"">+</div>","null","","","memory","exp","26","","","","","","","","","","","",""
"html-keyboard-response","220","418452","0.0-5.0-5.0-2.26","69309f7da595fb656eebdeb1","not_provided","desktop","0","0","0","","","","","","working_memory","","null","<div class=""fixation"">+</div>","null","","","","","","","","","","","","","","","","",""
"html-keyboard-response","221","419755","0.0-5.0-5.0-3.26","69309f7da595fb656eebdeb1","not_provided","desktop","0","0","0","","","","","","working_memory","","1301","<img class='k' src=images/squares/black.png><div class=""fixation"">+</div>","s","","","test_squares","exp","26","8","s","true","ks","d","","","","","","",""
"html-keyboard-response","222","420256","0.0-5.0-5.0-4.26","69309f7da595fb656eebdeb1","not_provided","desktop","0","0","0","","","","","","working_memory","","null","<div class=""fixation"">Correct</div>","null","","","","","","","","","","","","","","","","",""
"html-keyboard-response","223","421257","0.0-5.0-5.0-0.27","69309f7da595fb656eebdeb1","not_provided","desktop","0","0","0","","","","","","working_memory","","null","<div class=""fixation"">+</div>","null","","","","","","","","","","","","","","","","",""
"html-keyboard-response","224","421460","0.0-5.0-5.0-1.27","69309f7da595fb656eebdeb1","not_provided","desktop","0","0","0","","","","","","working_memory","","null","<img class='b' src=images/squares/cyan.png><img class='a' src=images/squares/yellow.png><img class='f' src=images/squares/red.png><img class='d' src=images/squares/green.png><img class='h' src=images/squares/magenta.png><img class='g' src=images/squares/brown.png><img class='k' src=images/squares/black.png><img class='l' src=images/squares/orange.png><div class=""fixation"">+</div>","null","","","memory","exp","27","","","","","","","","","","","",""
"html-keyboard-response","225","422362","0.0-5.0-5.0-2.27","69309f7da595fb656eebdeb1","not_provided","desktop","0","0","0","","","","","","working_memory","","null","<div class=""fixation"">+</div>","null","","","","","","","","","","","","","","","","",""
"html-keyboard-response","226","423608","0.0-5.0-5.0-3.27","69309f7da595fb656eebdeb1","not_provided","desktop","0","0","0","","","","","","working_memory","","1245","<img class='d' src=images/squares/green.png><div class=""fixation"">+</div>","s","","","test_squares","exp","27","8","k","false","ks","s","","","","","","",""
"html-keyboard-response","227","424110","0.0-5.0-5.0-4.27","69309f7da595fb656eebdeb1","not_provided","desktop","0","0","0","","","","","","working_memory","","null","<div class=""fixation"">Incorrect</div>","null","","","","","","","","","","","","","","","","",""
"html-keyboard-response","228","425112","0.0-5.0-5.0-0.28","69309f7da595fb656eebdeb1","not_provided","desktop","0","0","0","","","","","","working_memory","","null","<div class=""fixation"">+</div>","null","","","","","","","","","","","","","","","","",""
"html-keyboard-response","229","425315","0.0-5.0-5.0-1.28","69309f7da595fb656eebdeb1","not_provided","desktop","0","0","0","","","","","","working_memory","","null","<img class='b' src=images/squares/blue.png><img class='f' src=images/squares/cyan.png><img class='h' src=images/squares/green.png><img class='l' src=images/squares/yellow.png><div class=""fixation"">+</div>","null","","","memory","exp","28","","","","","","","","","","","",""
"html-keyboard-response","230","426217","0.0-5.0-5.0-2.28","69309f7da595fb656eebdeb1","not_provided","desktop","0","0","0","","","","","","working_memory","","null","<div class=""fixation"">+</div>","null","","","","","","","","","","","","","","","","",""
"html-keyboard-response","231","427476","0.0-5.0-5.0-3.28","69309f7da595fb656eebdeb1","not_provided","desktop","0","0","0","","","","","","working_memory","","1257","<img class='b' src=images/squares/black.png><div class=""fixation"">+</div>","s","","","test_squares","exp","28","4","s","true","ks","d","","","","","","",""
"html-keyboard-response","232","427978","0.0-5.0-5.0-4.28","69309f7da595fb656eebdeb1","not_provided","desktop","0","0","0","","","","","","working_memory","","null","<div class=""fixation"">Correct</div>","null","","","","","","","","","","","","","","","","",""
"html-keyboard-response","233","428980","0.0-5.0-5.0-0.29","69309f7da595fb656eebdeb1","not_provided","desktop","0","0","0","","","","","","working_memory","","null","<div class=""fixation"">+</div>","null","","","","","","","","","","","","","","","","",""
"html-keyboard-response","234","429183","0.0-5.0-5.0-1.29","69309f7da595fb656eebdeb1","not_provided","desktop","0","0","0","","","","","","working_memory","","null","<img class='c' src=images/squares/black.png><img class='e' src=images/squares/orange.png><img class='h' src=images/squares/blue.png><img class='k' src=images/squares/red.png><div class=""fixation"">+</div>","null","","","memory","exp","29","","","","","","","","","","","",""
"html-keyboard-response","235","430085","0.0-5.0-5.0-2.29","69309f7da595fb656eebdeb1","not_provided","desktop","0","0","0","","","","","","working_memory","","null","<div class=""fixation"">+</div>","null","","","","","","","","","","","","","","","","",""
"html-keyboard-response","236","431495","0.0-5.0-5.0-3.29","69309f7da595fb656eebdeb1","not_provided","desktop","0","0","0","","","","","","working_memory","","1408","<img class='k' src=images/squares/red.png><div class=""fixation"">+</div>","k","","","test_squares","exp","29","4","k","true","ks","s","","","","","","",""
"html-keyboard-response","237","431996","0.0-5.0-5.0-4.29","69309f7da595fb656eebdeb1","not_provided","desktop","0","0","0","","","","","","working_memory","","null","<div class=""fixation"">Correct</div>","null","","","","","","","","","","","","","","","","",""
"html-keyboard-response","238","432998","0.0-5.0-5.0-0.30","69309f7da595fb656eebdeb1","not_provided","desktop","0","0","0","","","","","","working_memory","","null","<div class=""fixation"">+</div>","null","","","","","","","","","","","","","","","","",""
"html-keyboard-response","239","433201","0.0-5.0-5.0-1.30","69309f7da595fb656eebdeb1","not_provided","desktop","0","0","0","","","","","","working_memory","","null","<img class='a' src=images/squares/black.png><img class='f' src=images/squares/magenta.png><img class='i' src=images/squares/yellow.png><img class='l' src=images/squares/red.png><div class=""fixation"">+</div>","null","","","memory","exp","30","","","","","","","","","","","",""
"html-keyboard-response","240","434103","0.0-5.0-5.0-2.30","69309f7da595fb656eebdeb1","not_provided","desktop","0","0","0","","","","","","working_memory","","null","<div class=""fixation"">+</div>","null","","","","","","","","","","","","","","","","",""
"html-keyboard-response","241","435341","0.0-5.0-5.0-3.30","69309f7da595fb656eebdeb1","not_provided","desktop","0","0","0","","","","","","working_memory","","1236","<img class='a' src=images/squares/brown.png><div class=""fixation"">+</div>","s","","","test_squares","exp","30","4","s","true","ks","d","","","","","","",""
"html-keyboard-response","242","435843","0.0-5.0-5.0-4.30","69309f7da595fb656eebdeb1","not_provided","desktop","0","0","0","","","","","","working_memory","","null","<div class=""fixation"">Correct</div>","null","","","","","","","","","","","","","","","","",""
"html-keyboard-response","243","436845","0.0-5.0-5.0-0.31","69309f7da595fb656eebdeb1","not_provided","desktop","0","0","0","","","","","","working_memory","","null","<div class=""fixation"">+</div>","null","","","","","","","","","","","","","","","","",""
"html-keyboard-response","244","437048","0.0-5.0-5.0-1.31","69309f7da595fb656eebdeb1","not_provided","desktop","0","0","0","","","","","","working_memory","","null","<img class='b' src=images/squares/cyan.png><img class='c' src=images/squares/magenta.png><img class='d' src=images/squares/black.png><img class='e' src=images/squares/blue.png><img class='g' src=images/squares/green.png><img class='h' src=images/squares/orange.png><img class='l' src=images/squares/brown.png><img class='j' src=images/squares/red.png><div class=""fixation"">+</div>","null","","","memory","exp","31","","","","","","","","","","","",""
"html-keyboard-response","245","437950","0.0-5.0-5.0-2.31","69309f7da595fb656eebdeb1","not_provided","desktop","0","0","0","","","","","","working_memory","","null","<div class=""fixation"">+</div>","null","","","","","","","","","","","","","","","","",""
"html-keyboard-response","246","439305","0.0-5.0-5.0-3.31","69309f7da595fb656eebdeb1","not_provided","desktop","0","0","0","","","","","","working_memory","","1353","<img class='e' src=images/squares/blue.png><div class=""fixation"">+</div>","s","","","test_squares","exp","31","8","k","false","ks","s","","","","","","",""
"html-keyboard-response","247","439807","0.0-5.0-5.0-4.31","69309f7da595fb656eebdeb1","not_provided","desktop","0","0","0","","","","","","working_memory","","null","<div class=""fixation"">Incorrect</div>","null","","","","","","","","","","","","","","","","",""
"html-keyboard-response","248","440808","0.0-5.0-5.0-0.32","69309f7da595fb656eebdeb1","not_provided","desktop","0","0","0","","","","","","working_memory","","null","<div class=""fixation"">+</div>","null","","","","","","","","","","","","","","","","",""
"html-keyboard-response","249","441011","0.0-5.0-5.0-1.32","69309f7da595fb656eebdeb1","not_provided","desktop","0","0","0","","","","","","working_memory","","null","<img class='c' src=images/squares/cyan.png><img class='d' src=images/squares/red.png><img class='h' src=images/squares/magenta.png><img class='k' src=images/squares/black.png><div class=""fixation"">+</div>","null","","","memory","exp","32","","","","","","","","","","","",""
"html-keyboard-response","250","441913","0.0-5.0-5.0-2.32","69309f7da595fb656eebdeb1","not_provided","desktop","0","0","0","","","","","","working_memory","","null","<div class=""fixation"">+</div>","null","","","","","","","","","","","","","","","","",""
"html-keyboard-response","251","443696","0.0-5.0-5.0-3.32","69309f7da595fb656eebdeb1","not_provided","desktop","0","0","0","","","","","","working_memory","","1781","<img class='k' src=images/squares/black.png><div class=""fixation"">+</div>","k","","","test_squares","exp","32","4","k","true","ks","s","","","","","","",""
"html-keyboard-response","252","444198","0.0-5.0-5.0-4.32","69309f7da595fb656eebdeb1","not_provided","desktop","0","0","0","","","","","","working_memory","","null","<div class=""fixation"">Correct</div>","null","","","","","","","","","","","","","","","","",""
"html-keyboard-response","253","445199","0.0-5.0-5.0-0.33","69309f7da595fb656eebdeb1","not_provided","desktop","0","0","0","","","","","","working_memory","","null","<div class=""fixation"">+</div>","null","","","","","","","","","","","","","","","","",""
"html-keyboard-response","254","445402","0.0-5.0-5.0-1.33","69309f7da595fb656eebdeb1","not_provided","desktop","0","0","0","","","","","","working_memory","","null","<img class='a' src=images/squares/green.png><img class='e' src=images/squares/magenta.png><img class='g' src=images/squares/brown.png><img class='k' src=images/squares/black.png><div class=""fixation"">+</div>","null","","","memory","exp","33","","","","","","","","","","","",""
"html-keyboard-response","255","446304","0.0-5.0-5.0-2.33","69309f7da595fb656eebdeb1","not_provided","desktop","0","0","0","","","","","","working_memory","","null","<div class=""fixation"">+</div>","null","","","","","","","","","","","","","","","","",""
"html-keyboard-response","256","447700","0.0-5.0-5.0-3.33","69309f7da595fb656eebdeb1","not_provided","desktop","0","0","0","","","","","","working_memory","","1394","<img class='g' src=images/squares/blue.png><div class=""fixation"">+</div>","s","","","test_squares","exp","33","4","s","true","ks","d","","","","","","",""
"html-keyboard-response","257","448202","0.0-5.0-5.0-4.33","69309f7da595fb656eebdeb1","not_provided","desktop","0","0","0","","","","","","working_memory","","null","<div class=""fixation"">Correct</div>","null","","","","","","","","","","","","","","","","",""
"html-keyboard-response","258","449204","0.0-5.0-5.0-0.34","69309f7da595fb656eebdeb1","not_provided","desktop","0","0","0","","","","","","working_memory","","null","<div class=""fixation"">+</div>","null","","","","","","","","","","","","","","","","",""
"html-keyboard-response","259","449407","0.0-5.0-5.0-1.34","69309f7da595fb656eebdeb1","not_provided","desktop","0","0","0","","","","","","working_memory","","null","<img class='c' src=images/squares/orange.png><img class='f' src=images/squares/brown.png><img class='h' src=images/squares/red.png><img class='k' src=images/squares/green.png><div class=""fixation"">+</div>","null","","","memory","exp","34","","","","","","","","","","","",""
"html-keyboard-response","260","450309","0.0-5.0-5.0-2.34","69309f7da595fb656eebdeb1","not_provided","desktop","0","0","0","","","","","","working_memory","","null","<div class=""fixation"">+</div>","null","","","","","","","","","","","","","","","","",""
"html-keyboard-response","261","451918","0.0-5.0-5.0-3.34","69309f7da595fb656eebdeb1","not_provided","desktop","0","0","0","","","","","","working_memory","","1607","<img class='c' src=images/squares/cyan.png><div class=""fixation"">+</div>","s","","","test_squares","exp","34","4","s","true","ks","d","","","","","","",""
"html-keyboard-response","262","452419","0.0-5.0-5.0-4.34","69309f7da595fb656eebdeb1","not_provided","desktop","0","0","0","","","","","","working_memory","","null","<div class=""fixation"">Correct</div>","null","","","","","","","","","","","","","","","","",""
"html-keyboard-response","263","453421","0.0-5.0-5.0-0.35","69309f7da595fb656eebdeb1","not_provided","desktop","0","0","0","","","","","","working_memory","","null","<div class=""fixation"">+</div>","null","","","","","","","","","","","","","","","","",""
"html-keyboard-response","264","453624","0.0-5.0-5.0-1.35","69309f7da595fb656eebdeb1","not_provided","desktop","0","0","0","","","","","","working_memory","","null","<img class='b' src=images/squares/yellow.png><img class='f' src=images/squares/magenta.png><img class='h' src=images/squares/red.png><img class='j' src=images/squares/brown.png><div class=""fixation"">+</div>","null","","","memory","exp","35","","","","","","","","","","","",""
"html-keyboard-response","265","454526","0.0-5.0-5.0-2.35","69309f7da595fb656eebdeb1","not_provided","desktop","0","0","0","","","","","","working_memory","","null","<div class=""fixation"">+</div>","null","","","","","","","","","","","","","","","","",""
"html-keyboard-response","266","455770","0.0-5.0-5.0-3.35","69309f7da595fb656eebdeb1","not_provided","desktop","0","0","0","","","","","","working_memory","","1241","<img class='b' src=images/squares/yellow.png><div class=""fixation"">+</div>","k","","","test_squares","exp","35","4","k","true","ks","s","","","","","","",""
"html-keyboard-response","267","456273","0.0-5.0-5.0-4.35","69309f7da595fb656eebdeb1","not_provided","desktop","0","0","0","","","","","","working_memory","","null","<div class=""fixation"">Correct</div>","null","","","","","","","","","","","","","","","","",""
"html-keyboard-response","268","457275","0.0-5.0-5.0-0.36","69309f7da595fb656eebdeb1","not_provided","desktop","0","0","0","","","","","","working_memory","","null","<div class=""fixation"">+</div>","null","","","","","","","","","","","","","","","","",""
"html-keyboard-response","269","457479","0.0-5.0-5.0-1.36","69309f7da595fb656eebdeb1","not_provided","desktop","0","0","0","","","","","","working_memory","","null","<img class='a' src=images/squares/orange.png><img class='c' src=images/squares/yellow.png><img class='f' src=images/squares/magenta.png><img class='e' src=images/squares/brown.png><img class='i' src=images/squares/cyan.png><img class='h' src=images/squares/green.png><img class='k' src=images/squares/black.png><img class='j' src=images/squares/blue.png><div class=""fixation"">+</div>","null","","","memory","exp","36","","","","","","","","","","","",""
"html-keyboard-response","270","458380","0.0-5.0-5.0-2.36","69309f7da595fb656eebdeb1","not_provided","desktop","0","0","0","","","","","","working_memory","","null","<div class=""fixation"">+</div>","null","","","","","","","","","","","","","","","","",""
"html-keyboard-response","271","459715","0.0-5.0-5.0-3.36","69309f7da595fb656eebdeb1","not_provided","desktop","0","0","0","","","","","","working_memory","","1333","<img class='c' src=images/squares/red.png><div class=""fixation"">+</div>","s","","","test_squares","exp","36","8","s","true","ks","d","","","","","","",""
"html-keyboard-response","272","460216","0.0-5.0-5.0-4.36","69309f7da595fb656eebdeb1","not_provided","desktop","0","0","0","","","","","","working_memory","","null","<div class=""fixation"">Correct</div>","null","","","","","","","","","","","","","","","","",""
"html-keyboard-response","273","461218","0.0-5.0-5.0-0.37","69309f7da595fb656eebdeb1","not_provided","desktop","0","0","0","","","","","","working_memory","","null","<div class=""fixation"">+</div>","null","","","","","","","","","","","","","","","","",""
"html-keyboard-response","274","461421","0.0-5.0-5.0-1.37","69309f7da595fb656eebdeb1","not_provided","desktop","0","0","0","","","","","","working_memory","","null","<img class='a' src=images/squares/orange.png><img class='e' src=images/squares/cyan.png><img class='i' src=images/squares/blue.png><img class='k' src=images/squares/yellow.png><div class=""fixation"">+</div>","null","","","memory","exp","37","","","","","","","","","","","",""
"html-keyboard-response","275","462323","0.0-5.0-5.0-2.37","69309f7da595fb656eebdeb1","not_provided","desktop","0","0","0","","","","","","working_memory","","null","<div class=""fixation"">+</div>","null","","","","","","","","","","","","","","","","",""
"html-keyboard-response","276","464115","0.0-5.0-5.0-3.37","69309f7da595fb656eebdeb1","not_provided","desktop","0","0","0","","","","","","working_memory","","1789","<img class='i' src=images/squares/blue.png><div class=""fixation"">+</div>","s","","","test_squares","exp","37","4","k","false","ks","s","","","","","","",""
"html-keyboard-response","277","464616","0.0-5.0-5.0-4.37","69309f7da595fb656eebdeb1","not_provided","desktop","0","0","0","","","","","","working_memory","","null","<div class=""fixation"">Incorrect</div>","null","","","","","","","","","","","","","","","","",""
"html-keyboard-response","278","465618","0.0-5.0-5.0-0.38","69309f7da595fb656eebdeb1","not_provided","desktop","0","0","0","","","","","","working_memory","","null","<div class=""fixation"">+</div>","null","","","","","","","","","","","","","","","","",""
"html-keyboard-response","279","465821","0.0-5.0-5.0-1.38","69309f7da595fb656eebdeb1","not_provided","desktop","0","0","0","","","","","","working_memory","","null","<img class='a' src=images/squares/red.png><img class='e' src=images/squares/yellow.png><img class='g' src=images/squares/magenta.png><img class='k' src=images/squares/blue.png><div class=""fixation"">+</div>","null","","","memory","exp","38","","","","","","","","","","","",""
"html-keyboard-response","280","466724","0.0-5.0-5.0-2.38","69309f7da595fb656eebdeb1","not_provided","desktop","0","0","0","","","","","","working_memory","","null","<div class=""fixation"">+</div>","null","","","","","","","","","","","","","","","","",""
"html-keyboard-response","281","467716","0.0-5.0-5.0-3.38","69309f7da595fb656eebdeb1","not_provided","desktop","0","0","0","","","","","","working_memory","","991","<img class='e' src=images/squares/yellow.png><div class=""fixation"">+</div>","k","","","test_squares","exp","38","4","k","true","ks","s","","","","","","",""
"html-keyboard-response","282","468218","0.0-5.0-5.0-4.38","69309f7da595fb656eebdeb1","not_provided","desktop","0","0","0","","","","","","working_memory","","null","<div class=""fixation"">Correct</div>","null","","","","","","","","","","","","","","","","",""
"html-keyboard-response","283","469220","0.0-5.0-5.0-0.39","69309f7da595fb656eebdeb1","not_provided","desktop","0","0","0","","","","","","working_memory","","null","<div class=""fixation"">+</div>","null","","","","","","","","","","","","","","","","",""
"html-keyboard-response","284","469424","0.0-5.0-5.0-1.39","69309f7da595fb656eebdeb1","not_provided","desktop","0","0","0","","","","","","working_memory","","null","<img class='c' src=images/squares/brown.png><img class='b' src=images/squares/magenta.png><img class='d' src=images/squares/green.png><img class='f' src=images/squares/orange.png><img class='i' src=images/squares/cyan.png><img class='h' src=images/squares/blue.png><img class='l' src=images/squares/yellow.png><img class='j' src=images/squares/black.png><div class=""fixation"">+</div>","null","","","memory","exp","39","","","","","","","","","","","",""
"html-keyboard-response","285","470325","0.0-5.0-5.0-2.39","69309f7da595fb656eebdeb1","not_provided","desktop","0","0","0","","","","","","working_memory","","null","<div class=""fixation"">+</div>","null","","","","","","","","","","","","","","","","",""
"html-keyboard-response","286","472018","0.0-5.0-5.0-3.39","69309f7da595fb656eebdeb1","not_provided","desktop","0","0","0","","","","","","working_memory","","1691","<img class='b' src=images/squares/magenta.png><div class=""fixation"">+</div>","k","","","test_squares","exp","39","8","k","true","ks","s","","","","","","",""
"html-keyboard-response","287","472520","0.0-5.0-5.0-4.39","69309f7da595fb656eebdeb1","not_provided","desktop","0","0","0","","","","","","working_memory","","null","<div class=""fixation"">Correct</div>","null","","","","","","","","","","","","","","","","",""
"html-keyboard-response","288","473522","0.0-5.0-5.0-0.40","69309f7da595fb656eebdeb1","not_provided","desktop","0","0","0","","","","","","working_memory","","null","<div class=""fixation"">+</div>","null","","","","","","","","","","","","","","","","",""
"html-keyboard-response","289","473725","0.0-5.0-5.0-1.40","69309f7da595fb656eebdeb1","not_provided","desktop","0","0","0","","","","","","working_memory","","null","<img class='c' src=images/squares/green.png><img class='a' src=images/squares/brown.png><img class='e' src=images/squares/magenta.png><img class='d' src=images/squares/orange.png><img class='g' src=images/squares/yellow.png><img class='h' src=images/squares/red.png><img class='k' src=images/squares/blue.png><img class='j' src=images/squares/cyan.png><div class=""fixation"">+</div>","null","","","memory","exp","40","","","","","","","","","","","",""
"html-keyboard-response","290","474628","0.0-5.0-5.0-2.40","69309f7da595fb656eebdeb1","not_provided","desktop","0","0","0","","","","","","working_memory","","null","<div class=""fixation"">+</div>","null","","","","","","","","","","","","","","","","",""
"html-keyboard-response","291","476147","0.0-5.0-5.0-3.40","69309f7da595fb656eebdeb1","not_provided","desktop","0","0","0","","","","","","working_memory","","1517","<img class='h' src=images/squares/black.png><div class=""fixation"">+</div>","s","","","test_squares","exp","40","8","s","true","ks","d","","","","","","",""
"html-keyboard-response","292","476649","0.0-5.0-5.0-4.40","69309f7da595fb656eebdeb1","not_provided","desktop","0","0","0","","","","","","working_memory","","null","<div class=""fixation"">Correct</div>","null","","","","","","","","","","","","","","","","",""
"html-keyboard-response","293","477651","0.0-5.0-5.0-0.41","69309f7da595fb656eebdeb1","not_provided","desktop","0","0","0","","","","","","working_memory","","null","<div class=""fixation"">+</div>","null","","","","","","","","","","","","","","","","",""
"html-keyboard-response","294","477854","0.0-5.0-5.0-1.41","69309f7da595fb656eebdeb1","not_provided","desktop","0","0","0","","","","","","working_memory","","null","<img class='c' src=images/squares/magenta.png><img class='a' src=images/squares/blue.png><img class='e' src=images/squares/orange.png><img class='f' src=images/squares/black.png><img class='i' src=images/squares/cyan.png><img class='h' src=images/squares/brown.png><img class='l' src=images/squares/yellow.png><img class='k' src=images/squares/red.png><div class=""fixation"">+</div>","null","","","memory","exp","41","","","","","","","","","","","",""
"html-keyboard-response","295","478756","0.0-5.0-5.0-2.41","69309f7da595fb656eebdeb1","not_provided","desktop","0","0","0","","","","","","working_memory","","null","<div class=""fixation"">+</div>","null","","","","","","","","","","","","","","","","",""
"html-keyboard-response","296","480006","0.0-5.0-5.0-3.41","69309f7da595fb656eebdeb1","not_provided","desktop","0","0","0","","","","","","working_memory","","1247","<img class='l' src=images/squares/green.png><div class=""fixation"">+</div>","s","","","test_squares","exp","41","8","s","true","ks","d","","","","","","",""
"html-keyboard-response","297","480507","0.0-5.0-5.0-4.41","69309f7da595fb656eebdeb1","not_provided","desktop","0","0","0","","","","","","working_memory","","null","<div class=""fixation"">Correct</div>","null","","","","","","","","","","","","","","","","",""
"html-keyboard-response","298","481510","0.0-5.0-5.0-0.42","69309f7da595fb656eebdeb1","not_provided","desktop","0","0","0","","","","","","working_memory","","null","<div class=""fixation"">+</div>","null","","","","","","","","","","","","","","","","",""
"html-keyboard-response","299","481713","0.0-5.0-5.0-1.42","69309f7da595fb656eebdeb1","not_provided","desktop","0","0","0","","","","","","working_memory","","null","<img class='b' src=images/squares/brown.png><img class='e' src=images/squares/magenta.png><img class='h' src=images/squares/blue.png><img class='k' src=images/squares/black.png><div class=""fixation"">+</div>","null","","","memory","exp","42","","","","","","","","","","","",""
"html-keyboard-response","300","482615","0.0-5.0-5.0-2.42","69309f7da595fb656eebdeb1","not_provided","desktop","0","0","0","","","","","","working_memory","","null","<div class=""fixation"">+</div>","null","","","","","","","","","","","","","","","","",""
"html-keyboard-response","301","483668","0.0-5.0-5.0-3.42","69309f7da595fb656eebdeb1","not_provided","desktop","0","0","0","","","","","","working_memory","","1051","<img class='e' src=images/squares/cyan.png><div class=""fixation"">+</div>","s","","","test_squares","exp","42","4","s","true","ks","d","","","","","","",""
"html-keyboard-response","302","484170","0.0-5.0-5.0-4.42","69309f7da595fb656eebdeb1","not_provided","desktop","0","0","0","","","","","","working_memory","","null","<div class=""fixation"">Correct</div>","null","","","","","","","","","","","","","","","","",""
