"trial_type","trial_index","time_elapsed","internal_node_id","subject_id","study_id","device_type","blur_count","fullscreen_exit_count","failed_attention_checks","success","timeout","failed_images","failed_audio","failed_video","phase","value","rt","stimulus","response","view_history","question_order","trial_name","block_type","trial_num","set_size","correct_response","accuracy","mapping","condition","prompt","flipped","attention","expected_answer","category","question_index","task"
"pavlovia","0","1825","0.0-0.0","612cdaa2042b4d9b9fb16acd","not_provided","desktop","0","0","0","","","","","","","","","","","","","","","","","","","","","","","","","","",""
"preload","1","2716","0.0-2.0","612cdaa2042b4d9b9fb16acd","not_provided","desktop","0","0","0","true","false","[]","[]","[]","","","","","","","","","","","","","","","","","","","","","",""
"html-keyboard-response","2","15207","0.0-3.0-0.0","612cdaa2042b4d9b9fb16acd","not_provided","desktop","0","0","0","","","","","","captcha","","","","","","","","","","","","","","","","","","","","",""
"fullscreen","3","36518","0.0-4.0","612cdaa2042b4d9b9fb16acd","not_provided","desktop","0","0","0","true","","","","","setup","","","","","","","","","","","","","","","","","","","","",""
"call-function","4","36519","0.0-5.0-0.0","612cdaa2042b4d9b9fb16acd","not_provided","desktop","0","0","0","","","","","","working_memory","","","","","","","","","","","","","","","","","","","","",""
"html-keyboard-response","5","132955","0.0-5.0-1.0","612cdaa2042b4d9b9fb16acd","not_provided","desktop","0","0","0","","","","","","working_memory","","96434","<div style=""text-align:center;font-family:sans-serif;""><p>Welcome to the luck game experiment!</p><p>This two-day experiment takes part in a study aimed at developing better clinical treatments.</p><p>We appreciate your participation and require your full concentration.</p><br><p>This is a two-day study. Payment (£6/hour) is only given upon completing both parts today and tomorrow.</p><p>You must finish the second part for compensation. After today, you'll receive an invitation for tomorrow's session.</p><p>Please ensure you can attend both sessions before proceeding. Otherwise, you may exit now.</p><p>If you have any questions, please contact us via prolific.</p><br><p>Please stay attentive and in fullscreen mode to ensure payment.</p><p>Thank you for participating!</p><br><p id=""continue-prompt"" style=""visibility:hidden;""><b>Press any key to continue.</b></p></div>"," ","","","","","","","","","","","","","","","","",""
"instructions","6","193940","0.0-5.0-2.0-0.0","612cdaa2042b4d9b9fb16acd","not_provided","desktop","0","0","0","","","","","","working_memory","","60983","","","[{""page_index"":0,""viewing_time"":3834},{""page_index"":1,""viewing_time"":1501},{""page_index"":2,""viewing_time"":7686},{""page_index"":3,""viewing_time"":4167},{""page_index"":4,""viewing_time"":9600},{""page_index"":5,""viewing_time"":7098},{""page_index"":6,""viewing_time"":18211},{""page_index"":7,""viewing_time"":4859},{""page_index"":8,""viewing_time"":4028}]","","","","","","","","","","","","","","","",""
"survey-multi-choice","7","255493","0.0-5.0-2.0-1.0","612cdaa2042b4d9b9fb16acd","not_provided","desktop","0","0","0","","","","","","working_memory","","61548","","{""set_size"":""4 or 8"",""steps"":""True"",""choose_square"":""Press the 's' or 'k' key."",""remember"":""The color and location of the single 'test' square"",""task"":""To tell if the 'test' square is in the same color as the square previously appearing in this location""}","","[0,1,2,3,4]","test_squares_quiz","","","","","","","","","","","","","",""
"html-button-response","8","261961","0.0-5.0-2.0-2.0-0.0","612cdaa2042b4d9b9fb16acd","not_provided","desktop","0","0","0","","","","","","working_memory","","6465","<p>Sorry, you made a mistake on the quiz.<br>Let's go back to the instructions &mdash; please read carefully before submitting again.<br>Thank you!</p>","0","","","","","","","","","","","","","","","","",""
"instructions","9","389971","0.0-5.0-2.1-0.1","612cdaa2042b4d9b9fb16acd","not_provided","desktop","0","0","0","","","","","","working_memory","","128009","","","[{""page_index"":0,""viewing_time"":66081},{""page_index"":1,""viewing_time"":1471},{""page_index"":2,""viewing_time"":3586},{""page_index"":3,""viewing_time"":1786},{""page_index"":4,""viewing_time"":9472},{""page_index"":5,""viewing_time"":4512},{""page_index"":6,""viewing_time"":13036},{""page_index"":7,""viewing_time"":4759},{""page_index"":8,""viewing_time"":23305}]","","","","","","","","","","","","","","","",""
"survey-multi-choice","10","583036","0.0-5.0-2.1-1.1","612cdaa2042b4d9b9fb16acd","not_provided","desktop","0","0","0","","","","","","working_memory","","193062","","{""set_size"":""4 or 8"",""steps"":""True"",""choose_square"":""Press the 's' or 'k' key."",""remember"":""The colors and locations of the 'memory' squares"",""task"":""To tell if the 'test' square is in the same color as the square previously appearing in this location""}","","[0,1,2,3,4]","test_squares_quiz","","","","","","","","","","","","","",""
"html-keyboard-response","11","603736","0.0-5.0-3.0-0.0","612cdaa2042b4d9b9fb16acd","not_provided","desktop","0","0","0","","","","","","working_memory","","20698","<p>We will now start some practice trials.<br><b>The practice trials will also include some trials in which you will need to remember only one square to make sure you understood the instructions.</b><br>You may already want to be ready with your fingers on '<b>s</b>' and '<b>k</b>'.<br><img class=""wm-example-img"" src=""images/examples/keyboard.png""><br><b style=""font-size:1.2em;"">&lsquo;S&rsquo; = SAME &nbsp;&nbsp;&nbsp; &lsquo;K&rsquo; = DIFFERENT</b><br><br><u>Please try to be as accurate as possible.</u><br><br><b>Press any key to begin</b></p>"," ","","","","","","","","","","","","","","","","",""
"html-keyboard-response","12","605738","0.0-5.0-3.0-1.0-0.0","612cdaa2042b4d9b9fb16acd","not_provided","desktop","0","0","0","","","","","","working_memory","","null","<div class=""fixation"">+</div>","null","","","","","","","","","","","","","","","","",""
"html-keyboard-response","13","605941","0.0-5.0-3.0-1.0-1.0","612cdaa2042b4d9b9fb16acd","not_provided","desktop","0","0","0","","","","","","working_memory","","null","<img class='upper2' src=images/squares/brown.png><div class=""fixation"">+</div>","null","","","memory","practice","0","1","","","","","","","","","","",""
"html-keyboard-response","14","606842","0.0-5.0-3.0-1.0-2.0","612cdaa2042b4d9b9fb16acd","not_provided","desktop","0","0","0","","","","","","working_memory","","null","<div class=""fixation"">+</div>","null","","","","","","","","","","","","","","","","",""
"html-keyboard-response","15","608778","0.0-5.0-3.0-1.0-3.0","612cdaa2042b4d9b9fb16acd","not_provided","desktop","0","0","0","","","","","","working_memory","","1935","<img class='upper2' src=images/squares/orange.png><div class=""fixation"">+</div>","k","","","test","practice","0","1","k","true","","","","","","","","",""
"html-keyboard-response","16","609280","0.0-5.0-3.0-1.0-4.0","612cdaa2042b4d9b9fb16acd","not_provided","desktop","0","0","0","","","","","","working_memory","","null","<div class=""fixation"">Correct</div>","null","","","","","","","","","","","","","","","","",""
"html-keyboard-response","17","610281","0.0-5.0-3.0-1.0-0.1","612cdaa2042b4d9b9fb16acd","not_provided","desktop","0","0","0","","","","","","working_memory","","null","<div class=""fixation"">+</div>","null","","","","","","","","","","","","","","","","",""
"html-keyboard-response","18","610483","0.0-5.0-3.0-1.0-1.1","612cdaa2042b4d9b9fb16acd","not_provided","desktop","0","0","0","","","","","","working_memory","","null","<img class='lower1' src=images/squares/green.png><div class=""fixation"">+</div>","null","","","memory","practice","1","1","","","","","","","","","","",""
"html-keyboard-response","19","611384","0.0-5.0-3.0-1.0-2.1","612cdaa2042b4d9b9fb16acd","not_provided","desktop","0","0","0","","","","","","working_memory","","null","<div class=""fixation"">+</div>","null","","","","","","","","","","","","","","","","",""
"html-keyboard-response","20","611985","0.0-5.0-3.0-1.0-3.1","612cdaa2042b4d9b9fb16acd","not_provided","desktop","0","0","0","","","","","","working_memory","","600","<img class='lower1' src=images/squares/black.png><div class=""fixation"">+</div>","k","","","test","practice","1","1","k","true","","","","","","","","",""
"html-keyboard-response","21","612486","0.0-5.0-3.0-1.0-4.1","612cdaa2042b4d9b9fb16acd","not_provided","desktop","0","0","0","","","","","","working_memory","","null","<div class=""fixation"">Correct</div>","null","","","","","","","","","","","","","","","","",""
"html-keyboard-response","22","613487","0.0-5.0-3.0-1.0-0.2","612cdaa2042b4d9b9fb16acd","not_provided","desktop","0","0","0","","","","","","working_memory","","null","<div class=""fixation"">+</div>","null","","","","","","","","","","","","","","","","",""
"html-keyboard-response","23","613689","0.0-5.0-3.0-1.0-1.2","612cdaa2042b4d9b9fb16acd","not_provided","desktop","0","0","0","","","","","","working_memory","","null","<img class='a' src=images/squares/orange.png><img class='d' src=images/squares/cyan.png><img class='i' src=images/squares/brown.png><img class='j' src=images/squares/magenta.png><div class=""fixation"">+</div>","null","","","memory","practice","2","4","","","","","","","","","","",""
"html-keyboard-response","24","614590","0.0-5.0-3.0-1.0-2.2","612cdaa2042b4d9b9fb16acd","not_provided","desktop","0","0","0","","","","","","working_memory","","null","<div class=""fixation"">+</div>","null","","","","","","","","","","","","","","","","",""
"html-keyboard-response","25","615311","0.0-5.0-3.0-1.0-3.2","612cdaa2042b4d9b9fb16acd","not_provided","desktop","0","0","0","","","","","","working_memory","","720","<img class='j' src=images/squares/red.png><div class=""fixation"">+</div>","k","","","test","practice","2","4","k","true","","","","","","","","",""
"html-keyboard-response","26","615812","0.0-5.0-3.0-1.0-4.2","612cdaa2042b4d9b9fb16acd","not_provided","desktop","0","0","0","","","","","","working_memory","","null","<div class=""fixation"">Correct</div>","null","","","","","","","","","","","","","","","","",""
"html-keyboard-response","27","616813","0.0-5.0-3.0-1.0-0.3","612cdaa2042b4d9b9fb16acd","not_provided","desktop","0","0","0","","","","","","working_memory","","null","<div class=""fixation"">+</div>","null","","","","","","","","","","","","","","","","",""
"html-keyboard-response","28","617015","0.0-5.0-3.0-1.0-1.3","612cdaa2042b4d9b9fb16acd","not_provided","desktop","0","0","0","","","","","","working_memory","","null","<img class='c' src=images/squares/black.png><img class='f' src=images/squares/yellow.png><img class='g' src=images/squares/blue.png><img class='k' src=images/squares/green.png><div class=""fixation"">+</div>","null","","","memory","practice","3","4","","","","","","","","","","",""
"html-keyboard-response","29","617916","0.0-5.0-3.0-1.0-2.3","612cdaa2042b4d9b9fb16acd","not_provided","desktop","0","0","0","","","","","","working_memory","","null","<div class=""fixation"">+</div>","null","","","","","","","","","","","","","","","","",""
"html-keyboard-response","30","618900","0.0-5.0-3.0-1.0-3.3","612cdaa2042b4d9b9fb16acd","not_provided","desktop","0","0","0","","","","","","working_memory","","983","<img class='f' src=images/squares/yellow.png><div class=""fixation"">+</div>","s","","","test","practice","3","4","s","true","","","","","","","","",""
"html-keyboard-response","31","619401","0.0-5.0-3.0-1.0-4.3","612cdaa2042b4d9b9fb16acd","not_provided","desktop","0","0","0","","","","","","working_memory","","null","<div class=""fixation"">Correct</div>","null","","","","","","","","","","","","","","","","",""
"html-keyboard-response","32","620403","0.0-5.0-3.0-1.0-0.4","612cdaa2042b4d9b9fb16acd","not_provided","desktop","0","0","0","","","","","","working_memory","","null","<div class=""fixation"">+</div>","null","","","","","","","","","","","","","","","","",""
"html-keyboard-response","33","620604","0.0-5.0-3.0-1.0-1.4","612cdaa2042b4d9b9fb16acd","not_provided","desktop","0","0","0","","","","","","working_memory","","null","<img class='a' src=images/squares/black.png><img class='f' src=images/squares/orange.png><img class='i' src=images/squares/cyan.png><img class='k' src=images/squares/brown.png><div class=""fixation"">+</div>","null","","","memory","practice","4","4","","","","","","","","","","",""
"html-keyboard-response","34","621505","0.0-5.0-3.0-1.0-2.4","612cdaa2042b4d9b9fb16acd","not_provided","desktop","0","0","0","","","","","","working_memory","","null","<div class=""fixation"">+</div>","null","","","","","","","","","","","","","","","","",""
"html-keyboard-response","35","622360","0.0-5.0-3.0-1.0-3.4","612cdaa2042b4d9b9fb16acd","not_provided","desktop","0","0","0","","","","","","working_memory","","853","<img class='f' src=images/squares/yellow.png><div class=""fixation"">+</div>","k","","","test","practice","4","4","k","true","","","","","","","","",""
"html-keyboard-response","36","622861","0.0-5.0-3.0-1.0-4.4","612cdaa2042b4d9b9fb16acd","not_provided","desktop","0","0","0","","","","","","working_memory","","null","<div class=""fixation"">Correct</div>","null","","","","","","","","","","","","","","","","",""
"html-keyboard-response","37","623862","0.0-5.0-3.0-1.0-0.5","612cdaa2042b4d9b9fb16acd","not_provided","desktop","0","0","0","","","","","","working_memory","","null","<div class=""fixation"">+</div>","null","","","","","","","","","","","","","","","","",""
"html-keyboard-response","38","624064","0.0-5.0-3.0-1.0-1.5","612cdaa2042b4d9b9fb16acd","not_provided","desktop","0","0","0","","","","","","working_memory","","null","<img class='a' src=images/squares/brown.png><img class='c' src=images/squares/yellow.png><img class='e' src=images/squares/red.png><img class='f' src=images/squares/green.png><img class='h' src=images/squares/black.png><img class='g' src=images/squares/orange.png><img class='k' src=images/squares/magenta.png><img class='l' src=images/squares/cyan.png><div class=""fixation"">+</div>","null","","","memory","practice","5","8","","","","","","","","","","",""
"html-keyboard-response","39","624966","0.0-5.0-3.0-1.0-2.5","612cdaa2042b4d9b9fb16acd","not_provided","desktop","0","0","0","","","","","","working_memory","","null","<div class=""fixation"">+</div>","null","","","","","","","","","","","","","","","","",""
"html-keyboard-response","40","625624","0.0-5.0-3.0-1.0-3.5","612cdaa2042b4d9b9fb16acd","not_provided","desktop","0","0","0","","","","","","working_memory","","657","<img class='k' src=images/squares/magenta.png><div class=""fixation"">+</div>","k","","","test","practice","5","8","s","false","","","","","","","","",""
"html-keyboard-response","41","626125","0.0-5.0-3.0-1.0-4.5","612cdaa2042b4d9b9fb16acd","not_provided","desktop","0","0","0","","","","","","working_memory","","null","<div class=""fixation"">Incorrect</div>","null","","","","","","","","","","","","","","","","",""
"html-keyboard-response","42","627126","0.0-5.0-3.0-1.0-0.6","612cdaa2042b4d9b9fb16acd","not_provided","desktop","0","0","0","","","","","","working_memory","","null","<div class=""fixation"">+</div>","null","","","","","","","","","","","","","","","","",""
"html-keyboard-response","43","627328","0.0-5.0-3.0-1.0-1.6","612cdaa2042b4d9b9fb16acd","not_provided","desktop","0","0","0","","","","","","working_memory","","null","<img class='a' src=images/squares/black.png><img class='f' src=images/squares/blue.png><img class='g' src=images/squares/yellow.png><img class='j' src=images/squares/orange.png><div class=""fixation"">+</div>","null","","","memory","practice","6","4","","","","","","","","","","",""
"html-keyboard-response","44","628229","0.0-5.0-3.0-1.0-2.6","612cdaa2042b4d9b9fb16acd","not_provided","desktop","0","0","0","","","","","","working_memory","","null","<div class=""fixation"">+</div>","null","","","","","","","","","","","","","","","","",""
"html-keyboard-response","45","629092","0.0-5.0-3.0-1.0-3.6","612cdaa2042b4d9b9fb16acd","not_provided","desktop","0","0","0","","","","","","working_memory","","862","<img class='j' src=images/squares/orange.png><div class=""fixation"">+</div>","s","","","test","practice","6","4","s","true","","","","","","","","",""
"html-keyboard-response","46","629594","0.0-5.0-3.0-1.0-4.6","612cdaa2042b4d9b9fb16acd","not_provided","desktop","0","0","0","","","","","","working_memory","","null","<div class=""fixation"">Correct</div>","null","","","","","","","","","","","","","","","","",""
"html-keyboard-response","47","630595","0.0-5.0-3.0-1.0-0.7","612cdaa2042b4d9b9fb16acd","not_provided","desktop","0","0","0","","","","","","working_memory","","null","<div class=""fixation"">+</div>","null","","","","","","","","","","","","","","","","",""
"html-keyboard-response","48","630796","0.0-5.0-3.0-1.0-1.7","612cdaa2042b4d9b9fb16acd","not_provided","desktop","0","0","0","","","","","","working_memory","","null","<img class='lower2' src=images/squares/red.png><div class=""fixation"">+</div>","null","","","memory","practice","7","1","","","","","","","","","","",""
"html-keyboard-response","49","631698","0.0-5.0-3.0-1.0-2.7","612cdaa2042b4d9b9fb16acd","not_provided","desktop","0","0","0","","","","","","working_memory","","null","<div class=""fixation"">+</div>","null","","","","","","","","","","","","","","","","",""
"html-keyboard-response","50","632679","0.0-5.0-3.0-1.0-3.7","612cdaa2042b4d9b9fb16acd","not_provided","desktop","0","0","0","","","","","","working_memory","","981","<img class='lower2' src=images/squares/red.png><div class=""fixation"">+</div>","s","","","test","practice","7","1","s","true","","","","","","","","",""
"html-keyboard-response","51","633181","0.0-5.0-3.0-1.0-4.7","612cdaa2042b4d9b9fb16acd","not_provided","desktop","0","0","0","","","","","","working_memory","","null","<div class=""fixation"">Correct</div>","null","","","","","","","","","","","","","","","","",""
"html-keyboard-response","52","634182","0.0-5.0-3.0-1.0-0.8","612cdaa2042b4d9b9fb16acd","not_provided","desktop","0","0","0","","","","","","working_memory","","null","<div class=""fixation"">+</div>","null","","","","","","","","","","","","","","","","",""
"html-keyboard-response","53","634384","0.0-5.0-3.0-1.0-1.8","612cdaa2042b4d9b9fb16acd","not_provided","desktop","0","0","0","","","","","","working_memory","","null","<img class='a' src=images/squares/green.png><img class='c' src=images/squares/black.png><img class='d' src=images/squares/red.png><img class='f' src=images/squares/brown.png><img class='g' src=images/squares/magenta.png><img class='h' src=images/squares/orange.png><img class='k' src=images/squares/yellow.png><img class='j' src=images/squares/cyan.png><div class=""fixation"">+</div>","null","","","memory","practice","8","8","","","","","","","","","","",""
"html-keyboard-response","54","635285","0.0-5.0-3.0-1.0-2.8","612cdaa2042b4d9b9fb16acd","not_provided","desktop","0","0","0","","","","","","working_memory","","null","<div class=""fixation"">+</div>","null","","","","","","","","","","","","","","","","",""
"html-keyboard-response","55","636112","0.0-5.0-3.0-1.0-3.8","612cdaa2042b4d9b9fb16acd","not_provided","desktop","0","0","0","","","","","","working_memory","","825","<img class='a' src=images/squares/blue.png><div class=""fixation"">+</div>","k","","","test","practice","8","8","k","true","","","","","","","","",""
"html-keyboard-response","56","636613","0.0-5.0-3.0-1.0-4.8","612cdaa2042b4d9b9fb16acd","not_provided","desktop","0","0","0","","","","","","working_memory","","null","<div class=""fixation"">Correct</div>","null","","","","","","","","","","","","","","","","",""
"html-keyboard-response","57","637614","0.0-5.0-3.0-1.0-0.9","612cdaa2042b4d9b9fb16acd","not_provided","desktop","0","0","0","","","","","","working_memory","","null","<div class=""fixation"">+</div>","null","","","","","","","","","","","","","","","","",""
"html-keyboard-response","58","637816","0.0-5.0-3.0-1.0-1.9","612cdaa2042b4d9b9fb16acd","not_provided","desktop","0","0","0","","","","","","working_memory","","null","<img class='lower1' src=images/squares/yellow.png><div class=""fixation"">+</div>","null","","","memory","practice","9","1","","","","","","","","","","",""
"html-keyboard-response","59","638717","0.0-5.0-3.0-1.0-2.9","612cdaa2042b4d9b9fb16acd","not_provided","desktop","0","0","0","","","","","","working_memory","","null","<div class=""fixation"">+</div>","null","","","","","","","","","","","","","","","","",""
"html-keyboard-response","60","639205","0.0-5.0-3.0-1.0-3.9","612cdaa2042b4d9b9fb16acd","not_provided","desktop","0","0","0","","","","","","working_memory","","487","<img class='lower1' src=images/squares/yellow.png><div class=""fixation"">+</div>","s","","","test","practice","9","1","s","true","","","","","","","","",""
"html-keyboard-response","61","639706","0.0-5.0-3.0-1.0-4.9","612cdaa2042b4d9b9fb16acd","not_provided","desktop","0","0","0","","","","","","working_memory","","null","<div class=""fixation"">Correct</div>","null","","","","","","","","","","","","","","","","",""
"html-keyboard-response","62","640707","0.0-5.0-3.0-1.0-0.10","612cdaa2042b4d9b9fb16acd","not_provided","desktop","0","0","0","","","","","","working_memory","","null","<div class=""fixation"">+</div>","null","","","","","","","","","","","","","","","","",""
"html-keyboard-response","63","640909","0.0-5.0-3.0-1.0-1.10","612cdaa2042b4d9b9fb16acd","not_provided","desktop","0","0","0","","","","","","working_memory","","null","<img class='b' src=images/squares/green.png><img class='f' src=images/squares/magenta.png><img class='h' src=images/squares/blue.png><img class='l' src=images/squares/brown.png><div class=""fixation"">+</div>","null","","","memory","practice","10","4","","","","","","","","","","",""
"html-keyboard-response","64","641810","0.0-5.0-3.0-1.0-2.10","612cdaa2042b4d9b9fb16acd","not_provided","desktop","0","0","0","","","","","","working_memory","","null","<div class=""fixation"">+</div>","null","","","","","","","","","","","","","","","","",""
"html-keyboard-response","65","642625","0.0-5.0-3.0-1.0-3.10","612cdaa2042b4d9b9fb16acd","not_provided","desktop","0","0","0","","","","","","working_memory","","814","<img class='l' src=images/squares/yellow.png><div class=""fixation"">+</div>","k","","","test","practice","10","4","k","true","","","","","","","","",""
"html-keyboard-response","66","643127","0.0-5.0-3.0-1.0-4.10","612cdaa2042b4d9b9fb16acd","not_provided","desktop","0","0","0","","","","","","working_memory","","null","<div class=""fixation"">Correct</div>","null","","","","","","","","","","","","","","","","",""
"html-keyboard-response","67","644128","0.0-5.0-3.0-1.0-0.11","612cdaa2042b4d9b9fb16acd","not_provided","desktop","0","0","0","","","","","","working_memory","","null","<div class=""fixation"">+</div>","null","","","","","","","","","","","","","","","","",""
"html-keyboard-response","68","644330","0.0-5.0-3.0-1.0-1.11","612cdaa2042b4d9b9fb16acd","not_provided","desktop","0","0","0","","","","","","working_memory","","null","<img class='b' src=images/squares/green.png><img class='c' src=images/squares/red.png><img class='f' src=images/squares/magenta.png><img class='e' src=images/squares/brown.png><img class='h' src=images/squares/blue.png><img class='i' src=images/squares/orange.png><img class='l' src=images/squares/yellow.png><img class='k' src=images/squares/cyan.png><div class=""fixation"">+</div>","null","","","memory","practice","11","8","","","","","","","","","","",""
"html-keyboard-response","69","645231","0.0-5.0-3.0-1.0-2.11","612cdaa2042b4d9b9fb16acd","not_provided","desktop","0","0","0","","","","","","working_memory","","null","<div class=""fixation"">+</div>","null","","","","","","","","","","","","","","","","",""
"html-keyboard-response","70","645783","0.0-5.0-3.0-1.0-3.11","612cdaa2042b4d9b9fb16acd","not_provided","desktop","0","0","0","","","","","","working_memory","","551","<img class='b' src=images/squares/black.png><div class=""fixation"">+</div>","k","","","test","practice","11","8","k","true","","","","","","","","",""
"html-keyboard-response","71","646285","0.0-5.0-3.0-1.0-4.11","612cdaa2042b4d9b9fb16acd","not_provided","desktop","0","0","0","","","","","","working_memory","","null","<div class=""fixation"">Correct</div>","null","","","","","","","","","","","","","","","","",""
"html-keyboard-response","72","647286","0.0-5.0-3.0-1.0-0.12","612cdaa2042b4d9b9fb16acd","not_provided","desktop","0","0","0","","","","","","working_memory","","null","<div class=""fixation"">+</div>","null","","","","","","","","","","","","","","","","",""
"html-keyboard-response","73","647487","0.0-5.0-3.0-1.0-1.12","612cdaa2042b4d9b9fb16acd","not_provided","desktop","0","0","0","","","","","","working_memory","","null","<img class='upper3' src=images/squares/black.png><div class=""fixation"">+</div>","null","","","memory","practice","12","1","","","","","","","","","","",""
"html-keyboard-response","74","648388","0.0-5.0-3.0-1.0-2.12","612cdaa2042b4d9b9fb16acd","not_provided","desktop","0","0","0","","","","","","working_memory","","null","<div class=""fixation"">+</div>","null","","","","","","","","","","","","","","","","",""
"html-keyboard-response","75","648864","0.0-5.0-3.0-1.0-3.12","612cdaa2042b4d9b9fb16acd","not_provided","desktop","0","0","0","","","","","","working_memory","","475","<img class='upper3' src=images/squares/magenta.png><div class=""fixation"">+</div>","k","","","test","practice","12","1","k","true","","","","","","","","",""
"html-keyboard-response","76","649366","0.0-5.0-3.0-1.0-4.12","612cdaa2042b4d9b9fb16acd","not_provided","desktop","0","0","0","","","","","","working_memory","","null","<div class=""fixation"">Correct</div>","null","","","","","","","","","","","","","","","","",""
"html-keyboard-response","77","650367","0.0-5.0-3.0-1.0-0.13","612cdaa2042b4d9b9fb16acd","not_provided","desktop","0","0","0","","","","","","working_memory","","null","<div class=""fixation"">+</div>","null","","","","","","","","","","","","","","","","",""
"html-keyboard-response","78","650568","0.0-5.0-3.0-1.0-1.13","612cdaa2042b4d9b9fb16acd","not_provided","desktop","0","0","0","","","","","","working_memory","","null","<img class='upper1' src=images/squares/black.png><div class=""fixation"">+</div>","null","","","memory","practice","13","1","","","","","","","","","","",""
"html-keyboard-response","79","651469","0.0-5.0-3.0-1.0-2.13","612cdaa2042b4d9b9fb16acd","not_provided","desktop","0","0","0","","","","","","working_memory","","null","<div class=""fixation"">+</div>","null","","","","","","","","","","","","","","","","",""
"html-keyboard-response","80","651891","0.0-5.0-3.0-1.0-3.13","612cdaa2042b4d9b9fb16acd","not_provided","desktop","0","0","0","","","","","","working_memory","","420","<img class='upper1' src=images/squares/black.png><div class=""fixation"">+</div>","s","","","test","practice","13","1","s","true","","","","","","","","",""
"html-keyboard-response","81","652392","0.0-5.0-3.0-1.0-4.13","612cdaa2042b4d9b9fb16acd","not_provided","desktop","0","0","0","","","","","","working_memory","","null","<div class=""fixation"">Correct</div>","null","","","","","","","","","","","","","","","","",""
"html-keyboard-response","82","653393","0.0-5.0-3.0-1.0-0.14","612cdaa2042b4d9b9fb16acd","not_provided","desktop","0","0","0","","","","","","working_memory","","null","<div class=""fixation"">+</div>","null","","","","","","","","","","","","","","","","",""
"html-keyboard-response","83","653595","0.0-5.0-3.0-1.0-1.14","612cdaa2042b4d9b9fb16acd","not_provided","desktop","0","0","0","","","","","","working_memory","","null","<img class='lower2' src=images/squares/green.png><div class=""fixation"">+</div>","null","","","memory","practice","14","1","","","","","","","","","","",""
"html-keyboard-response","84","654496","0.0-5.0-3.0-1.0-2.14","612cdaa2042b4d9b9fb16acd","not_provided","desktop","0","0","0","","","","","","working_memory","","null","<div class=""fixation"">+</div>","null","","","","","","","","","","","","","","","","",""
"html-keyboard-response","85","654929","0.0-5.0-3.0-1.0-3.14","612cdaa2042b4d9b9fb16acd","not_provided","desktop","0","0","0","","","","","","working_memory","","432","<img class='lower2' src=images/squares/green.png><div class=""fixation"">+</div>","s","","","test","practice","14","1","s","true","","","","","","","","",""
"html-keyboard-response","86","655431","0.0-5.0-3.0-1.0-4.14","612cdaa2042b4d9b9fb16acd","not_provided","desktop","0","0","0","","","","","","working_memory","","null","<div class=""fixation"">Correct</div>","null","","","","","","","","","","","","","","","","",""
"html-keyboard-response","87","662895","0.0-5.0-4.0","612cdaa2042b4d9b9fb16acd","not_provided","desktop","0","0","0","","","","","","working_memory","","7462","<div style=""text-align:center;font-family:sans-serif;""><p>Good job! You have finished the practice.</p><p>We will now start the real experiment.</p><p>Please try to be as accurate as possible.</p><p><b><u>Note: random guessing may risk your payment.</u></b></p><br><p><b>Press any key to begin.</b></p></div>"," ","","","","","","","","","","","","","","","","",""
"html-keyboard-response","88","663896","0.0-5.0-5.0-0.0","612cdaa2042b4d9b9fb16acd","not_provided","desktop","0","0","0","","","","","","working_memory","","null","<div class=""fixation"">+</div>","null","","","","","","","","","","","","","","","","",""
"html-keyboard-response","89","664099","0.0-5.0-5.0-1.0","612cdaa2042b4d9b9fb16acd","not_provided","desktop","0","0","0","","","","","","working_memory","","null","<img class='a' src=images/squares/orange.png><img class='c' src=images/squares/blue.png><img class='d' src=images/squares/cyan.png><img class='e' src=images/squares/red.png><img class='i' src=images/squares/yellow.png><img class='g' src=images/squares/green.png><img class='l' src=images/squares/brown.png><img class='j' src=images/squares/black.png><div class=""fixation"">+</div>","null","","","memory","exp","0","","","","","","","","","","","",""
"html-keyboard-response","90","665000","0.0-5.0-5.0-2.0","612cdaa2042b4d9b9fb16acd","not_provided","desktop","0","0","0","","","","","","working_memory","","null","<div class=""fixation"">+</div>","null","","","","","","","","","","","","","","","","",""
"html-keyboard-response","91","665771","0.0-5.0-5.0-3.0","612cdaa2042b4d9b9fb16acd","not_provided","desktop","0","0","0","","","","","","working_memory","","770","<img class='e' src=images/squares/red.png><div class=""fixation"">+</div>","k","","","test_squares","exp","0","8","s","false","sk","s","","","","","","",""
"html-keyboard-response","92","666272","0.0-5.0-5.0-4.0","612cdaa2042b4d9b9fb16acd","not_provided","desktop","0","0","0","","","","","","working_memory","","null","<div class=""fixation"">Incorrect</div>","null","","","","","","","","","","","","","","","","",""
"html-keyboard-response","93","667273","0.0-5.0-5.0-0.1","612cdaa2042b4d9b9fb16acd","not_provided","desktop","0","0","0","","","","","","working_memory","","null","<div class=""fixation"">+</div>","null","","","","","","","","","","","","","","","","",""
"html-keyboard-response","94","667475","0.0-5.0-5.0-1.1","612cdaa2042b4d9b9fb16acd","not_provided","desktop","0","0","0","","","","","","working_memory","","null","<img class='a' src=images/squares/orange.png><img class='b' src=images/squares/red.png><img class='d' src=images/squares/green.png><img class='f' src=images/squares/blue.png><img class='h' src=images/squares/black.png><img class='g' src=images/squares/magenta.png><img class='k' src=images/squares/brown.png><img class='j' src=images/squares/cyan.png><div class=""fixation"">+</div>","null","","","memory","exp","1","","","","","","","","","","","",""
"html-keyboard-response","95","668377","0.0-5.0-5.0-2.1","612cdaa2042b4d9b9fb16acd","not_provided","desktop","0","0","0","","","","","","working_memory","","null","<div class=""fixation"">+</div>","null","","","","","","","","","","","","","","","","",""
"html-keyboard-response","96","669078","0.0-5.0-5.0-3.1","612cdaa2042b4d9b9fb16acd","not_provided","desktop","0","0","0","","","","","","working_memory","","700","<img class='k' src=images/squares/yellow.png><div class=""fixation"">+</div>","k","","","test_squares","exp","1","8","k","true","sk","d","","","","","","",""
"html-keyboard-response","97","669579","0.0-5.0-5.0-4.1","612cdaa2042b4d9b9fb16acd","not_provided","desktop","0","0","0","","","","","","working_memory","","null","<div class=""fixation"">Correct</div>","null","","","","","","","","","","","","","","","","",""
"html-keyboard-response","98","670580","0.0-5.0-5.0-0.2","612cdaa2042b4d9b9fb16acd","not_provided","desktop","0","0","0","","","","","","working_memory","","null","<div class=""fixation"">+</div>","null","","","","","","","","","","","","","","","","",""
"html-keyboard-response","99","670782","0.0-5.0-5.0-1.2","612cdaa2042b4d9b9fb16acd","not_provided","desktop","0","0","0","","","","","","working_memory","","null","<img class='c' src=images/squares/green.png><img class='b' src=images/squares/brown.png><img class='f' src=images/squares/black.png><img class='d' src=images/squares/blue.png><img class='h' src=images/squares/yellow.png><img class='i' src=images/squares/orange.png><img class='k' src=images/squares/red.png><img class='l' src=images/squares/magenta.png><div class=""fixation"">+</div>","null","","","memory","exp","2","","","","","","","","","","","",""
"html-keyboard-response","100","671683","0.0-5.0-5.0-2.2","612cdaa2042b4d9b9fb16acd","not_provided","desktop","0","0","0","","","","","","working_memory","","null","<div class=""fixation"">+</div>","null","","","","","","","","","","","","","","","","",""
"html-keyboard-response","101","672390","0.0-5.0-5.0-3.2","612cdaa2042b4d9b9fb16acd","not_provided","desktop","0","0","0","","","","","","working_memory","","706","<img class='k' src=images/squares/red.png><div class=""fixation"">+</div>","k","","","test_squares","exp","2","8","s","false","sk","s","","","","","","",""
"html-keyboard-response","102","672892","0.0-5.0-5.0-4.2","612cdaa2042b4d9b9fb16acd","not_provided","desktop","0","0","0","","","","","","working_memory","","null","<div class=""fixation"">Incorrect</div>","null","","","","","","","","","","","","","","","","",""
"html-keyboard-response","103","673893","0.0-5.0-5.0-0.3","612cdaa2042b4d9b9fb16acd","not_provided","desktop","0","0","0","","","","","","working_memory","","null","<div class=""fixation"">+</div>","null","","","","","","","","","","","","","","","","",""
"html-keyboard-response","104","674095","0.0-5.0-5.0-1.3","612cdaa2042b4d9b9fb16acd","not_provided","desktop","0","0","0","","","","","","working_memory","","null","<img class='c' src=images/squares/yellow.png><img class='b' src=images/squares/blue.png><img class='e' src=images/squares/red.png><img class='f' src=images/squares/orange.png><img class='i' src=images/squares/black.png><img class='g' src=images/squares/brown.png><img class='k' src=images/squares/magenta.png><img class='j' src=images/squares/cyan.png><div class=""fixation"">+</div>","null","","","memory","exp","3","","","","","","","","","","","",""
"html-keyboard-response","105","674996","0.0-5.0-5.0-2.3","612cdaa2042b4d9b9fb16acd","not_provided","desktop","0","0","0","","","","","","working_memory","","null","<div class=""fixation"">+</div>","null","","","","","","","","","","","","","","","","",""
"html-keyboard-response","106","675864","0.0-5.0-5.0-3.3","612cdaa2042b4d9b9fb16acd","not_provided","desktop","0","0","0","","","","","","working_memory","","867","<img class='k' src=images/squares/magenta.png><div class=""fixation"">+</div>","s","","","test_squares","exp","3","8","s","true","sk","s","","","","","","",""
"html-keyboard-response","107","676365","0.0-5.0-5.0-4.3","612cdaa2042b4d9b9fb16acd","not_provided","desktop","0","0","0","","","","","","working_memory","","null","<div class=""fixation"">Correct</div>","null","","","","","","","","","","","","","","","","",""
"html-keyboard-response","108","677366","0.0-5.0-5.0-0.4","612cdaa2042b4d9b9fb16acd","not_provided","desktop","0","0","0","","","","","","working_memory","","null","<div class=""fixation"">+</div>","null","","","","","","","","","","","","","","","","",""
"html-keyboard-response","109","677568","0.0-5.0-5.0-1.4","612cdaa2042b4d9b9fb16acd","not_provided","desktop","0","0","0","","","","","","working_memory","","null","<img class='c' src=images/squares/green.png><img class='a' src=images/squares/black.png><img class='d' src=images/squares/orange.png><img class='e' src=images/squares/red.png><img class='g' src=images/squares/cyan.png><img class='h' src=images/squares/yellow.png><img class='l' src=images/squares/brown.png><img class='k' src=images/squares/blue.png><div class=""fixation"">+</div>","null","","","memory","exp","4","","","","","","","","","","","",""
"html-keyboard-response","110","678469","0.0-5.0-5.0-2.4","612cdaa2042b4d9b9fb16acd","not_provided","desktop","0","0","0","","","","","","working_memory","","null","<div class=""fixation"">+</div>","null","","","","","","","","","","","","","","","","",""
"html-keyboard-response","111","679230","0.0-5.0-5.0-3.4","612cdaa2042b4d9b9fb16acd","not_provided","desktop","0","0","0","","","","","","working_memory","","760","<img class='g' src=images/squares/magenta.png><div class=""fixation"">+</div>","k","","","test_squares","exp","4","8","k","true","sk","d","","","","","","",""
"html-keyboard-response","112","679731","0.0-5.0-5.0-4.4","612cdaa2042b4d9b9fb16acd","not_provided","desktop","0","0","0","","","","","","working_memory","","null","<div class=""fixation"">Correct</div>","null","","","","","","","","","","","","","","","","",""
"html-keyboard-response","113","680732","0.0-5.0-5.0-0.5","612cdaa2042b4d9b9fb16acd","not_provided","desktop","0","0","0","","","","","","working_memory","","null","<div class=""fixation"">+</div>","null","","","","","","","","","","","","","","","","",""
"html-keyboard-response","114","680934","0.0-5.0-5.0-1.5","612cdaa2042b4d9b9fb16acd","not_provided","desktop","0","0","0","","","","","","working_memory","","null","<img class='a' src=images/squares/magenta.png><img class='d' src=images/squares/blue.png><img class='g' src=images/squares/red.png><img class='j' src=images/squares/cyan.png><div class=""fixation"">+</div>","null","","","memory","exp","5","","","","","","","","","","","",""
"html-keyboard-response","115","681835","0.0-5.0-5.0-2.5","612cdaa2042b4d9b9fb16acd","not_provided","desktop","0","0","0","","","","","","working_memory","","null","<div class=""fixation"">+</div>","null","","","","","","","","","","","","","","","","",""
"html-keyboard-response","116","682423","0.0-5.0-5.0-3.5","612cdaa2042b4d9b9fb16acd","not_provided","desktop","0","0","0","","","","","","working_memory","","587","<img class='a' src=images/squares/yellow.png><div class=""fixation"">+</div>","k","","","test_squares","exp","5","4","k","true","sk","d","","","","","","",""
"html-keyboard-response","117","682925","0.0-5.0-5.0-4.5","612cdaa2042b4d9b9fb16acd","not_provided","desktop","0","0","0","","","","","","working_memory","","null","<div class=""fixation"">Correct</div>","null","","","","","","","","","","","","","","","","",""
"html-keyboard-response","118","683926","0.0-5.0-5.0-0.6","612cdaa2042b4d9b9fb16acd","not_provided","desktop","0","0","0","","","","","","working_memory","","null","<div class=""fixation"">+</div>","null","","","","","","","","","","","","","","","","",""
"html-keyboard-response","119","684127","0.0-5.0-5.0-1.6","612cdaa2042b4d9b9fb16acd","not_provided","desktop","0","0","0","","","","","","working_memory","","null","<img class='a' src=images/squares/brown.png><img class='d' src=images/squares/cyan.png><img class='g' src=images/squares/green.png><img class='l' src=images/squares/yellow.png><div class=""fixation"">+</div>","null","","","memory","exp","6","","","","","","","","","","","",""
"html-keyboard-response","120","685029","0.0-5.0-5.0-2.6","612cdaa2042b4d9b9fb16acd","not_provided","desktop","0","0","0","","","","","","working_memory","","null","<div class=""fixation"">+</div>","null","","","","","","","","","","","","","","","","",""
"html-keyboard-response","121","685626","0.0-5.0-5.0-3.6","612cdaa2042b4d9b9fb16acd","not_provided","desktop","0","0","0","","","","","","working_memory","","596","<img class='d' src=images/squares/cyan.png><div class=""fixation"">+</div>","k","","","test_squares","exp","6","4","s","false","sk","s","","","","","","",""
"html-keyboard-response","122","686127","0.0-5.0-5.0-4.6","612cdaa2042b4d9b9fb16acd","not_provided","desktop","0","0","0","","","","","","working_memory","","null","<div class=""fixation"">Incorrect</div>","null","","","","","","","","","","","","","","","","",""
"html-keyboard-response","123","687128","0.0-5.0-5.0-0.7","612cdaa2042b4d9b9fb16acd","not_provided","desktop","0","0","0","","","","","","working_memory","","null","<div class=""fixation"">+</div>","null","","","","","","","","","","","","","","","","",""
"html-keyboard-response","124","687330","0.0-5.0-5.0-1.7","612cdaa2042b4d9b9fb16acd","not_provided","desktop","0","0","0","","","","","","working_memory","","null","<img class='a' src=images/squares/green.png><img class='d' src=images/squares/black.png><img class='i' src=images/squares/red.png><img class='k' src=images/squares/orange.png><div class=""fixation"">+</div>","null","","","memory","exp","7","","","","","","","","","","","",""
"html-keyboard-response","125","688231","0.0-5.0-5.0-2.7","612cdaa2042b4d9b9fb16acd","not_provided","desktop","0","0","0","","","","","","working_memory","","null","<div class=""fixation"">+</div>","null","","","","","","","","","","","","","","","","",""
"html-keyboard-response","126","689043","0.0-5.0-5.0-3.7","612cdaa2042b4d9b9fb16acd","not_provided","desktop","0","0","0","","","","","","working_memory","","810","<img class='k' src=images/squares/orange.png><div class=""fixation"">+</div>","s","","","test_squares","exp","7","4","s","true","sk","s","","","","","","",""
"html-keyboard-response","127","689544","0.0-5.0-5.0-4.7","612cdaa2042b4d9b9fb16acd","not_provided","desktop","0","0","0","","","","","","working_memory","","null","<div class=""fixation"">Correct</div>","null","","","","","","","","","","","","","","","","",""
"html-keyboard-response","128","690545","0.0-5.0-5.0-0.8","612cdaa2042b4d9b9fb16acd","not_provided","desktop","0","0","0","","","","","","working_memory","","null","<div class=""fixation"">+</div>","null","","","","","","","","","","","","","","","","",""
"html-keyboard-response","129","690747","0.0-5.0-5.0-1.8","612cdaa2042b4d9b9fb16acd","not_provided","desktop","0","0","0","","","","","","working_memory","","null","<img class='a' src=images/squares/black.png><img class='b' src=images/squares/orange.png><img class='e' src=images/squares/magenta.png><img class='f' src=images/squares/brown.png><img class='g' src=images/squares/blue.png><img class='h' src=images/squares/yellow.png><img class='j' src=images/squares/green.png><img class='k' src=images/squares/red.png><div class=""fixation"">+</div>","null","","","memory","exp","8","","","","","","","","","","","",""
"html-keyboard-response","130","691648","0.0-5.0-5.0-2.8","612cdaa2042b4d9b9fb16acd","not_provided","desktop","0","0","0","","","","","","working_memory","","null","<div class=""fixation"">+</div>","null","","","","","","","","","","","","","","","","",""
"html-keyboard-response","131","692440","0.0-5.0-5.0-3.8","612cdaa2042b4d9b9fb16acd","not_provided","desktop","0","0","0","","","","","","working_memory","","791","<img class='g' src=images/squares/cyan.png><div class=""fixation"">+</div>","s","","","test_squares","exp","8","8","k","false","sk","d","","","","","","",""
"html-keyboard-response","132","692941","0.0-5.0-5.0-4.8","612cdaa2042b4d9b9fb16acd","not_provided","desktop","0","0","0","","","","","","working_memory","","null","<div class=""fixation"">Incorrect</div>","null","","","","","","","","","","","","","","","","",""
"html-keyboard-response","133","693942","0.0-5.0-5.0-0.9","612cdaa2042b4d9b9fb16acd","not_provided","desktop","0","0","0","","","","","","working_memory","","null","<div class=""fixation"">+</div>","null","","","","","","","","","","","","","","","","",""
"html-keyboard-response","134","694145","0.0-5.0-5.0-1.9","612cdaa2042b4d9b9fb16acd","not_provided","desktop","0","0","0","","","","","","working_memory","","null","<img class='b' src=images/squares/red.png><img class='a' src=images/squares/green.png><img class='d' src=images/squares/brown.png><img class='f' src=images/squares/yellow.png><img class='i' src=images/squares/orange.png><img class='h' src=images/squares/black.png><img class='l' src=images/squares/blue.png><img class='j' src=images/squares/magenta.png><div class=""fixation"">+</div>","null","","","memory","exp","9","","","","","","","","","","","",""
"html-keyboard-response","135","695046","0.0-5.0-5.0-2.9","612cdaa2042b4d9b9fb16acd","not_provided","desktop","0","0","0","","","","","","working_memory","","null","<div class=""fixation"">+</div>","null","","","","","","","","","","","","","","","","",""
"html-keyboard-response","136","695794","0.0-5.0-5.0-3.9","612cdaa2042b4d9b9fb16acd","not_provided","desktop","0","0","0","","","","","","working_memory","","746","<img class='l' src=images/squares/cyan.png><div class=""fixation"">+</div>","k","","","test_squares","exp","9","8","k","true","sk","d","","","","","","",""
"html-keyboard-response","137","696295","0.0-5.0-5.0-4.9","612cdaa2042b4d9b9fb16acd","not_provided","desktop","0","0","0","","","","","","working_memory","","null","<div class=""fixation"">Correct</div>","null","","","","","","","","","","","","","","","","",""
"html-keyboard-response","138","697296","0.0-5.0-5.0-0.10","612cdaa2042b4d9b9fb16acd","not_provided","desktop","0","0","0","","","","","","working_memory","","null","<div class=""fixation"">+</div>","null","","","","","","","","","","","","","","","","",""
"html-keyboard-response","139","697498","0.0-5.0-5.0-1.10","612cdaa2042b4d9b9fb16acd","not_provided","desktop","0","0","0","","","","","","working_memory","","null","<img class='c' src=images/squares/brown.png><img class='a' src=images/squares/orange.png><img class='f' src=images/squares/red.png><img class='d' src=images/squares/yellow.png><img class='i' src=images/squares/cyan.png><img class='h' src=images/squares/magenta.png><img class='k' src=images/squares/black.png><img class='l' src=images/squares/blue.png><div class=""fixation"">+</div>","null","","","memory","exp","10","","","","","","","","","","","",""
"html-keyboard-response","140","698399","0.0-5.0-5.0-2.10","612cdaa2042b4d9b9fb16acd","not_provided","desktop","0","0","0","","","","","","working_memory","","null","<div class=""fixation"">+</div>","null","","","","","","","","","","","","","","","","",""
"html-keyboard-response","141","699328","0.0-5.0-5.0-3.10","612cdaa2042b4d9b9fb16acd","not_provided","desktop","0","0","0","","","","","","working_memory","","928","<img class='d' src=images/squares/yellow.png><div class=""fixation"">+</div>","k","","","test_squares","exp","10","8","s","false","sk","s","","","","","","",""
"html-keyboard-response","142","699829","0.0-5.0-5.0-4.10","612cdaa2042b4d9b9fb16acd","not_provided","desktop","0","0","0","","","","","","working_memory","","null","<div class=""fixation"">Incorrect</div>","null","","","","","","","","","","","","","","","","",""
"html-keyboard-response","143","700830","0.0-5.0-5.0-0.11","612cdaa2042b4d9b9fb16acd","not_provided","desktop","0","0","0","","","","","","working_memory","","null","<div class=""fixation"">+</div>","null","","","","","","","","","","","","","","","","",""
"html-keyboard-response","144","701032","0.0-5.0-5.0-1.11","612cdaa2042b4d9b9fb16acd","not_provided","desktop","0","0","0","","","","","","working_memory","","null","<img class='a' src=images/squares/green.png><img class='f' src=images/squares/cyan.png><img class='h' src=images/squares/magenta.png><img class='k' src=images/squares/yellow.png><div class=""fixation"">+</div>","null","","","memory","exp","11","","","","","","","","","","","",""
"html-keyboard-response","145","701934","0.0-5.0-5.0-2.11","612cdaa2042b4d9b9fb16acd","not_provided","desktop","0","0","0","","","","","","working_memory","","null","<div class=""fixation"">+</div>","null","","","","","","","","","","","","","","","","",""
"html-keyboard-response","146","702665","0.0-5.0-5.0-3.11","612cdaa2042b4d9b9fb16acd","not_provided","desktop","0","0","0","","","","","","working_memory","","730","<img class='a' src=images/squares/green.png><div class=""fixation"">+</div>","s","","","test_squares","exp","11","4","s","true","sk","s","","","","","","",""
"html-keyboard-response","147","703166","0.0-5.0-5.0-4.11","612cdaa2042b4d9b9fb16acd","not_provided","desktop","0","0","0","","","","","","working_memory","","null","<div class=""fixation"">Correct</div>","null","","","","","","","","","","","","","","","","",""
"html-keyboard-response","148","704167","0.0-5.0-5.0-0.12","612cdaa2042b4d9b9fb16acd","not_provided","desktop","0","0","0","","","","","","working_memory","","null","<div class=""fixation"">+</div>","null","","","","","","","","","","","","","","","","",""
"html-keyboard-response","149","704368","0.0-5.0-5.0-1.12","612cdaa2042b4d9b9fb16acd","not_provided","desktop","0","0","0","","","","","","working_memory","","null","<img class='b' src=images/squares/green.png><img class='f' src=images/squares/yellow.png><img class='g' src=images/squares/orange.png><img class='k' src=images/squares/blue.png><div class=""fixation"">+</div>","null","","","memory","exp","12","","","","","","","","","","","",""
"html-keyboard-response","150","705269","0.0-5.0-5.0-2.12","612cdaa2042b4d9b9fb16acd","not_provided","desktop","0","0","0","","","","","","working_memory","","null","<div class=""fixation"">+</div>","null","","","","","","","","","","","","","","","","",""
"html-keyboard-response","151","706190","0.0-5.0-5.0-3.12","612cdaa2042b4d9b9fb16acd","not_provided","desktop","0","0","0","","","","","","working_memory","","919","<img class='g' src=images/squares/cyan.png><div class=""fixation"">+</div>","k","","","test_squares","exp","12","4","k","true","sk","d","","","","","","",""
"html-keyboard-response","152","706691","0.0-5.0-5.0-4.12","612cdaa2042b4d9b9fb16acd","not_provided","desktop","0","0","0","","","","","","working_memory","","null","<div class=""fixation"">Correct</div>","null","","","","","","","","","","","","","","","","",""
"html-keyboard-response","153","707692","0.0-5.0-5.0-0.13","612cdaa2042b4d9b9fb16acd","not_provided","desktop","0","0","0","","","","","","working_memory","","null","<div class=""fixation"">+</div>","null","","","","","","","","","","","","","","","","",""
"html-keyboard-response","154","707893","0.0-5.0-5.0-1.13","612cdaa2042b4d9b9fb16acd","not_provided","desktop","0","0","0","","","","","","working_memory","","null","<img class='b' src=images/squares/brown.png><img class='e' src=images/squares/red.png><img class='g' src=images/squares/black.png><img class='l' src=images/squares/yellow.png><div class=""fixation"">+</div>","null","","","memory","exp","13","","","","","","","","","","","",""
"html-keyboard-response","155","708795","0.0-5.0-5.0-2.13","612cdaa2042b4d9b9fb16acd","not_provided","desktop","0","0","0","","","","","","working_memory","","null","<div class=""fixation"">+</div>","null","","","","","","","","","","","","","","","","",""
"html-keyboard-response","156","709544","0.0-5.0-5.0-3.13","612cdaa2042b4d9b9fb16acd","not_provided","desktop","0","0","0","","","","","","working_memory","","748","<img class='e' src=images/squares/magenta.png><div class=""fixation"">+</div>","k","","","test_squares","exp","13","4","k","true","sk","d","","","","","","",""
"html-keyboard-response","157","710045","0.0-5.0-5.0-4.13","612cdaa2042b4d9b9fb16acd","not_provided","desktop","0","0","0","","","","","","working_memory","","null","<div class=""fixation"">Correct</div>","null","","","","","","","","","","","","","","","","",""
"html-keyboard-response","158","711046","0.0-5.0-5.0-0.14","612cdaa2042b4d9b9fb16acd","not_provided","desktop","0","0","0","","","","","","working_memory","","null","<div class=""fixation"">+</div>","null","","","","","","","","","","","","","","","","",""
"html-keyboard-response","159","711248","0.0-5.0-5.0-1.14","612cdaa2042b4d9b9fb16acd","not_provided","desktop","0","0","0","","","","","","working_memory","","null","<img class='c' src=images/squares/yellow.png><img class='b' src=images/squares/red.png><img class='f' src=images/squares/green.png><img class='d' src=images/squares/cyan.png><img class='i' src=images/squares/magenta.png><img class='h' src=images/squares/black.png><img class='j' src=images/squares/orange.png><img class='k' src=images/squares/brown.png><div class=""fixation"">+</div>","null","","","memory","exp","14","","","","","","","","","","","",""
"html-keyboard-response","160","712149","0.0-5.0-5.0-2.14","612cdaa2042b4d9b9fb16acd","not_provided","desktop","0","0","0","","","","","","working_memory","","null","<div class=""fixation"">+</div>","null","","","","","","","","","","","","","","","","",""
"html-keyboard-response","161","712730","0.0-5.0-5.0-3.14","612cdaa2042b4d9b9fb16acd","not_provided","desktop","0","0","0","","","","","","working_memory","","579","<img class='b' src=images/squares/red.png><div class=""fixation"">+</div>","k","","","test_squares","exp","14","8","s","false","sk","s","","","","","","",""
"html-keyboard-response","162","713231","0.0-5.0-5.0-4.14","612cdaa2042b4d9b9fb16acd","not_provided","desktop","0","0","0","","","","","","working_memory","","null","<div class=""fixation"">Incorrect</div>","null","","","","","","","","","","","","","","","","",""
"html-keyboard-response","163","714233","0.0-5.0-5.0-0.15","612cdaa2042b4d9b9fb16acd","not_provided","desktop","0","0","0","","","","","","working_memory","","null","<div class=""fixation"">+</div>","null","","","","","","","","","","","","","","","","",""
"html-keyboard-response","164","714434","0.0-5.0-5.0-1.15","612cdaa2042b4d9b9fb16acd","not_provided","desktop","0","0","0","","","","","","working_memory","","null","<img class='a' src=images/squares/yellow.png><img class='e' src=images/squares/cyan.png><img class='g' src=images/squares/blue.png><img class='j' src=images/squares/orange.png><div class=""fixation"">+</div>","null","","","memory","exp","15","","","","","","","","","","","",""
"html-keyboard-response","165","715336","0.0-5.0-5.0-2.15","612cdaa2042b4d9b9fb16acd","not_provided","desktop","0","0","0","","","","","","working_memory","","null","<div class=""fixation"">+</div>","null","","","","","","","","","","","","","","","","",""
"html-keyboard-response","166","715926","0.0-5.0-5.0-3.15","612cdaa2042b4d9b9fb16acd","not_provided","desktop","0","0","0","","","","","","working_memory","","589","<img class='a' src=images/squares/yellow.png><div class=""fixation"">+</div>","s","","","test_squares","exp","15","4","s","true","sk","s","","","","","","",""
"html-keyboard-response","167","716427","0.0-5.0-5.0-4.15","612cdaa2042b4d9b9fb16acd","not_provided","desktop","0","0","0","","","","","","working_memory","","null","<div class=""fixation"">Correct</div>","null","","","","","","","","","","","","","","","","",""
"html-keyboard-response","168","717428","0.0-5.0-5.0-0.16","612cdaa2042b4d9b9fb16acd","not_provided","desktop","0","0","0","","","","","","working_memory","","null","<div class=""fixation"">+</div>","null","","","","","","","","","","","","","","","","",""
"html-keyboard-response","169","717630","0.0-5.0-5.0-1.16","612cdaa2042b4d9b9fb16acd","not_provided","desktop","0","0","0","","","","","","working_memory","","null","<img class='b' src=images/squares/orange.png><img class='f' src=images/squares/magenta.png><img class='i' src=images/squares/red.png><img class='l' src=images/squares/yellow.png><div class=""fixation"">+</div>","null","","","memory","exp","16","","","","","","","","","","","",""
"html-keyboard-response","170","718531","0.0-5.0-5.0-2.16","612cdaa2042b4d9b9fb16acd","not_provided","desktop","0","0","0","","","","","","working_memory","","null","<div class=""fixation"">+</div>","null","","","","","","","","","","","","","","","","",""
"html-keyboard-response","171","719252","0.0-5.0-5.0-3.16","612cdaa2042b4d9b9fb16acd","not_provided","desktop","0","0","0","","","","","","working_memory","","720","<img class='b' src=images/squares/cyan.png><div class=""fixation"">+</div>","k","","","test_squares","exp","16","4","k","true","sk","d","","","","","","",""
"html-keyboard-response","172","719753","0.0-5.0-5.0-4.16","612cdaa2042b4d9b9fb16acd","not_provided","desktop","0","0","0","","","","","","working_memory","","null","<div class=""fixation"">Correct</div>","null","","","","","","","","","","","","","","","","",""
"html-keyboard-response","173","720754","0.0-5.0-5.0-0.17","612cdaa2042b4d9b9fb16acd","not_provided","desktop","0","0","0","","","","","","working_memory","","null","<div class=""fixation"">+</div>","null","","","","","","","","","","","","","","","","",""
"html-keyboard-response","174","720956","0.0-5.0-5.0-1.17","612cdaa2042b4d9b9fb16acd","not_provided","desktop","0","0","0","","","","","","working_memory","","null","<img class='b' src=images/squares/green.png><img class='e' src=images/squares/yellow.png><img class='g' src=images/squares/black.png><img class='k' src=images/squares/magenta.png><div class=""fixation"">+</div>","null","","","memory","exp","17","","","","","","","","","","","",""
"html-keyboard-response","175","721857","0.0-5.0-5.0-2.17","612cdaa2042b4d9b9fb16acd","not_provided","desktop","0","0","0","","","","","","working_memory","","null","<div class=""fixation"">+</div>","null","","","","","","","","","","","","","","","","",""
"html-keyboard-response","176","722438","0.0-5.0-5.0-3.17","612cdaa2042b4d9b9fb16acd","not_provided","desktop","0","0","0","","","","","","working_memory","","580","<img class='e' src=images/squares/brown.png><div class=""fixation"">+</div>","k","","","test_squares","exp","17","4","k","true","sk","d","","","","","","",""
"html-keyboard-response","177","722939","0.0-5.0-5.0-4.17","612cdaa2042b4d9b9fb16acd","not_provided","desktop","0","0","0","","","","","","working_memory","","null","<div class=""fixation"">Correct</div>","null","","","","","","","","","","","","","","","","",""
"html-keyboard-response","178","723940","0.0-5.0-5.0-0.18","612cdaa2042b4d9b9fb16acd","not_provided","desktop","0","0","0","","","","","","working_memory","","null","<div class=""fixation"">+</div>","null","","","","","","","","","","","","","","","","",""
"html-keyboard-response","179","724142","0.0-5.0-5.0-1.18","612cdaa2042b4d9b9fb16acd","not_provided","desktop","0","0","0","","","","","","working_memory","","null","<img class='c' src=images/squares/yellow.png><img class='e' src=images/squares/brown.png><img class='i' src=images/squares/cyan.png><img class='l' src=images/squares/orange.png><div class=""fixation"">+</div>","null","","","memory","exp","18","","","","","","","","","","","",""
"html-keyboard-response","180","725043","0.0-5.0-5.0-2.18","612cdaa2042b4d9b9fb16acd","not_provided","desktop","0","0","0","","","","","","working_memory","","null","<div class=""fixation"">+</div>","null","","","","","","","","","","","","","","","","",""
"html-keyboard-response","181","725606","0.0-5.0-5.0-3.18","612cdaa2042b4d9b9fb16acd","not_provided","desktop","0","0","0","","","","","","working_memory","","562","<img class='i' src=images/squares/red.png><div class=""fixation"">+</div>","k","","","test_squares","exp","18","4","k","true","sk","d","","","","","","",""
"html-keyboard-response","182","726107","0.0-5.0-5.0-4.18","612cdaa2042b4d9b9fb16acd","not_provided","desktop","0","0","0","","","","","","working_memory","","null","<div class=""fixation"">Correct</div>","null","","","","","","","","","","","","","","","","",""
"html-keyboard-response","183","727108","0.0-5.0-5.0-0.19","612cdaa2042b4d9b9fb16acd","not_provided","desktop","0","0","0","","","","","","working_memory","","null","<div class=""fixation"">+</div>","null","","","","","","","","","","","","","","","","",""
"html-keyboard-response","184","727310","0.0-5.0-5.0-1.19","612cdaa2042b4d9b9fb16acd","not_provided","desktop","0","0","0","","","","","","working_memory","","null","<img class='b' src=images/squares/green.png><img class='e' src=images/squares/orange.png><img class='g' src=images/squares/yellow.png><img class='j' src=images/squares/black.png><div class=""fixation"">+</div>","null","","","memory","exp","19","","","","","","","","","","","",""
"html-keyboard-response","185","728211","0.0-5.0-5.0-2.19","612cdaa2042b4d9b9fb16acd","not_provided","desktop","0","0","0","","","","","","working_memory","","null","<div class=""fixation"">+</div>","null","","","","","","","","","","","","","","","","",""
"html-keyboard-response","186","728815","0.0-5.0-5.0-3.19","612cdaa2042b4d9b9fb16acd","not_provided","desktop","0","0","0","","","","","","working_memory","","602","<img class='e' src=images/squares/cyan.png><div class=""fixation"">+</div>","k","","","test_squares","exp","19","4","k","true","sk","d","","","","","","",""
"html-keyboard-response","187","729316","0.0-5.0-5.0-4.19","612cdaa2042b4d9b9fb16acd","not_provided","desktop","0","0","0","","","","","","working_memory","","null","<div class=""fixation"">Correct</div>","null","","","","","","","","","","","","","","","","",""
"html-keyboard-response","188","730317","0.0-5.0-5.0-0.20","612cdaa2042b4d9b9fb16acd","not_provided","desktop","0","0","0","","","","","","working_memory","","null","<div class=""fixation"">+</div>","null","","","","","","","","","","","","","","","","",""
"html-keyboard-response","189","730518","0.0-5.0-5.0-1.20","612cdaa2042b4d9b9fb16acd","not_provided","desktop","0","0","0","","","","","","working_memory","","null","<img class='c' src=images/squares/blue.png><img class='f' src=images/squares/magenta.png><img class='i' src=images/squares/orange.png><img class='j' src=images/squares/yellow.png><div class=""fixation"">+</div>","null","","","memory","exp","20","","","","","","","","","","","",""
"html-keyboard-response","190","731419","0.0-5.0-5.0-2.20","612cdaa2042b4d9b9fb16acd","not_provided","desktop","0","0","0","","","","","","working_memory","","null","<div class=""fixation"">+</div>","null","","","","","","","","","","","","","","","","",""
"html-keyboard-response","191","732158","0.0-5.0-5.0-3.20","612cdaa2042b4d9b9fb16acd","not_provided","desktop","0","0","0","","","","","","working_memory","","738","<img class='i' src=images/squares/green.png><div class=""fixation"">+</div>","k","","","test_squares","exp","20","4","k","true","sk","d","","","","","","",""
"html-keyboard-response","192","732660","0.0-5.0-5.0-4.20","612cdaa2042b4d9b9fb16acd","not_provided","desktop","0","0","0","","","","","","working_memory","","null","<div class=""fixation"">Correct</div>","null","","","","","","","","","","","","","","","","",""
"html-keyboard-response","193","733661","0.0-5.0-5.0-0.21","612cdaa2042b4d9b9fb16acd","not_provided","desktop","0","0","0","","","","","","working_memory","","null","<div class=""fixation"">+</div>","null","","","","","","","","","","","","","","","","",""
"html-keyboard-response","194","733863","0.0-5.0-5.0-1.21","612cdaa2042b4d9b9fb16acd","not_provided","desktop","0","0","0","","","","","","working_memory","","null","<img class='c' src=images/squares/brown.png><img class='b' src=images/squares/cyan.png><img class='d' src=images/squares/black.png><img class='e' src=images/squares/red.png><img class='g' src=images/squares/green.png><img class='i' src=images/squares/blue.png><img class='j' src=images/squares/yellow.png><img class='k' src=images/squares/magenta.png><div class=""fixation"">+</div>","null","","","memory","exp","21","","","","","","","","","","","",""
"html-keyboard-response","195","734764","0.0-5.0-5.0-2.21","612cdaa2042b4d9b9fb16acd","not_provided","desktop","0","0","0","","","","","","working_memory","","null","<div class=""fixation"">+</div>","null","","","","","","","","","","","","","","","","",""
"html-keyboard-response","196","735415","0.0-5.0-5.0-3.21","612cdaa2042b4d9b9fb16acd","not_provided","desktop","0","0","0","","","","","","working_memory","","650","<img class='c' src=images/squares/brown.png><div class=""fixation"">+</div>","k","","","test_squares","exp","21","8","s","false","sk","s","","","","","","",""
"html-keyboard-response","197","735916","0.0-5.0-5.0-4.21","612cdaa2042b4d9b9fb16acd","not_provided","desktop","0","0","0","","","","","","working_memory","","null","<div class=""fixation"">Incorrect</div>","null","","","","","","","","","","","","","","","","",""
"html-keyboard-response","198","736918","0.0-5.0-5.0-0.22","612cdaa2042b4d9b9fb16acd","not_provided","desktop","0","0","0","","","","","","working_memory","","null","<div class=""fixation"">+</div>","null","","","","","","","","","","","","","","","","",""
"html-keyboard-response","199","737120","0.0-5.0-5.0-1.22","612cdaa2042b4d9b9fb16acd","not_provided","desktop","0","0","0","","","","","","working_memory","","null","<img class='b' src=images/squares/green.png><img class='a' src=images/squares/brown.png><img class='e' src=images/squares/red.png><img class='d' src=images/squares/blue.png><img class='i' src=images/squares/cyan.png><img class='g' src=images/squares/yellow.png><img class='k' src=images/squares/orange.png><img class='l' src=images/squares/magenta.png><div class=""fixation"">+</div>","null","","","memory","exp","22","","","","","","","","","","","",""
"html-keyboard-response","200","738021","0.0-5.0-5.0-2.22","612cdaa2042b4d9b9fb16acd","not_provided","desktop","0","0","0","","","","","","working_memory","","null","<div class=""fixation"">+</div>","null","","","","","","","","","","","","","","","","",""
"html-keyboard-response","201","738734","0.0-5.0-5.0-3.22","612cdaa2042b4d9b9fb16acd","not_provided","desktop","0","0","0","","","","","","working_memory","","712","<img class='b' src=images/squares/black.png><div class=""fixation"">+</div>","s","","","test_squares","exp","22","8","k","false","sk","d","","","","","","",""
"html-keyboard-response","202","739235","0.0-5.0-5.0-4.22","612cdaa2042b4d9b9fb16acd","not_provided","desktop","0","0","0","","","","","","working_memory","","null","<div class=""fixation"">Incorrect</div>","null","","","","","","","","","","","","","","","","",""
"html-keyboard-response","203","740236","0.0-5.0-5.0-0.23","612cdaa2042b4d9b9fb16acd","not_provided","desktop","0","0","0","","","","","","working_memory","","null","<div class=""fixation"">+</div>","null","","","","","","","","","","","","","","","","",""
"html-keyboard-response","204","740438","0.0-5.0-5.0-1.23","612cdaa2042b4d9b9fb16acd","not_provided","desktop","0","0","0","","","","","","working_memory","","null","<img class='b' src=images/squares/magenta.png><img class='d' src=images/squares/red.png><img class='i' src=images/squares/green.png><img class='j' src=images/squares/orange.png><div class=""fixation"">+</div>","null","","","memory","exp","23","","","","","","","","","","","",""
"html-keyboard-response","205","741339","0.0-5.0-5.0-2.23","612cdaa2042b4d9b9fb16acd","not_provided","desktop","0","0","0","","","","","","working_memory","","null","<div class=""fixation"">+</div>","null","","","","","","","","","","","","","","","","",""
"html-keyboard-response","206","741805","0.0-5.0-5.0-3.23","612cdaa2042b4d9b9fb16acd","not_provided","desktop","0","0","0","","","","","","working_memory","","465","<img class='j' src=images/squares/yellow.png><div class=""fixation"">+</div>","k","","","test_squares","exp","23","4","k","true","sk","d","","","","","","",""
"html-keyboard-response","207","742305","0.0-5.0-5.0-4.23","612cdaa2042b4d9b9fb16acd","not_provided","desktop","0","0","0","","","","","","working_memory","","null","<div class=""fixation"">Correct</div>","null","","","","","","","","","","","","","","","","",""
"html-keyboard-response","208","743306","0.0-5.0-5.0-0.24","612cdaa2042b4d9b9fb16acd","not_provided","desktop","0","0","0","","","","","","working_memory","","null","<div class=""fixation"">+</div>","null","","","","","","","","","","","","","","","","",""
"html-keyboard-response","209","743508","0.0-5.0-5.0-1.24","612cdaa2042b4d9b9fb16acd","not_provided","desktop","0","0","0","","","","","","working_memory","","null","<img class='c' src=images/squares/magenta.png><img class='d' src=images/squares/black.png><img class='i' src=images/squares/brown.png><img class='k' src=images/squares/red.png><div class=""fixation"">+</div>","null","","","memory","exp","24","","","","","","","","","","","",""
"html-keyboard-response","210","744409","0.0-5.0-5.0-2.24","612cdaa2042b4d9b9fb16acd","not_provided","desktop","0","0","0","","","","","","working_memory","","null","<div class=""fixation"">+</div>","null","","","","","","","","","","","","","","","","",""
"html-keyboard-response","211","745076","0.0-5.0-5.0-3.24","612cdaa2042b4d9b9fb16acd","not_provided","desktop","0","0","0","","","","","","working_memory","","666","<img class='d' src=images/squares/green.png><div class=""fixation"">+</div>","k","","","test_squares","exp","24","4","k","true","sk","d","","","","","","",""
"html-keyboard-response","212","745577","0.0-5.0-5.0-4.24","612cdaa2042b4d9b9fb16acd","not_provided","desktop","0","0","0","","","","","","working_memory","","null","<div class=""fixation"">Correct</div>","null","","","","","","","","","","","","","","","","",""
"html-keyboard-response","213","746578","0.0-5.0-5.0-0.25","612cdaa2042b4d9b9fb16acd","not_provided","desktop","0","0","0","","","","","","working_memory","","null","<div class=""fixation"">+</div>","null","","","","","","","","","","","","","","","","",""
"html-keyboard-response","214","746779","0.0-5.0-5.0-1.25","612cdaa2042b4d9b9fb16acd","not_provided","desktop","0","0","0","","","","","","working_memory","","null","<img class='b' src=images/squares/yellow.png><img class='e' src=images/squares/green.png><img class='g' src=images/squares/brown.png><img class='j' src=images/squares/cyan.png><div class=""fixation"">+</div>","null","","","memory","exp","25","","","","","","","","","","","",""
"html-keyboard-response","215","747681","0.0-5.0-5.0-2.25","612cdaa2042b4d9b9fb16acd","not_provided","desktop","0","0","0","","","","","","working_memory","","null","<div class=""fixation"">+</div>","null","","","","","","","","","","","","","","","","",""
"html-keyboard-response","216","748417","0.0-5.0-5.0-3.25","612cdaa2042b4d9b9fb16acd","not_provided","desktop","0","0","0","","","","","","working_memory","","736","<img class='b' src=images/squares/yellow.png><div class=""fixation"">+</div>","s","","","test_squares","exp","25","4","s","true","sk","s","","","","","","",""
"html-keyboard-response","217","748919","0.0-5.0-5.0-4.25","612cdaa2042b4d9b9fb16acd","not_provided","desktop","0","0","0","","","","","","working_memory","","null","<div class=""fixation"">Correct</div>","null","","","","","","","","","","","","","","","","",""
"html-keyboard-response","218","749920","0.0-5.0-5.0-0.26","612cdaa2042b4d9b9fb16acd","not_provided","desktop","0","0","0","","","","","","working_memory","","null","<div class=""fixation"">+</div>","null","","","","","","","","","","","","","","","","",""
"html-keyboard-response","219","750122","0.0-5.0-5.0-1.26","612cdaa2042b4d9b9fb16acd","not_provided","desktop","0","0","0","","","","","","working_memory","","null","<img class='a' src=images/squares/black.png><img class='b' src=images/squares/magenta.png><img class='f' src=images/squares/yellow.png><img class='e' src=images/squares/cyan.png><img class='h' src=images/squares/blue.png><img class='i' src=images/squares/red.png><img class='j' src=images/squares/green.png><img class='k' src=images/squares/orange.png><div class=""fixation"">+</div>","null","","","memory","exp","26","","","","","","","","","","","",""
"html-keyboard-response","220","751023","0.0-5.0-5.0-2.26","612cdaa2042b4d9b9fb16acd","not_provided","desktop","0","0","0","","","","","","working_memory","","null","<div class=""fixation"">+</div>","null","","","","","","","","","","","","","","","","",""
"html-keyboard-response","221","751841","0.0-5.0-5.0-3.26","612cdaa2042b4d9b9fb16acd","not_provided","desktop","0","0","0","","","","","","working_memory","","816","<img class='h' src=images/squares/brown.png><div class=""fixation"">+</div>","s","","","test_squares","exp","26","8","k","false","sk","d","","","","","","",""
"html-keyboard-response","222","752342","0.0-5.0-5.0-4.26","612cdaa2042b4d9b9fb16acd","not_provided","desktop","0","0","0","","","","","","working_memory","","null","<div class=""fixation"">Incorrect</div>","null","","","","","","","","","","","","","","","","",""
"html-keyboard-response","223","753343","0.0-5.0-5.0-0.27","612cdaa2042b4d9b9fb16acd","not_provided","desktop","0","0","0","","","","","","working_memory","","null","<div class=""fixation"">+</div>","null","","","","","","","","","","","","","","","","",""
"html-keyboard-response","224","753545","0.0-5.0-5.0-1.27","612cdaa2042b4d9b9fb16acd","not_provided","desktop","0","0","0","","","","","","working_memory","","null","<img class='c' src=images/squares/brown.png><img class='f' src=images/squares/cyan.png><img class='g' src=images/squares/yellow.png><img class='l' src=images/squares/red.png><div class=""fixation"">+</div>","null","","","memory","exp","27","","","","","","","","","","","",""
"html-keyboard-response","225","754446","0.0-5.0-5.0-2.27","612cdaa2042b4d9b9fb16acd","not_provided","desktop","0","0","0","","","","","","working_memory","","null","<div class=""fixation"">+</div>","null","","","","","","","","","","","","","","","","",""
"html-keyboard-response","226","755065","0.0-5.0-5.0-3.27","612cdaa2042b4d9b9fb16acd","not_provided","desktop","0","0","0","","","","","","working_memory","","617","<img class='l' src=images/squares/red.png><div class=""fixation"">+</div>","k","","","test_squares","exp","27","4","s","false","sk","s","","","","","","",""
"html-keyboard-response","227","755566","0.0-5.0-5.0-4.27","612cdaa2042b4d9b9fb16acd","not_provided","desktop","0","0","0","","","","","","working_memory","","null","<div class=""fixation"">Incorrect</div>","null","","","","","","","","","","","","","","","","",""
"html-keyboard-response","228","756567","0.0-5.0-5.0-0.28","612cdaa2042b4d9b9fb16acd","not_provided","desktop","0","0","0","","","","","","working_memory","","null","<div class=""fixation"">+</div>","null","","","","","","","","","","","","","","","","",""
"html-keyboard-response","229","756769","0.0-5.0-5.0-1.28","612cdaa2042b4d9b9fb16acd","not_provided","desktop","0","0","0","","","","","","working_memory","","null","<img class='c' src=images/squares/cyan.png><img class='a' src=images/squares/brown.png><img class='d' src=images/squares/yellow.png><img class='e' src=images/squares/green.png><img class='h' src=images/squares/magenta.png><img class='i' src=images/squares/black.png><img class='j' src=images/squares/red.png><img class='l' src=images/squares/orange.png><div class=""fixation"">+</div>","null","","","memory","exp","28","","","","","","","","","","","",""
"html-keyboard-response","230","757670","0.0-5.0-5.0-2.28","612cdaa2042b4d9b9fb16acd","not_provided","desktop","0","0","0","","","","","","working_memory","","null","<div class=""fixation"">+</div>","null","","","","","","","","","","","","","","","","",""
"html-keyboard-response","231","758509","0.0-5.0-5.0-3.28","612cdaa2042b4d9b9fb16acd","not_provided","desktop","0","0","0","","","","","","working_memory","","837","<img class='c' src=images/squares/blue.png><div class=""fixation"">+</div>","k","","","test_squares","exp","28","8","k","true","sk","d","","","","","","",""
"html-keyboard-response","232","759010","0.0-5.0-5.0-4.28","612cdaa2042b4d9b9fb16acd","not_provided","desktop","0","0","0","","","","","","working_memory","","null","<div class=""fixation"">Correct</div>","null","","","","","","","","","","","","","","","","",""
"html-keyboard-response","233","760011","0.0-5.0-5.0-0.29","612cdaa2042b4d9b9fb16acd","not_provided","desktop","0","0","0","","","","","","working_memory","","null","<div class=""fixation"">+</div>","null","","","","","","","","","","","","","","","","",""
"html-keyboard-response","234","760213","0.0-5.0-5.0-1.29","612cdaa2042b4d9b9fb16acd","not_provided","desktop","0","0","0","","","","","","working_memory","","null","<img class='c' src=images/squares/blue.png><img class='f' src=images/squares/cyan.png><img class='g' src=images/squares/red.png><img class='l' src=images/squares/magenta.png><div class=""fixation"">+</div>","null","","","memory","exp","29","","","","","","","","","","","",""
"html-keyboard-response","235","761114","0.0-5.0-5.0-2.29","612cdaa2042b4d9b9fb16acd","not_provided","desktop","0","0","0","","","","","","working_memory","","null","<div class=""fixation"">+</div>","null","","","","","","","","","","","","","","","","",""
"html-keyboard-response","236","761721","0.0-5.0-5.0-3.29","612cdaa2042b4d9b9fb16acd","not_provided","desktop","0","0","0","","","","","","working_memory","","605","<img class='l' src=images/squares/magenta.png><div class=""fixation"">+</div>","k","","","test_squares","exp","29","4","s","false","sk","s","","","","","","",""
"html-keyboard-response","237","762222","0.0-5.0-5.0-4.29","612cdaa2042b4d9b9fb16acd","not_provided","desktop","0","0","0","","","","","","working_memory","","null","<div class=""fixation"">Incorrect</div>","null","","","","","","","","","","","","","","","","",""
"html-keyboard-response","238","763224","0.0-5.0-5.0-0.30","612cdaa2042b4d9b9fb16acd","not_provided","desktop","0","0","0","","","","","","working_memory","","null","<div class=""fixation"">+</div>","null","","","","","","","","","","","","","","","","",""
"html-keyboard-response","239","763425","0.0-5.0-5.0-1.30","612cdaa2042b4d9b9fb16acd","not_provided","desktop","0","0","0","","","","","","working_memory","","null","<img class='c' src=images/squares/magenta.png><img class='a' src=images/squares/cyan.png><img class='d' src=images/squares/orange.png><img class='f' src=images/squares/brown.png><img class='g' src=images/squares/green.png><img class='h' src=images/squares/blue.png><img class='j' src=images/squares/red.png><img class='k' src=images/squares/black.png><div class=""fixation"">+</div>","null","","","memory","exp","30","","","","","","","","","","","",""
"html-keyboard-response","240","764327","0.0-5.0-5.0-2.30","612cdaa2042b4d9b9fb16acd","not_provided","desktop","0","0","0","","","","","","working_memory","","null","<div class=""fixation"">+</div>","null","","","","","","","","","","","","","","","","",""
"html-keyboard-response","241","764641","0.0-5.0-5.0-3.30","612cdaa2042b4d9b9fb16acd","not_provided","desktop","0","0","0","","","","","","working_memory","","313","<img class='k' src=images/squares/black.png><div class=""fixation"">+</div>","k","","","test_squares","exp","30","8","s","false","sk","s","","","","","","",""
"html-keyboard-response","242","765142","0.0-5.0-5.0-4.30","612cdaa2042b4d9b9fb16acd","not_provided","desktop","0","0","0","","","","","","working_memory","","null","<div class=""fixation"">Incorrect</div>","null","","","","","","","","","","","","","","","","",""
"html-keyboard-response","243","766143","0.0-5.0-5.0-0.31","612cdaa2042b4d9b9fb16acd","not_provided","desktop","0","0","0","","","","","","working_memory","","null","<div class=""fixation"">+</div>","null","","","","","","","","","","","","","","","","",""
"html-keyboard-response","244","766345","0.0-5.0-5.0-1.31","612cdaa2042b4d9b9fb16acd","not_provided","desktop","0","0","0","","","","","","working_memory","","null","<img class='c' src=images/squares/magenta.png><img class='f' src=images/squares/blue.png><img class='i' src=images/squares/black.png><img class='j' src=images/squares/green.png><div class=""fixation"">+</div>","null","","","memory","exp","31","","","","","","","","","","","",""
"html-keyboard-response","245","767246","0.0-5.0-5.0-2.31","612cdaa2042b4d9b9fb16acd","not_provided","desktop","0","0","0","","","","","","working_memory","","null","<div class=""fixation"">+</div>","null","","","","","","","","","","","","","","","","",""
"html-keyboard-response","246","767799","0.0-5.0-5.0-3.31","612cdaa2042b4d9b9fb16acd","not_provided","desktop","0","0","0","","","","","","working_memory","","552","<img class='f' src=images/squares/yellow.png><div class=""fixation"">+</div>","k","","","test_squares","exp","31","4","k","true","sk","d","","","","","","",""
"html-keyboard-response","247","768301","0.0-5.0-5.0-4.31","612cdaa2042b4d9b9fb16acd","not_provided","desktop","0","0","0","","","","","","working_memory","","null","<div class=""fixation"">Correct</div>","null","","","","","","","","","","","","","","","","",""
"html-keyboard-response","248","769302","0.0-5.0-5.0-0.32","612cdaa2042b4d9b9fb16acd","not_provided","desktop","0","0","0","","","","","","working_memory","","null","<div class=""fixation"">+</div>","null","","","","","","","","","","","","","","","","",""
"html-keyboard-response","249","769504","0.0-5.0-5.0-1.32","612cdaa2042b4d9b9fb16acd","not_provided","desktop","0","0","0","","","","","","working_memory","","null","<img class='c' src=images/squares/blue.png><img class='b' src=images/squares/magenta.png><img class='f' src=images/squares/green.png><img class='d' src=images/squares/orange.png><img class='g' src=images/squares/black.png><img class='h' src=images/squares/brown.png><img class='l' src=images/squares/yellow.png><img class='k' src=images/squares/red.png><div class=""fixation"">+</div>","null","","","memory","exp","32","","","","","","","","","","","",""
"html-keyboard-response","250","770405","0.0-5.0-5.0-2.32","612cdaa2042b4d9b9fb16acd","not_provided","desktop","0","0","0","","","","","","working_memory","","null","<div class=""fixation"">+</div>","null","","","","","","","","","","","","","","","","",""
"html-keyboard-response","251","771729","0.0-5.0-5.0-3.32","612cdaa2042b4d9b9fb16acd","not_provided","desktop","0","0","0","","","","","","working_memory","","1323","<img class='g' src=images/squares/black.png><div class=""fixation"">+</div>","k","","","test_squares","exp","32","8","s","false","sk","s","","","","","","",""
"html-keyboard-response","252","772230","0.0-5.0-5.0-4.32","612cdaa2042b4d9b9fb16acd","not_provided","desktop","0","0","0","","","","","","working_memory","","null","<div class=""fixation"">Incorrect</div>","null","","","","","","","","","","","","","","","","",""
"html-keyboard-response","253","773231","0.0-5.0-5.0-0.33","612cdaa2042b4d9b9fb16acd","not_provided","desktop","0","0","0","","","","","","working_memory","","null","<div class=""fixation"">+</div>","null","","","","","","","","","","","","","","","","",""
"html-keyboard-response","254","773433","0.0-5.0-5.0-1.33","612cdaa2042b4d9b9fb16acd","not_provided","desktop","0","0","0","","","","","","working_memory","","null","<img class='c' src=images/squares/green.png><img class='e' src=images/squares/orange.png><img class='h' src=images/squares/brown.png><img class='j' src=images/squares/red.png><div class=""fixation"">+</div>","null","","","memory","exp","33","","","","","","","","","","","",""
"html-keyboard-response","255","774334","0.0-5.0-5.0-2.33","612cdaa2042b4d9b9fb16acd","not_provided","desktop","0","0","0","","","","","","working_memory","","null","<div class=""fixation"">+</div>","null","","","","","","","","","","","","","","","","",""
"html-keyboard-response","256","774930","0.0-5.0-5.0-3.33","612cdaa2042b4d9b9fb16acd","not_provided","desktop","0","0","0","","","","","","working_memory","","594","<img class='e' src=images/squares/orange.png><div class=""fixation"">+</div>","s","","","test_squares","exp","33","4","s","true","sk","s","","","","","","",""
"html-keyboard-response","257","775431","0.0-5.0-5.0-4.33","612cdaa2042b4d9b9fb16acd","not_provided","desktop","0","0","0","","","","","","working_memory","","null","<div class=""fixation"">Correct</div>","null","","","","","","","","","","","","","","","","",""
"html-keyboard-response","258","776432","0.0-5.0-5.0-0.34","612cdaa2042b4d9b9fb16acd","not_provided","desktop","0","0","0","","","","","","working_memory","","null","<div class=""fixation"">+</div>","null","","","","","","","","","","","","","","","","",""
"html-keyboard-response","259","776634","0.0-5.0-5.0-1.34","612cdaa2042b4d9b9fb16acd","not_provided","desktop","0","0","0","","","","","","working_memory","","null","<img class='b' src=images/squares/orange.png><img class='f' src=images/squares/cyan.png><img class='g' src=images/squares/green.png><img class='j' src=images/squares/red.png><div class=""fixation"">+</div>","null","","","memory","exp","34","","","","","","","","","","","",""
"html-keyboard-response","260","777535","0.0-5.0-5.0-2.34","612cdaa2042b4d9b9fb16acd","not_provided","desktop","0","0","0","","","","","","working_memory","","null","<div class=""fixation"">+</div>","null","","","","","","","","","","","","","","","","",""
"html-keyboard-response","261","778616","0.0-5.0-5.0-3.34","612cdaa2042b4d9b9fb16acd","not_provided","desktop","0","0","0","","","","","","working_memory","","1080","<img class='j' src=images/squares/magenta.png><div class=""fixation"">+</div>","k","","","test_squares","exp","34","4","k","true","sk","d","","","","","","",""
"html-keyboard-response","262","779117","0.0-5.0-5.0-4.34","612cdaa2042b4d9b9fb16acd","not_provided","desktop","0","0","0","","","","","","working_memory","","null","<div class=""fixation"">Correct</div>","null","","","","","","","","","","","","","","","","",""
"html-keyboard-response","263","780118","0.0-5.0-5.0-0.35","612cdaa2042b4d9b9fb16acd","not_provided","desktop","0","0","0","","","","","","working_memory","","null","<div class=""fixation"">+</div>","null","","","","","","","","","","","","","","","","",""
"html-keyboard-response","264","780320","0.0-5.0-5.0-1.35","612cdaa2042b4d9b9fb16acd","not_provided","desktop","0","0","0","","","","","","working_memory","","null","<img class='a' src=images/squares/orange.png><img class='f' src=images/squares/cyan.png><img class='h' src=images/squares/black.png><img class='l' src=images/squares/yellow.png><div class=""fixation"">+</div>","null","","","memory","exp","35","","","","","","","","","","","",""
"html-keyboard-response","265","781221","0.0-5.0-5.0-2.35","612cdaa2042b4d9b9fb16acd","not_provided","desktop","0","0","0","","","","","","working_memory","","null","<div class=""fixation"">+</div>","null","","","","","","","","","","","","","","","","",""
"html-keyboard-response","266","781896","0.0-5.0-5.0-3.35","612cdaa2042b4d9b9fb16acd","not_provided","desktop","0","0","0","","","","","","working_memory","","674","<img class='a' src=images/squares/orange.png><div class=""fixation"">+</div>","s","","","test_squares","exp","35","4","s","true","sk","s","","","","","","",""
"html-keyboard-response","267","782397","0.0-5.0-5.0-4.35","612cdaa2042b4d9b9fb16acd","not_provided","desktop","0","0","0","","","","","","working_memory","","null","<div class=""fixation"">Correct</div>","null","","","","","","","","","","","","","","","","",""
"html-keyboard-response","268","783398","0.0-5.0-5.0-0.36","612cdaa2042b4d9b9fb16acd","not_provided","desktop","0","0","0","","","","","","working_memory","","null","<div class=""fixation"">+</div>","null","","","","","","","","","","","","","","","","",""
"html-keyboard-response","269","783600","0.0-5.0-5.0-1.36","612cdaa2042b4d9b9fb16acd","not_provided","desktop","0","0","0","","","","","","working_memory","","null","<img class='c' src=images/squares/blue.png><img class='a' src=images/squares/orange.png><img class='f' src=images/squares/black.png><img class='e' src=images/squares/brown.png><img class='g' src=images/squares/red.png><img class='i' src=images/squares/green.png><img class='k' src=images/squares/yellow.png><img class='j' src=images/squares/magenta.png><div class=""fixation"">+</div>","null","","","memory","exp","36","","","","","","","","","","","",""
"html-keyboard-response","270","784501","0.0-5.0-5.0-2.36","612cdaa2042b4d9b9fb16acd","not_provided","desktop","0","0","0","","","","","","working_memory","","null","<div class=""fixation"">+</div>","null","","","","","","","","","","","","","","","","",""
"html-keyboard-response","271","784771","0.0-5.0-5.0-3.36","612cdaa2042b4d9b9fb16acd","not_provided","desktop","0","0","0","","","","","","working_memory","","269","<img class='f' src=images/squares/black.png><div class=""fixation"">+</div>","k","","","test_squares","exp","36","8","s","false","sk","s","","","","","","",""
"html-keyboard-response","272","785272","0.0-5.0-5.0-4.36","612cdaa2042b4d9b9fb16acd","not_provided","desktop","0","0","0","","","","","","working_memory","","null","<div class=""fixation"">Incorrect</div>","null","","","","","","","","","","","","","","","","",""
"html-keyboard-response","273","786274","0.0-5.0-5.0-0.37","612cdaa2042b4d9b9fb16acd","not_provided","desktop","0","0","0","","","","","","working_memory","","null","<div class=""fixation"">+</div>","null","","","","","","","","","","","","","","","","",""
"html-keyboard-response","274","786475","0.0-5.0-5.0-1.37","612cdaa2042b4d9b9fb16acd","not_provided","desktop","0","0","0","","","","","","working_memory","","null","<img class='c' src=images/squares/magenta.png><img class='a' src=images/squares/yellow.png><img class='e' src=images/squares/brown.png><img class='f' src=images/squares/green.png><img class='i' src=images/squares/red.png><img class='g' src=images/squares/orange.png><img class='l' src=images/squares/blue.png><img class='j' src=images/squares/cyan.png><div class=""fixation"">+</div>","null","","","memory","exp","37","","","","","","","","","","","",""
"html-keyboard-response","275","787377","0.0-5.0-5.0-2.37","612cdaa2042b4d9b9fb16acd","not_provided","desktop","0","0","0","","","","","","working_memory","","null","<div class=""fixation"">+</div>","null","","","","","","","","","","","","","","","","",""
"html-keyboard-response","276","788243","0.0-5.0-5.0-3.37","612cdaa2042b4d9b9fb16acd","not_provided","desktop","0","0","0","","","","","","working_memory","","865","<img class='g' src=images/squares/black.png><div class=""fixation"">+</div>","s","","","test_squares","exp","37","8","k","false","sk","d","","","","","","",""
"html-keyboard-response","277","788744","0.0-5.0-5.0-4.37","612cdaa2042b4d9b9fb16acd","not_provided","desktop","0","0","0","","","","","","working_memory","","null","<div class=""fixation"">Incorrect</div>","null","","","","","","","","","","","","","","","","",""
"html-keyboard-response","278","789746","0.0-5.0-5.0-0.38","612cdaa2042b4d9b9fb16acd","not_provided","desktop","0","0","0","","","","","","working_memory","","null","<div class=""fixation"">+</div>","null","","","","","","","","","","","","","","","","",""
"html-keyboard-response","279","789948","0.0-5.0-5.0-1.38","612cdaa2042b4d9b9fb16acd","not_provided","desktop","0","0","0","","","","","","working_memory","","null","<img class='c' src=images/squares/red.png><img class='a' src=images/squares/yellow.png><img class='e' src=images/squares/magenta.png><img class='f' src=images/squares/black.png><img class='h' src=images/squares/brown.png><img class='g' src=images/squares/green.png><img class='j' src=images/squares/blue.png><img class='k' src=images/squares/cyan.png><div class=""fixation"">+</div>","null","","","memory","exp","38","","","","","","","","","","","",""
"html-keyboard-response","280","790849","0.0-5.0-5.0-2.38","612cdaa2042b4d9b9fb16acd","not_provided","desktop","0","0","0","","","","","","working_memory","","null","<div class=""fixation"">+</div>","null","","","","","","","","","","","","","","","","",""
"html-keyboard-response","281","791547","0.0-5.0-5.0-3.38","612cdaa2042b4d9b9fb16acd","not_provided","desktop","0","0","0","","","","","","working_memory","","696","<img class='c' src=images/squares/red.png><div class=""fixation"">+</div>","k","","","test_squares","exp","38","8","s","false","sk","s","","","","","","",""
"html-keyboard-response","282","792048","0.0-5.0-5.0-4.38","612cdaa2042b4d9b9fb16acd","not_provided","desktop","0","0","0","","","","","","working_memory","","null","<div class=""fixation"">Incorrect</div>","null","","","","","","","","","","","","","","","","",""
"html-keyboard-response","283","793049","0.0-5.0-5.0-0.39","612cdaa2042b4d9b9fb16acd","not_provided","desktop","0","0","0","","","","","","working_memory","","null","<div class=""fixation"">+</div>","null","","","","","","","","","","","","","","","","",""
"html-keyboard-response","284","793251","0.0-5.0-5.0-1.39","612cdaa2042b4d9b9fb16acd","not_provided","desktop","0","0","0","","","","","","working_memory","","null","<img class='c' src=images/squares/black.png><img class='b' src=images/squares/orange.png><img class='e' src=images/squares/green.png><img class='d' src=images/squares/yellow.png><img class='g' src=images/squares/brown.png><img class='i' src=images/squares/magenta.png><img class='k' src=images/squares/blue.png><img class='j' src=images/squares/cyan.png><div class=""fixation"">+</div>","null","","","memory","exp","39","","","","","","","","","","","",""
"html-keyboard-response","285","794152","0.0-5.0-5.0-2.39","612cdaa2042b4d9b9fb16acd","not_provided","desktop","0","0","0","","","","","","working_memory","","null","<div class=""fixation"">+</div>","null","","","","","","","","","","","","","","","","",""
"html-keyboard-response","286","794781","0.0-5.0-5.0-3.39","612cdaa2042b4d9b9fb16acd","not_provided","desktop","0","0","0","","","","","","working_memory","","628","<img class='g' src=images/squares/red.png><div class=""fixation"">+</div>","k","","","test_squares","exp","39","8","k","true","sk","d","","","","","","",""
"html-keyboard-response","287","795283","0.0-5.0-5.0-4.39","612cdaa2042b4d9b9fb16acd","not_provided","desktop","0","0","0","","","","","","working_memory","","null","<div class=""fixation"">Correct</div>","null","","","","","","","","","","","","","","","","",""
"html-keyboard-response","288","796284","0.0-5.0-5.0-0.40","612cdaa2042b4d9b9fb16acd","not_provided","desktop","0","0","0","","","","","","working_memory","","null","<div class=""fixation"">+</div>","null","","","","","","","","","","","","","","","","",""
"html-keyboard-response","289","796486","0.0-5.0-5.0-1.40","612cdaa2042b4d9b9fb16acd","not_provided","desktop","0","0","0","","","","","","working_memory","","null","<img class='b' src=images/squares/green.png><img class='a' src=images/squares/blue.png><img class='d' src=images/squares/red.png><img class='e' src=images/squares/magenta.png><img class='h' src=images/squares/black.png><img class='g' src=images/squares/orange.png><img class='k' src=images/squares/brown.png><img class='j' src=images/squares/cyan.png><div class=""fixation"">+</div>","null","","","memory","exp","40","","","","","","","","","","","",""
"html-keyboard-response","290","797387","0.0-5.0-5.0-2.40","612cdaa2042b4d9b9fb16acd","not_provided","desktop","0","0","0","","","","","","working_memory","","null","<div class=""fixation"">+</div>","null","","","","","","","","","","","","","","","","",""
"html-keyboard-response","291","798263","0.0-5.0-5.0-3.40","612cdaa2042b4d9b9fb16acd","not_provided","desktop","0","0","0","","","","","","working_memory","","876","<img class='b' src=images/squares/green.png><div class=""fixation"">+</div>","s","","","test_squares","exp","40","8","s","true","sk","s","","","","","","",""
"html-keyboard-response","292","798764","0.0-5.0-5.0-4.40","612cdaa2042b4d9b9fb16acd","not_provided","desktop","0","0","0","","","","","","working_memory","","null","<div class=""fixation"">Correct</div>","null","","","","","","","","","","","","","","","","",""
"html-keyboard-response","293","799765","0.0-5.0-5.0-0.41","612cdaa2042b4d9b9fb16acd","not_provided","desktop","0","0","0","","","","","","working_memory","","null","<div class=""fixation"">+</div>","null","","","","","","","","","","","","","","","","",""
"html-keyboard-response","294","799967","0.0-5.0-5.0-1.41","612cdaa2042b4d9b9fb16acd","not_provided","desktop","0","0","0","","","","","","working_memory","","null","<img class='a' src=images/squares/black.png><img class='c' src=images/squares/brown.png><img class='f' src=images/squares/yellow.png><img class='d' src=images/squares/red.png><img class='i' src=images/squares/cyan.png><img class='g' src=images/squares/blue.png><img class='l' src=images/squares/orange.png><img class='j' src=images/squares/magenta.png><div class=""fixation"">+</div>","null","","","memory","exp","41","","","","","","","","","","","",""
"html-keyboard-response","295","800868","0.0-5.0-5.0-2.41","612cdaa2042b4d9b9fb16acd","not_provided","desktop","0","0","0","","","","","","working_memory","","null","<div class=""fixation"">+</div>","null","","","","","","","","","","","","","","","","",""
"html-keyboard-response","296","801413","0.0-5.0-5.0-3.41","612cdaa2042b4d9b9fb16acd","not_provided","desktop","0","0","0","","","","","","working_memory","","544","<img class='g' src=images/squares/blue.png><div class=""fixation"">+</div>","k","","","test_squares","exp","41","8","s","false","sk","s","","","","","","",""
"html-keyboard-response","297","801914","0.0-5.0-5.0-4.41","612cdaa2042b4d9b9fb16acd","not_provided","desktop","0","0","0","","","","","","working_memory","","null","<div class=""fixation"">Incorrect</div>","null","","","","","","","","","","","","","","","","",""
"html-keyboard-response","298","802916","0.0-5.0-5.0-0.42","612cdaa2042b4d9b9fb16acd","not_provided","desktop","0","0","0","","","","","","working_memory","","null","<div class=""fixation"">+</div>","null","","","","","","","","","","","","","","","","",""
"html-keyboard-response","299","803117","0.0-5.0-5.0-1.42","612cdaa2042b4d9b9fb16acd","not_provided","desktop","0","0","0","","","","","","working_memory","","null","<img class='c' src=images/squares/yellow.png><img class='b' src=images/squares/cyan.png><img class='e' src=images/squares/magenta.png><img class='f' src=images/squares/red.png><img class='h' src=images/squares/orange.png><img class='i' src=images/squares/blue.png><img class='j' src=images/squares/green.png><img class='k' src=images/squares/brown.png><div class=""fixation"">+</div>","null","","","memory","exp","42","","","","","","","","","","","",""
"html-keyboard-response","300","804019","0.0-5.0-5.0-2.42","612cdaa2042b4d9b9fb16acd","not_provided","desktop","0","0","0","","","","","","working_memory","","null","<div class=""fixation"">+</div>","null","","","","","","","","","","","","","","","","",""
"html-keyboard-response","301","804630","0.0-5.0-5.0-3.42","612cdaa2042b4d9b9fb16acd","not_provided","desktop","0","0","0","","","","","","working_memory","","610","<img class='j' src=images/squares/green.png><div class=""fixation"">+</div>","k","","","test_squares","exp","42","8","s","false","sk","s","","","","","","",""
"html-keyboard-response","302","805131","0.0-5.0-5.0-4.42","612cdaa2042b4d9b9fb16acd","not_provided","desktop","0","0","0","","","","","","working_memory","","null","<div class=""fixation"">Incorrect</div>","null","","","","","","","","","","","","","","","","",""
"html-keyboard-response","303","806133","0.0-5.0-5.0-0.43","612cdaa2042b4d9b9fb16acd","not_provided","desktop","0","0","0","","","","","","working_memory","","null","<div class=""fixation"">+</div>","null","","","","","","","","","","","","","","","","",""
