"trial_type","trial_index","time_elapsed","internal_node_id","subject_id","study_id","win_chance","device_type","blur_count","fullscreen_exit_count","failed_attention_checks","success","timeout","failed_images","failed_audio","failed_video","phase","view_history","rt","stimulus","response","question_order","trial_name","value","task","block_number","trial_number","choice_key","choice_location","choice_color","choice_key_oneback","choice_location_oneback","choice_color_oneback","unavailable_key","unavailable_location","unavailable_color","unavailable_key_oneback","unavailable_location_oneback","unavailable_color_oneback","reward_oneback","reward","total_score","total_score_oneback","coin_earned","coin_earned_oneback","is_choice_valid","is_timeout_reached","prompt","flipped","attention","expected_answer","category","question_index"
"pavlovia","0","2055","0.0-0.0","69309f7da595fb656eebdeb1","not_provided","0.5","desktop","0","0","0","","","","","","","","","","","","","","","","","","","","","","","","","","","","","","","","","","","","","","","","","",""
"preload","1","4349","0.0-2.0","69309f7da595fb656eebdeb1","not_provided","0.5","desktop","0","0","0","true","false","[]","[]","[]","","","","","","","","","","","","","","","","","","","","","","","","","","","","","","","","","","","","",""
"html-keyboard-response","2","40013","0.0-3.0-0.0","69309f7da595fb656eebdeb1","not_provided","0.5","desktop","0","0","0","","","","","","captcha","","","","","","","","","","","","","","","","","","","","","","","","","","","","","","","","","","","",""
"fullscreen","3","72318","0.0-4.0","69309f7da595fb656eebdeb1","not_provided","0.5","desktop","0","0","0","true","","","","","setup","","","","","","","","","","","","","","","","","","","","","","","","","","","","","","","","","","","",""
"instructions","4","227906","0.0-5.0-0.0-0.0-0.0","69309f7da595fb656eebdeb1","not_provided","0.5","desktop","0","0","0","","","","","","luck_game","[{""page_index"":0,""viewing_time"":9014},{""page_index"":1,""viewing_time"":11640},{""page_index"":2,""viewing_time"":34435},{""page_index"":3,""viewing_time"":16619},{""page_index"":4,""viewing_time"":16353},{""page_index"":5,""viewing_time"":21114},{""page_index"":6,""viewing_time"":9812},{""page_index"":7,""viewing_time"":8677},{""page_index"":8,""viewing_time"":11041},{""page_index"":9,""viewing_time"":10419},{""page_index"":10,""viewing_time"":6461}]","155585","","","","","","","","","","","","","","","","","","","","","","","","","","","","","","","","","",""
"html-button-response","5","252566","0.0-5.0-0.0-1.0","69309f7da595fb656eebdeb1","not_provided","0.5","desktop","0","0","0","","","","","","luck_game","","24656","<div style=""max-width:640px; margin:0 auto; text-align:left;
                               font-family:sans-serif; color:white; padding:10px;"">
            <h3 style=""color:white; text-align:center;"">Quick Reminder</h3>
            <ul style=""line-height:2.1; font-size:1.05em;"">
                <li>There are <strong>3 luck machines</strong>:
                    <span style=""color:#5599ff""><strong>Blue</strong></span> (&uarr; Up),
                    <span style=""color:#55cc55""><strong>Green</strong></span> (&larr; Left),
                    <span style=""color:#ff5555""><strong>Red</strong></span> (&rarr; Right)</li>
                <li>Each turn, <strong>2 machines are READY</strong> and 1 is
                    <strong>unavailable</strong> (shown as a colored outline)</li>
                <li>Press the corresponding arrow key to activate a READY machine</li>
                <li>Activating an <strong>unavailable</strong> machine: lose your turn + time penalty</li>
                <li>Activating a READY machine: <strong class=""win-text"">50% win +&pound;0.05</strong>
                    / <strong class=""lose-text"">50% lose &minus;&pound;0.05</strong></li>
                <li><strong>Time limit:</strong> 6 seconds per turn &mdash; don&rsquo;t miss your chance!</li>
                <li><strong>Goal:</strong> Quickly activate READY machines, avoid unavailable ones</li>
            </ul>
        </div>","0","","","","","","","","","","","","","","","","","","","","","","","","","","","","","","","",""
"survey-multi-choice","6","334189","0.0-5.0-0.0-2.0","69309f7da595fb656eebdeb1","not_provided","0.5","desktop","0","0","0","","","","","","luck_game","","81614","","{""q_total_machines"":""3"",""q_ready_machines"":""2"",""q_blue_key"":""↑ Up arrow key"",""q_red_key"":""→ Right arrow key"",""q_outcome"":""The red machine is unavailable. I will lose my turn and chance to win coins, and get a time penalty."",""q_ready_outcome"":""I will either win a coin (+0.05£) or lose a coin (−0.05£)."",""q_goal"":""My goal is to quickly activate available luck machines, avoiding unavailable machines. If I am lucky, I will get rewarded."",""q_win_rates"":""Red: 50% win rate — Blue: 50% win rate — Green: 50% win rate""}","[0,1,2,3,4,5,6,7]","luck_game_quiz","","","","","","","","","","","","","","","","","","","","","","","","","","","","","",""
"html-keyboard-response","7","338442","0.0-5.0-1.0","69309f7da595fb656eebdeb1","not_provided","0.5","desktop","0","0","0","","","","","","luck_game","","4248","
            <div style=""max-width: 600px; margin: 0 auto; text-align: center; font-family: sans-serif;"">
                <h2 style=""color: white;"">Good job, you learned the instructions!</h2>
                <p>We will now move to a short <strong>training phase</strong> to get you familiar with the game.</p>
                <p>Your score will <strong>not</strong> be counted during training.</p>
                <br>
                <p><strong>Press Space to start training.</strong></p>
            </div>"," ","","","","","","","","","","","","","","","","","","","","","","","","","","","","","","","",""
"call-function","8","338443","0.0-5.0-2.0","69309f7da595fb656eebdeb1","not_provided","0.5","desktop","0","0","0","","","","","","luck_game","","","","","","","","","","","","","","","","","","","","","","","","","","","","","","","","","","","",""
"html-keyboard-response","9","341609","0.0-5.0-3.0","69309f7da595fb656eebdeb1","not_provided","0.5","desktop","0","0","0","","","","","","luck_game","","3165","<div class=""experiment-container""><div class=""center-zone""><div class=""cross""></div><div class=""triangle-grid""><div class=""machine top-center blue""></div><div class=""machine bottom-left green""></div><div class=""machine bottom-right red-outline""></div></div></div></div>","arrowup","","","","gambling_choice","training","1","arrowup","top-center","blue","null","null","null","arrowright","bottom-right","red","null","null","null","null","0","0","0","-0.05","null","true","false","","","","","",""
"html-keyboard-response","10","341712","0.0-5.0-4.0-0.0","69309f7da595fb656eebdeb1","not_provided","0.5","desktop","0","0","0","","","","","","luck_game","","null","<div class=""experiment-container""><div class=""center-zone""><div class=""cross""></div><div class=""triangle-grid""><div class=""machine top-center blue""></div><div class=""machine bottom-left green""></div><div class=""machine bottom-right red-outline""></div></div></div></div>","null","","","","","","","","","","","","","","","","","","","","","","","","","","","","","","","",""
"html-keyboard-response","11","342215","0.0-5.0-5.0-0.0","69309f7da595fb656eebdeb1","not_provided","0.5","desktop","0","0","0","","","","","","luck_game","","null","<div class=""experiment-container""><div class=""center-zone""><div class=""cross""></div></div></div>","null","","","","","","","","","","","","","","","","","","","","","","","","","","","","","","","",""
"html-keyboard-response","12","343219","0.0-5.0-6.0-0.0","69309f7da595fb656eebdeb1","not_provided","0.5","desktop","0","0","0","","","","","","luck_game","","null","<div class=""experiment-container""><div class=""center-zone""><div class=""cross""></div>
                <div style=""position: absolute; z-index: 10; display: flex; flex-direction: column; align-items: center; justify-content: center;"">
                    <div class=""lose-text"" style=""font-size: 48px; font-weight: bold; margin-bottom: 20px; text-shadow: 2px 2px 4px #000;"">LOSE</div>
                    <img src=""images/coin_no_reward.png"" class=""reward-img"" style=""background-color: black; border-radius: 50%;"">
                    <div class=""lose-text"" style=""font-size: 48px; font-weight: bold; margin-top: 20px; text-shadow: 2px 2px 4px #000;"">-0.05&pound;</div>
                </div></div></div>","null","","","","","","","","","","","","","","","","","","","","","","","","","","","","","","","",""
"html-keyboard-response","13","344737","0.0-5.0-9.0","69309f7da595fb656eebdeb1","not_provided","0.5","desktop","0","0","0","","","","","","luck_game","","1516","<div class=""experiment-container""><div class=""center-zone""><div class=""cross""></div><div class=""triangle-grid""><div class=""machine top-center blue""></div><div class=""machine bottom-left green""></div><div class=""machine bottom-right red-outline""></div></div></div></div>","arrowleft","","","","gambling_choice","training","2","arrowleft","bottom-left","green","arrowup","top-center","blue","arrowright","bottom-right","red","arrowright","bottom-right","red","0","1","0","0","0.05","-0.05","true","false","","","","","",""
"html-keyboard-response","14","344840","0.0-5.0-10.0-0.0","69309f7da595fb656eebdeb1","not_provided","0.5","desktop","0","0","0","","","","","","luck_game","","null","<div class=""experiment-container""><div class=""center-zone""><div class=""cross""></div><div class=""triangle-grid""><div class=""machine top-center blue""></div><div class=""machine bottom-left green""></div><div class=""machine bottom-right red-outline""></div></div></div></div>","null","","","","","","","","","","","","","","","","","","","","","","","","","","","","","","","",""
"html-keyboard-response","15","345342","0.0-5.0-11.0-0.0","69309f7da595fb656eebdeb1","not_provided","0.5","desktop","0","0","0","","","","","","luck_game","","null","<div class=""experiment-container""><div class=""center-zone""><div class=""cross""></div></div></div>","null","","","","","","","","","","","","","","","","","","","","","","","","","","","","","","","",""
"html-keyboard-response","16","346345","0.0-5.0-12.0-0.0","69309f7da595fb656eebdeb1","not_provided","0.5","desktop","0","0","0","","","","","","luck_game","","null","<div class=""experiment-container""><div class=""center-zone""><div class=""cross""></div>
                <div style=""position: absolute; z-index: 10; display: flex; flex-direction: column; align-items: center; justify-content: center;"">
                    <div class=""win-text"" style=""font-size: 48px; font-weight: bold; margin-bottom: 20px; text-shadow: 2px 2px 4px #000;"">WIN</div>
                    <img src=""images/coin_reward.png"" class=""reward-img"" style=""background-color: black; border-radius: 50%;"">
                    <div class=""win-text"" style=""font-size: 48px; font-weight: bold; margin-top: 20px; text-shadow: 2px 2px 4px #000;"">+0.05&pound;</div>
                </div></div></div>","null","","","","","","","","","","","","","","","","","","","","","","","","","","","","","","","",""
"html-keyboard-response","17","348245","0.0-5.0-15.0","69309f7da595fb656eebdeb1","not_provided","0.5","desktop","0","0","0","","","","","","luck_game","","1898","<div class=""experiment-container""><div class=""center-zone""><div class=""cross""></div><div class=""triangle-grid""><div class=""machine top-center blue-outline""></div><div class=""machine bottom-left green""></div><div class=""machine bottom-right red""></div></div></div></div>","arrowleft","","","","gambling_choice","training","3","arrowleft","bottom-left","green","arrowleft","bottom-left","green","arrowup","top-center","blue","arrowright","bottom-right","red","1","1","0","0","0.05","0.05","true","false","","","","","",""
"html-keyboard-response","18","348348","0.0-5.0-16.0-0.0","69309f7da595fb656eebdeb1","not_provided","0.5","desktop","0","0","0","","","","","","luck_game","","null","<div class=""experiment-container""><div class=""center-zone""><div class=""cross""></div><div class=""triangle-grid""><div class=""machine top-center blue-outline""></div><div class=""machine bottom-left green""></div><div class=""machine bottom-right red""></div></div></div></div>","null","","","","","","","","","","","","","","","","","","","","","","","","","","","","","","","",""
"html-keyboard-response","19","348850","0.0-5.0-17.0-0.0","69309f7da595fb656eebdeb1","not_provided","0.5","desktop","0","0","0","","","","","","luck_game","","null","<div class=""experiment-container""><div class=""center-zone""><div class=""cross""></div></div></div>","null","","","","","","","","","","","","","","","","","","","","","","","","","","","","","","","",""
"html-keyboard-response","20","349853","0.0-5.0-18.0-0.0","69309f7da595fb656eebdeb1","not_provided","0.5","desktop","0","0","0","","","","","","luck_game","","null","<div class=""experiment-container""><div class=""center-zone""><div class=""cross""></div>
                <div style=""position: absolute; z-index: 10; display: flex; flex-direction: column; align-items: center; justify-content: center;"">
                    <div class=""win-text"" style=""font-size: 48px; font-weight: bold; margin-bottom: 20px; text-shadow: 2px 2px 4px #000;"">WIN</div>
                    <img src=""images/coin_reward.png"" class=""reward-img"" style=""background-color: black; border-radius: 50%;"">
                    <div class=""win-text"" style=""font-size: 48px; font-weight: bold; margin-top: 20px; text-shadow: 2px 2px 4px #000;"">+0.05&pound;</div>
                </div></div></div>","null","","","","","","","","","","","","","","","","","","","","","","","","","","","","","","","",""
"html-keyboard-response","21","351181","0.0-5.0-21.0","69309f7da595fb656eebdeb1","not_provided","0.5","desktop","0","0","0","","","","","","luck_game","","1327","<div class=""experiment-container""><div class=""center-zone""><div class=""cross""></div><div class=""triangle-grid""><div class=""machine top-center blue-outline""></div><div class=""machine bottom-left green""></div><div class=""machine bottom-right red""></div></div></div></div>","arrowright","","","","gambling_choice","training","4","arrowright","bottom-right","red","arrowleft","bottom-left","green","arrowup","top-center","blue","arrowup","top-center","blue","1","0","0","0","-0.05","0.05","true","false","","","","","",""
"html-keyboard-response","22","351283","0.0-5.0-22.0-0.0","69309f7da595fb656eebdeb1","not_provided","0.5","desktop","0","0","0","","","","","","luck_game","","null","<div class=""experiment-container""><div class=""center-zone""><div class=""cross""></div><div class=""triangle-grid""><div class=""machine top-center blue-outline""></div><div class=""machine bottom-left green""></div><div class=""machine bottom-right red""></div></div></div></div>","null","","","","","","","","","","","","","","","","","","","","","","","","","","","","","","","",""
"html-keyboard-response","23","351787","0.0-5.0-23.0-0.0","69309f7da595fb656eebdeb1","not_provided","0.5","desktop","0","0","0","","","","","","luck_game","","null","<div class=""experiment-container""><div class=""center-zone""><div class=""cross""></div></div></div>","null","","","","","","","","","","","","","","","","","","","","","","","","","","","","","","","",""
"html-keyboard-response","24","352789","0.0-5.0-24.0-0.0","69309f7da595fb656eebdeb1","not_provided","0.5","desktop","0","0","0","","","","","","luck_game","","null","<div class=""experiment-container""><div class=""center-zone""><div class=""cross""></div>
                <div style=""position: absolute; z-index: 10; display: flex; flex-direction: column; align-items: center; justify-content: center;"">
                    <div class=""lose-text"" style=""font-size: 48px; font-weight: bold; margin-bottom: 20px; text-shadow: 2px 2px 4px #000;"">LOSE</div>
                    <img src=""images/coin_no_reward.png"" class=""reward-img"" style=""background-color: black; border-radius: 50%;"">
                    <div class=""lose-text"" style=""font-size: 48px; font-weight: bold; margin-top: 20px; text-shadow: 2px 2px 4px #000;"">-0.05&pound;</div>
                </div></div></div>","null","","","","","","","","","","","","","","","","","","","","","","","","","","","","","","","",""
"call-function","25","352790","0.0-5.0-27.0","69309f7da595fb656eebdeb1","not_provided","0.5","desktop","0","0","0","","","","","","luck_game","","","","","","","","","","","","","","","","","","","","","","","","","","","","","","","","","","","",""
"html-keyboard-response","26","357216","0.0-5.0-28.0","69309f7da595fb656eebdeb1","not_provided","0.5","desktop","0","0","0","","","","","","luck_game","","4424","
            <div style=""max-width: 600px; margin: 0 auto; text-align: center; font-family: sans-serif;"">
                <h2 style=""color: white;"">Training Complete</h2>
                <p>You will now start the real game.</p>
                <br>
                <p><strong>Press Space to begin.</strong></p>
            </div>"," ","","","","","","","","","","","","","","","","","","","","","","","","","","","","","","","",""
"html-keyboard-response","27","358283","0.0-5.0-29.0","69309f7da595fb656eebdeb1","not_provided","0.5","desktop","0","0","0","","","","","","luck_game","","1065","<div id=""score-counter"">TOTAL SCORE: &pound;0.00</div><div class=""experiment-container""><div class=""center-zone""><div class=""cross""></div><div class=""triangle-grid""><div class=""machine top-center blue-outline""></div><div class=""machine bottom-left green""></div><div class=""machine bottom-right red""></div></div></div></div>","arrowleft","","","","gambling_choice","1","1","arrowleft","bottom-left","green","arrowright","bottom-right","red","arrowup","top-center","blue","arrowup","top-center","blue","0","1","0.05","0","0.05","-0.05","true","false","","","","","",""
"html-keyboard-response","28","358385","0.0-5.0-30.0-0.0","69309f7da595fb656eebdeb1","not_provided","0.5","desktop","0","0","0","","","","","","luck_game","","null","<div id=""score-counter"">TOTAL SCORE: &pound;0.00</div><div class=""experiment-container""><div class=""center-zone""><div class=""cross""></div><div class=""triangle-grid""><div class=""machine top-center blue-outline""></div><div class=""machine bottom-left green""></div><div class=""machine bottom-right red""></div></div></div></div>","null","","","","","","","","","","","","","","","","","","","","","","","","","","","","","","","",""
"html-keyboard-response","29","358888","0.0-5.0-31.0-0.0","69309f7da595fb656eebdeb1","not_provided","0.5","desktop","0","0","0","","","","","","luck_game","","null","<div id=""score-counter"">TOTAL SCORE: &pound;0.00</div><div class=""experiment-container""><div class=""center-zone""><div class=""cross""></div></div></div>","null","","","","","","","","","","","","","","","","","","","","","","","","","","","","","","","",""
"html-keyboard-response","30","359892","0.0-5.0-32.0-0.0","69309f7da595fb656eebdeb1","not_provided","0.5","desktop","0","0","0","","","","","","luck_game","","null","<div id=""score-counter"">TOTAL SCORE: &pound;0.05</div><div class=""experiment-container""><div class=""center-zone""><div class=""cross""></div>
                <div style=""position: absolute; z-index: 10; display: flex; flex-direction: column; align-items: center; justify-content: center;"">
                    <div class=""win-text"" style=""font-size: 48px; font-weight: bold; margin-bottom: 20px; text-shadow: 2px 2px 4px #000;"">WIN</div>
                    <img src=""images/coin_reward.png"" class=""reward-img"" style=""background-color: black; border-radius: 50%;"">
                    <div class=""win-text"" style=""font-size: 48px; font-weight: bold; margin-top: 20px; text-shadow: 2px 2px 4px #000;"">+0.05&pound;</div>
                </div></div></div>","null","","","","","","","","","","","","","","","","","","","","","","","","","","","","","","","",""
"html-keyboard-response","31","361319","0.0-5.0-35.0","69309f7da595fb656eebdeb1","not_provided","0.5","desktop","0","0","0","","","","","","luck_game","","1425","<div id=""score-counter"">TOTAL SCORE: &pound;0.05</div><div class=""experiment-container""><div class=""center-zone""><div class=""cross""></div><div class=""triangle-grid""><div class=""machine top-center blue""></div><div class=""machine bottom-left green-outline""></div><div class=""machine bottom-right red""></div></div></div></div>","arrowup","","","","gambling_choice","1","2","arrowup","top-center","blue","arrowleft","bottom-left","green","arrowleft","bottom-left","green","arrowup","top-center","blue","1","0","0","0.05","-0.05","0.05","true","false","","","","","",""
"html-keyboard-response","32","361421","0.0-5.0-36.0-0.0","69309f7da595fb656eebdeb1","not_provided","0.5","desktop","0","0","0","","","","","","luck_game","","null","<div id=""score-counter"">TOTAL SCORE: &pound;0.05</div><div class=""experiment-container""><div class=""center-zone""><div class=""cross""></div><div class=""triangle-grid""><div class=""machine top-center blue""></div><div class=""machine bottom-left green-outline""></div><div class=""machine bottom-right red""></div></div></div></div>","null","","","","","","","","","","","","","","","","","","","","","","","","","","","","","","","",""
"html-keyboard-response","33","361923","0.0-5.0-37.0-0.0","69309f7da595fb656eebdeb1","not_provided","0.5","desktop","0","0","0","","","","","","luck_game","","null","<div id=""score-counter"">TOTAL SCORE: &pound;0.05</div><div class=""experiment-container""><div class=""center-zone""><div class=""cross""></div></div></div>","null","","","","","","","","","","","","","","","","","","","","","","","","","","","","","","","",""
"html-keyboard-response","34","362926","0.0-5.0-38.0-0.0","69309f7da595fb656eebdeb1","not_provided","0.5","desktop","0","0","0","","","","","","luck_game","","null","<div id=""score-counter"">TOTAL SCORE: &pound;0.00</div><div class=""experiment-container""><div class=""center-zone""><div class=""cross""></div>
                <div style=""position: absolute; z-index: 10; display: flex; flex-direction: column; align-items: center; justify-content: center;"">
                    <div class=""lose-text"" style=""font-size: 48px; font-weight: bold; margin-bottom: 20px; text-shadow: 2px 2px 4px #000;"">LOSE</div>
                    <img src=""images/coin_no_reward.png"" class=""reward-img"" style=""background-color: black; border-radius: 50%;"">
                    <div class=""lose-text"" style=""font-size: 48px; font-weight: bold; margin-top: 20px; text-shadow: 2px 2px 4px #000;"">-0.05&pound;</div>
                </div></div></div>","null","","","","","","","","","","","","","","","","","","","","","","","","","","","","","","","",""
"html-keyboard-response","35","363810","0.0-5.0-41.0","69309f7da595fb656eebdeb1","not_provided","0.5","desktop","0","0","0","","","","","","luck_game","","881","<div id=""score-counter"">TOTAL SCORE: &pound;0.00</div><div class=""experiment-container""><div class=""center-zone""><div class=""cross""></div><div class=""triangle-grid""><div class=""machine top-center blue-outline""></div><div class=""machine bottom-left green""></div><div class=""machine bottom-right red""></div></div></div></div>","arrowright","","","","gambling_choice","1","3","arrowright","bottom-right","red","arrowup","top-center","blue","arrowup","top-center","blue","arrowleft","bottom-left","green","0","0","0","0","-0.05","-0.05","true","false","","","","","",""
"html-keyboard-response","36","363912","0.0-5.0-42.0-0.0","69309f7da595fb656eebdeb1","not_provided","0.5","desktop","0","0","0","","","","","","luck_game","","null","<div id=""score-counter"">TOTAL SCORE: &pound;0.00</div><div class=""experiment-container""><div class=""center-zone""><div class=""cross""></div><div class=""triangle-grid""><div class=""machine top-center blue-outline""></div><div class=""machine bottom-left green""></div><div class=""machine bottom-right red""></div></div></div></div>","null","","","","","","","","","","","","","","","","","","","","","","","","","","","","","","","",""
"html-keyboard-response","37","364415","0.0-5.0-43.0-0.0","69309f7da595fb656eebdeb1","not_provided","0.5","desktop","0","0","0","","","","","","luck_game","","null","<div id=""score-counter"">TOTAL SCORE: &pound;0.00</div><div class=""experiment-container""><div class=""center-zone""><div class=""cross""></div></div></div>","null","","","","","","","","","","","","","","","","","","","","","","","","","","","","","","","",""
"html-keyboard-response","38","365419","0.0-5.0-44.0-0.0","69309f7da595fb656eebdeb1","not_provided","0.5","desktop","0","0","0","","","","","","luck_game","","null","<div id=""score-counter"">TOTAL SCORE: &pound;0.00</div><div class=""experiment-container""><div class=""center-zone""><div class=""cross""></div>
                <div style=""position: absolute; z-index: 10; display: flex; flex-direction: column; align-items: center; justify-content: center;"">
                    <div class=""lose-text"" style=""font-size: 48px; font-weight: bold; margin-bottom: 20px; text-shadow: 2px 2px 4px #000;"">LOSE</div>
                    <img src=""images/coin_no_reward.png"" class=""reward-img"" style=""background-color: black; border-radius: 50%;"">
                    <div class=""lose-text"" style=""font-size: 48px; font-weight: bold; margin-top: 20px; text-shadow: 2px 2px 4px #000;"">-0.05&pound;</div>
                </div></div></div>","null","","","","","","","","","","","","","","","","","","","","","","","","","","","","","","","",""
"html-keyboard-response","39","366563","0.0-5.0-47.0","69309f7da595fb656eebdeb1","not_provided","0.5","desktop","0","0","0","","","","","","luck_game","","1142","<div id=""score-counter"">TOTAL SCORE: &pound;0.00</div><div class=""experiment-container""><div class=""center-zone""><div class=""cross""></div><div class=""triangle-grid""><div class=""machine top-center blue-outline""></div><div class=""machine bottom-left green""></div><div class=""machine bottom-right red""></div></div></div></div>","arrowup","","","","gambling_choice","1","4","arrowup","top-center","blue","arrowright","bottom-right","red","arrowup","top-center","blue","arrowup","top-center","blue","0","0","0","0","0","-0.05","false","false","","","","","",""
"html-keyboard-response","40","369565","0.0-5.0-52.0-0.0","69309f7da595fb656eebdeb1","not_provided","0.5","desktop","0","0","0","","","","","","luck_game","","null","
            <div id=""score-counter"">TOTAL SCORE: &pound;0.00</div>
            <div class=""experiment-container"">
                <div class=""center-zone"">
                    <p class=""feedback-text"" style=""margin: 0;"">Not available!</p>
                </div>
            </div>","null","","","","","","","","","","","","","","","","","","","","","","","","","","","","","","","",""
"html-keyboard-response","41","370390","0.0-5.0-53.0","69309f7da595fb656eebdeb1","not_provided","0.5","desktop","0","0","0","","","","","","luck_game","","824","<div id=""score-counter"">TOTAL SCORE: &pound;0.00</div><div class=""experiment-container""><div class=""center-zone""><div class=""cross""></div><div class=""triangle-grid""><div class=""machine top-center blue-outline""></div><div class=""machine bottom-left green""></div><div class=""machine bottom-right red""></div></div></div></div>","arrowleft","","","","gambling_choice","1","5","arrowleft","bottom-left","green","arrowup","top-center","blue","arrowup","top-center","blue","arrowup","top-center","blue","0","0","0","0","-0.05","0","true","false","","","","","",""
"html-keyboard-response","42","370494","0.0-5.0-54.0-0.0","69309f7da595fb656eebdeb1","not_provided","0.5","desktop","0","0","0","","","","","","luck_game","","null","<div id=""score-counter"">TOTAL SCORE: &pound;0.00</div><div class=""experiment-container""><div class=""center-zone""><div class=""cross""></div><div class=""triangle-grid""><div class=""machine top-center blue-outline""></div><div class=""machine bottom-left green""></div><div class=""machine bottom-right red""></div></div></div></div>","null","","","","","","","","","","","","","","","","","","","","","","","","","","","","","","","",""
"html-keyboard-response","43","370996","0.0-5.0-55.0-0.0","69309f7da595fb656eebdeb1","not_provided","0.5","desktop","0","0","0","","","","","","luck_game","","null","<div id=""score-counter"">TOTAL SCORE: &pound;0.00</div><div class=""experiment-container""><div class=""center-zone""><div class=""cross""></div></div></div>","null","","","","","","","","","","","","","","","","","","","","","","","","","","","","","","","",""
"html-keyboard-response","44","371999","0.0-5.0-56.0-0.0","69309f7da595fb656eebdeb1","not_provided","0.5","desktop","0","0","0","","","","","","luck_game","","null","<div id=""score-counter"">TOTAL SCORE: &pound;0.00</div><div class=""experiment-container""><div class=""center-zone""><div class=""cross""></div>
                <div style=""position: absolute; z-index: 10; display: flex; flex-direction: column; align-items: center; justify-content: center;"">
                    <div class=""lose-text"" style=""font-size: 48px; font-weight: bold; margin-bottom: 20px; text-shadow: 2px 2px 4px #000;"">LOSE</div>
                    <img src=""images/coin_no_reward.png"" class=""reward-img"" style=""background-color: black; border-radius: 50%;"">
                    <div class=""lose-text"" style=""font-size: 48px; font-weight: bold; margin-top: 20px; text-shadow: 2px 2px 4px #000;"">-0.05&pound;</div>
                </div></div></div>","null","","","","","","","","","","","","","","","","","","","","","","","","","","","","","","","",""
"html-keyboard-response","45","373569","0.0-5.0-59.0","69309f7da595fb656eebdeb1","not_provided","0.5","desktop","0","0","0","","","","","","luck_game","","1569","<div id=""score-counter"">TOTAL SCORE: &pound;0.00</div><div class=""experiment-container""><div class=""center-zone""><div class=""cross""></div><div class=""triangle-grid""><div class=""machine top-center blue""></div><div class=""machine bottom-left green-outline""></div><div class=""machine bottom-right red""></div></div></div></div>","arrowup","","","","gambling_choice","1","6","arrowup","top-center","blue","arrowleft","bottom-left","green","arrowleft","bottom-left","green","arrowup","top-center","blue","0","0","0","0","-0.05","-0.05","true","false","","","","","",""
"html-keyboard-response","46","373671","0.0-5.0-60.0-0.0","69309f7da595fb656eebdeb1","not_provided","0.5","desktop","0","0","0","","","","","","luck_game","","null","<div id=""score-counter"">TOTAL SCORE: &pound;0.00</div><div class=""experiment-container""><div class=""center-zone""><div class=""cross""></div><div class=""triangle-grid""><div class=""machine top-center blue""></div><div class=""machine bottom-left green-outline""></div><div class=""machine bottom-right red""></div></div></div></div>","null","","","","","","","","","","","","","","","","","","","","","","","","","","","","","","","",""
"html-keyboard-response","47","374173","0.0-5.0-61.0-0.0","69309f7da595fb656eebdeb1","not_provided","0.5","desktop","0","0","0","","","","","","luck_game","","null","<div id=""score-counter"">TOTAL SCORE: &pound;0.00</div><div class=""experiment-container""><div class=""center-zone""><div class=""cross""></div></div></div>","null","","","","","","","","","","","","","","","","","","","","","","","","","","","","","","","",""
"html-keyboard-response","48","375176","0.0-5.0-62.0-0.0","69309f7da595fb656eebdeb1","not_provided","0.5","desktop","0","0","0","","","","","","luck_game","","null","<div id=""score-counter"">TOTAL SCORE: &pound;0.00</div><div class=""experiment-container""><div class=""center-zone""><div class=""cross""></div>
                <div style=""position: absolute; z-index: 10; display: flex; flex-direction: column; align-items: center; justify-content: center;"">
                    <div class=""lose-text"" style=""font-size: 48px; font-weight: bold; margin-bottom: 20px; text-shadow: 2px 2px 4px #000;"">LOSE</div>
                    <img src=""images/coin_no_reward.png"" class=""reward-img"" style=""background-color: black; border-radius: 50%;"">
                    <div class=""lose-text"" style=""font-size: 48px; font-weight: bold; margin-top: 20px; text-shadow: 2px 2px 4px #000;"">-0.05&pound;</div>
                </div></div></div>","null","","","","","","","","","","","","","","","","","","","","","","","","","","","","","","","",""
"html-keyboard-response","49","375973","0.0-5.0-65.0","69309f7da595fb656eebdeb1","not_provided","0.5","desktop","0","0","0","","","","","","luck_game","","794","<div id=""score-counter"">TOTAL SCORE: &pound;0.00</div><div class=""experiment-container""><div class=""center-zone""><div class=""cross""></div><div class=""triangle-grid""><div class=""machine top-center blue-outline""></div><div class=""machine bottom-left green""></div><div class=""machine bottom-right red""></div></div></div></div>","arrowright","","","","gambling_choice","1","7","arrowright","bottom-right","red","arrowup","top-center","blue","arrowup","top-center","blue","arrowleft","bottom-left","green","0","0","0","0","-0.05","-0.05","true","false","","","","","",""
"html-keyboard-response","50","376075","0.0-5.0-66.0-0.0","69309f7da595fb656eebdeb1","not_provided","0.5","desktop","0","0","0","","","","","","luck_game","","null","<div id=""score-counter"">TOTAL SCORE: &pound;0.00</div><div class=""experiment-container""><div class=""center-zone""><div class=""cross""></div><div class=""triangle-grid""><div class=""machine top-center blue-outline""></div><div class=""machine bottom-left green""></div><div class=""machine bottom-right red""></div></div></div></div>","null","","","","","","","","","","","","","","","","","","","","","","","","","","","","","","","",""
"html-keyboard-response","51","376577","0.0-5.0-67.0-0.0","69309f7da595fb656eebdeb1","not_provided","0.5","desktop","0","0","0","","","","","","luck_game","","null","<div id=""score-counter"">TOTAL SCORE: &pound;0.00</div><div class=""experiment-container""><div class=""center-zone""><div class=""cross""></div></div></div>","null","","","","","","","","","","","","","","","","","","","","","","","","","","","","","","","",""
"html-keyboard-response","52","377580","0.0-5.0-68.0-0.0","69309f7da595fb656eebdeb1","not_provided","0.5","desktop","0","0","0","","","","","","luck_game","","null","<div id=""score-counter"">TOTAL SCORE: &pound;0.00</div><div class=""experiment-container""><div class=""center-zone""><div class=""cross""></div>
                <div style=""position: absolute; z-index: 10; display: flex; flex-direction: column; align-items: center; justify-content: center;"">
                    <div class=""lose-text"" style=""font-size: 48px; font-weight: bold; margin-bottom: 20px; text-shadow: 2px 2px 4px #000;"">LOSE</div>
                    <img src=""images/coin_no_reward.png"" class=""reward-img"" style=""background-color: black; border-radius: 50%;"">
                    <div class=""lose-text"" style=""font-size: 48px; font-weight: bold; margin-top: 20px; text-shadow: 2px 2px 4px #000;"">-0.05&pound;</div>
                </div></div></div>","null","","","","","","","","","","","","","","","","","","","","","","","","","","","","","","","",""
"html-keyboard-response","53","378580","0.0-5.0-71.0","69309f7da595fb656eebdeb1","not_provided","0.5","desktop","0","0","0","","","","","","luck_game","","998","<div id=""score-counter"">TOTAL SCORE: &pound;0.00</div><div class=""experiment-container""><div class=""center-zone""><div class=""cross""></div><div class=""triangle-grid""><div class=""machine top-center blue""></div><div class=""machine bottom-left green""></div><div class=""machine bottom-right red-outline""></div></div></div></div>","arrowup","","","","gambling_choice","1","8","arrowup","top-center","blue","arrowright","bottom-right","red","arrowright","bottom-right","red","arrowup","top-center","blue","0","1","0.05","0","0.05","-0.05","true","false","","","","","",""
"html-keyboard-response","54","378681","0.0-5.0-72.0-0.0","69309f7da595fb656eebdeb1","not_provided","0.5","desktop","0","0","0","","","","","","luck_game","","null","<div id=""score-counter"">TOTAL SCORE: &pound;0.00</div><div class=""experiment-container""><div class=""center-zone""><div class=""cross""></div><div class=""triangle-grid""><div class=""machine top-center blue""></div><div class=""machine bottom-left green""></div><div class=""machine bottom-right red-outline""></div></div></div></div>","null","","","","","","","","","","","","","","","","","","","","","","","","","","","","","","","",""
"html-keyboard-response","55","379183","0.0-5.0-73.0-0.0","69309f7da595fb656eebdeb1","not_provided","0.5","desktop","0","0","0","","","","","","luck_game","","null","<div id=""score-counter"">TOTAL SCORE: &pound;0.00</div><div class=""experiment-container""><div class=""center-zone""><div class=""cross""></div></div></div>","null","","","","","","","","","","","","","","","","","","","","","","","","","","","","","","","",""
"html-keyboard-response","56","380186","0.0-5.0-74.0-0.0","69309f7da595fb656eebdeb1","not_provided","0.5","desktop","0","0","0","","","","","","luck_game","","null","<div id=""score-counter"">TOTAL SCORE: &pound;0.05</div><div class=""experiment-container""><div class=""center-zone""><div class=""cross""></div>
                <div style=""position: absolute; z-index: 10; display: flex; flex-direction: column; align-items: center; justify-content: center;"">
                    <div class=""win-text"" style=""font-size: 48px; font-weight: bold; margin-bottom: 20px; text-shadow: 2px 2px 4px #000;"">WIN</div>
                    <img src=""images/coin_reward.png"" class=""reward-img"" style=""background-color: black; border-radius: 50%;"">
                    <div class=""win-text"" style=""font-size: 48px; font-weight: bold; margin-top: 20px; text-shadow: 2px 2px 4px #000;"">+0.05&pound;</div>
                </div></div></div>","null","","","","","","","","","","","","","","","","","","","","","","","","","","","","","","","",""
"html-keyboard-response","57","381040","0.0-5.0-77.0","69309f7da595fb656eebdeb1","not_provided","0.5","desktop","0","0","0","","","","","","luck_game","","852","<div id=""score-counter"">TOTAL SCORE: &pound;0.05</div><div class=""experiment-container""><div class=""center-zone""><div class=""cross""></div><div class=""triangle-grid""><div class=""machine top-center blue""></div><div class=""machine bottom-left green-outline""></div><div class=""machine bottom-right red""></div></div></div></div>","arrowup","","","","gambling_choice","1","9","arrowup","top-center","blue","arrowup","top-center","blue","arrowleft","bottom-left","green","arrowright","bottom-right","red","1","0","0","0.05","-0.05","0.05","true","false","","","","","",""
"html-keyboard-response","58","381143","0.0-5.0-78.0-0.0","69309f7da595fb656eebdeb1","not_provided","0.5","desktop","0","0","0","","","","","","luck_game","","null","<div id=""score-counter"">TOTAL SCORE: &pound;0.05</div><div class=""experiment-container""><div class=""center-zone""><div class=""cross""></div><div class=""triangle-grid""><div class=""machine top-center blue""></div><div class=""machine bottom-left green-outline""></div><div class=""machine bottom-right red""></div></div></div></div>","null","","","","","","","","","","","","","","","","","","","","","","","","","","","","","","","",""
"html-keyboard-response","59","381646","0.0-5.0-79.0-0.0","69309f7da595fb656eebdeb1","not_provided","0.5","desktop","0","0","0","","","","","","luck_game","","null","<div id=""score-counter"">TOTAL SCORE: &pound;0.05</div><div class=""experiment-container""><div class=""center-zone""><div class=""cross""></div></div></div>","null","","","","","","","","","","","","","","","","","","","","","","","","","","","","","","","",""
"html-keyboard-response","60","382649","0.0-5.0-80.0-0.0","69309f7da595fb656eebdeb1","not_provided","0.5","desktop","0","0","0","","","","","","luck_game","","null","<div id=""score-counter"">TOTAL SCORE: &pound;0.00</div><div class=""experiment-container""><div class=""center-zone""><div class=""cross""></div>
                <div style=""position: absolute; z-index: 10; display: flex; flex-direction: column; align-items: center; justify-content: center;"">
                    <div class=""lose-text"" style=""font-size: 48px; font-weight: bold; margin-bottom: 20px; text-shadow: 2px 2px 4px #000;"">LOSE</div>
                    <img src=""images/coin_no_reward.png"" class=""reward-img"" style=""background-color: black; border-radius: 50%;"">
                    <div class=""lose-text"" style=""font-size: 48px; font-weight: bold; margin-top: 20px; text-shadow: 2px 2px 4px #000;"">-0.05&pound;</div>
                </div></div></div>","null","","","","","","","","","","","","","","","","","","","","","","","","","","","","","","","",""
"html-keyboard-response","61","383831","0.0-5.0-83.0","69309f7da595fb656eebdeb1","not_provided","0.5","desktop","0","0","0","","","","","","luck_game","","1181","<div id=""score-counter"">TOTAL SCORE: &pound;0.00</div><div class=""experiment-container""><div class=""center-zone""><div class=""cross""></div><div class=""triangle-grid""><div class=""machine top-center blue-outline""></div><div class=""machine bottom-left green""></div><div class=""machine bottom-right red""></div></div></div></div>","arrowleft","","","","gambling_choice","1","10","arrowleft","bottom-left","green","arrowup","top-center","blue","arrowup","top-center","blue","arrowleft","bottom-left","green","0","0","0","0","-0.05","-0.05","true","false","","","","","",""
"html-keyboard-response","62","383934","0.0-5.0-84.0-0.0","69309f7da595fb656eebdeb1","not_provided","0.5","desktop","0","0","0","","","","","","luck_game","","null","<div id=""score-counter"">TOTAL SCORE: &pound;0.00</div><div class=""experiment-container""><div class=""center-zone""><div class=""cross""></div><div class=""triangle-grid""><div class=""machine top-center blue-outline""></div><div class=""machine bottom-left green""></div><div class=""machine bottom-right red""></div></div></div></div>","null","","","","","","","","","","","","","","","","","","","","","","","","","","","","","","","",""
"html-keyboard-response","63","384436","0.0-5.0-85.0-0.0","69309f7da595fb656eebdeb1","not_provided","0.5","desktop","0","0","0","","","","","","luck_game","","null","<div id=""score-counter"">TOTAL SCORE: &pound;0.00</div><div class=""experiment-container""><div class=""center-zone""><div class=""cross""></div></div></div>","null","","","","","","","","","","","","","","","","","","","","","","","","","","","","","","","",""
"html-keyboard-response","64","385439","0.0-5.0-86.0-0.0","69309f7da595fb656eebdeb1","not_provided","0.5","desktop","0","0","0","","","","","","luck_game","","null","<div id=""score-counter"">TOTAL SCORE: &pound;0.00</div><div class=""experiment-container""><div class=""center-zone""><div class=""cross""></div>
                <div style=""position: absolute; z-index: 10; display: flex; flex-direction: column; align-items: center; justify-content: center;"">
                    <div class=""lose-text"" style=""font-size: 48px; font-weight: bold; margin-bottom: 20px; text-shadow: 2px 2px 4px #000;"">LOSE</div>
                    <img src=""images/coin_no_reward.png"" class=""reward-img"" style=""background-color: black; border-radius: 50%;"">
                    <div class=""lose-text"" style=""font-size: 48px; font-weight: bold; margin-top: 20px; text-shadow: 2px 2px 4px #000;"">-0.05&pound;</div>
                </div></div></div>","null","","","","","","","","","","","","","","","","","","","","","","","","","","","","","","","",""
"html-keyboard-response","65","386159","0.0-5.0-89.0","69309f7da595fb656eebdeb1","not_provided","0.5","desktop","0","0","0","","","","","","luck_game","","717","<div id=""score-counter"">TOTAL SCORE: &pound;0.00</div><div class=""experiment-container""><div class=""center-zone""><div class=""cross""></div><div class=""triangle-grid""><div class=""machine top-center blue-outline""></div><div class=""machine bottom-left green""></div><div class=""machine bottom-right red""></div></div></div></div>","arrowright","","","","gambling_choice","1","11","arrowright","bottom-right","red","arrowleft","bottom-left","green","arrowup","top-center","blue","arrowup","top-center","blue","0","0","0","0","-0.05","-0.05","true","false","","","","","",""
"html-keyboard-response","66","386261","0.0-5.0-90.0-0.0","69309f7da595fb656eebdeb1","not_provided","0.5","desktop","0","0","0","","","","","","luck_game","","null","<div id=""score-counter"">TOTAL SCORE: &pound;0.00</div><div class=""experiment-container""><div class=""center-zone""><div class=""cross""></div><div class=""triangle-grid""><div class=""machine top-center blue-outline""></div><div class=""machine bottom-left green""></div><div class=""machine bottom-right red""></div></div></div></div>","null","","","","","","","","","","","","","","","","","","","","","","","","","","","","","","","",""
"html-keyboard-response","67","386764","0.0-5.0-91.0-0.0","69309f7da595fb656eebdeb1","not_provided","0.5","desktop","0","0","0","","","","","","luck_game","","null","<div id=""score-counter"">TOTAL SCORE: &pound;0.00</div><div class=""experiment-container""><div class=""center-zone""><div class=""cross""></div></div></div>","null","","","","","","","","","","","","","","","","","","","","","","","","","","","","","","","",""
"html-keyboard-response","68","387767","0.0-5.0-92.0-0.0","69309f7da595fb656eebdeb1","not_provided","0.5","desktop","0","0","0","","","","","","luck_game","","null","<div id=""score-counter"">TOTAL SCORE: &pound;0.00</div><div class=""experiment-container""><div class=""center-zone""><div class=""cross""></div>
                <div style=""position: absolute; z-index: 10; display: flex; flex-direction: column; align-items: center; justify-content: center;"">
                    <div class=""lose-text"" style=""font-size: 48px; font-weight: bold; margin-bottom: 20px; text-shadow: 2px 2px 4px #000;"">LOSE</div>
                    <img src=""images/coin_no_reward.png"" class=""reward-img"" style=""background-color: black; border-radius: 50%;"">
                    <div class=""lose-text"" style=""font-size: 48px; font-weight: bold; margin-top: 20px; text-shadow: 2px 2px 4px #000;"">-0.05&pound;</div>
                </div></div></div>","null","","","","","","","","","","","","","","","","","","","","","","","","","","","","","","","",""
"html-keyboard-response","69","388733","0.0-5.0-95.0","69309f7da595fb656eebdeb1","not_provided","0.5","desktop","0","0","0","","","","","","luck_game","","964","<div id=""score-counter"">TOTAL SCORE: &pound;0.00</div><div class=""experiment-container""><div class=""center-zone""><div class=""cross""></div><div class=""triangle-grid""><div class=""machine top-center blue-outline""></div><div class=""machine bottom-left green""></div><div class=""machine bottom-right red""></div></div></div></div>","arrowleft","","","","gambling_choice","1","12","arrowleft","bottom-left","green","arrowright","bottom-right","red","arrowup","top-center","blue","arrowup","top-center","blue","0","1","0.05","0","0.05","-0.05","true","false","","","","","",""
"html-keyboard-response","70","388838","0.0-5.0-96.0-0.0","69309f7da595fb656eebdeb1","not_provided","0.5","desktop","0","0","0","","","","","","luck_game","","null","<div id=""score-counter"">TOTAL SCORE: &pound;0.00</div><div class=""experiment-container""><div class=""center-zone""><div class=""cross""></div><div class=""triangle-grid""><div class=""machine top-center blue-outline""></div><div class=""machine bottom-left green""></div><div class=""machine bottom-right red""></div></div></div></div>","null","","","","","","","","","","","","","","","","","","","","","","","","","","","","","","","",""
"html-keyboard-response","71","389339","0.0-5.0-97.0-0.0","69309f7da595fb656eebdeb1","not_provided","0.5","desktop","0","0","0","","","","","","luck_game","","null","<div id=""score-counter"">TOTAL SCORE: &pound;0.00</div><div class=""experiment-container""><div class=""center-zone""><div class=""cross""></div></div></div>","null","","","","","","","","","","","","","","","","","","","","","","","","","","","","","","","",""
"html-keyboard-response","72","390343","0.0-5.0-98.0-0.0","69309f7da595fb656eebdeb1","not_provided","0.5","desktop","0","0","0","","","","","","luck_game","","null","<div id=""score-counter"">TOTAL SCORE: &pound;0.05</div><div class=""experiment-container""><div class=""center-zone""><div class=""cross""></div>
                <div style=""position: absolute; z-index: 10; display: flex; flex-direction: column; align-items: center; justify-content: center;"">
                    <div class=""win-text"" style=""font-size: 48px; font-weight: bold; margin-bottom: 20px; text-shadow: 2px 2px 4px #000;"">WIN</div>
                    <img src=""images/coin_reward.png"" class=""reward-img"" style=""background-color: black; border-radius: 50%;"">
                    <div class=""win-text"" style=""font-size: 48px; font-weight: bold; margin-top: 20px; text-shadow: 2px 2px 4px #000;"">+0.05&pound;</div>
                </div></div></div>","null","","","","","","","","","","","","","","","","","","","","","","","","","","","","","","","",""
"html-keyboard-response","73","392023","0.0-5.0-101.0","69309f7da595fb656eebdeb1","not_provided","0.5","desktop","0","0","0","","","","","","luck_game","","1679","<div id=""score-counter"">TOTAL SCORE: &pound;0.05</div><div class=""experiment-container""><div class=""center-zone""><div class=""cross""></div><div class=""triangle-grid""><div class=""machine top-center blue""></div><div class=""machine bottom-left green-outline""></div><div class=""machine bottom-right red""></div></div></div></div>","arrowright","","","","gambling_choice","1","13","arrowright","bottom-right","red","arrowleft","bottom-left","green","arrowleft","bottom-left","green","arrowup","top-center","blue","1","1","0.1","0.05","0.05","0.05","true","false","","","","","",""
"html-keyboard-response","74","392126","0.0-5.0-102.0-0.0","69309f7da595fb656eebdeb1","not_provided","0.5","desktop","0","0","0","","","","","","luck_game","","null","<div id=""score-counter"">TOTAL SCORE: &pound;0.05</div><div class=""experiment-container""><div class=""center-zone""><div class=""cross""></div><div class=""triangle-grid""><div class=""machine top-center blue""></div><div class=""machine bottom-left green-outline""></div><div class=""machine bottom-right red""></div></div></div></div>","null","","","","","","","","","","","","","","","","","","","","","","","","","","","","","","","",""
"html-keyboard-response","75","392628","0.0-5.0-103.0-0.0","69309f7da595fb656eebdeb1","not_provided","0.5","desktop","0","0","0","","","","","","luck_game","","null","<div id=""score-counter"">TOTAL SCORE: &pound;0.05</div><div class=""experiment-container""><div class=""center-zone""><div class=""cross""></div></div></div>","null","","","","","","","","","","","","","","","","","","","","","","","","","","","","","","","",""
"html-keyboard-response","76","393631","0.0-5.0-104.0-0.0","69309f7da595fb656eebdeb1","not_provided","0.5","desktop","0","0","0","","","","","","luck_game","","null","<div id=""score-counter"">TOTAL SCORE: &pound;0.10</div><div class=""experiment-container""><div class=""center-zone""><div class=""cross""></div>
                <div style=""position: absolute; z-index: 10; display: flex; flex-direction: column; align-items: center; justify-content: center;"">
                    <div class=""win-text"" style=""font-size: 48px; font-weight: bold; margin-bottom: 20px; text-shadow: 2px 2px 4px #000;"">WIN</div>
                    <img src=""images/coin_reward.png"" class=""reward-img"" style=""background-color: black; border-radius: 50%;"">
                    <div class=""win-text"" style=""font-size: 48px; font-weight: bold; margin-top: 20px; text-shadow: 2px 2px 4px #000;"">+0.05&pound;</div>
                </div></div></div>","null","","","","","","","","","","","","","","","","","","","","","","","","","","","","","","","",""
"html-keyboard-response","77","395036","0.0-5.0-107.0","69309f7da595fb656eebdeb1","not_provided","0.5","desktop","0","0","0","","","","","","luck_game","","1403","<div id=""score-counter"">TOTAL SCORE: &pound;0.10</div><div class=""experiment-container""><div class=""center-zone""><div class=""cross""></div><div class=""triangle-grid""><div class=""machine top-center blue""></div><div class=""machine bottom-left green""></div><div class=""machine bottom-right red-outline""></div></div></div></div>","arrowleft","","","","gambling_choice","1","14","arrowleft","bottom-left","green","arrowright","bottom-right","red","arrowright","bottom-right","red","arrowleft","bottom-left","green","1","0","0.05","0.1","-0.05","0.05","true","false","","","","","",""
"html-keyboard-response","78","395138","0.0-5.0-108.0-0.0","69309f7da595fb656eebdeb1","not_provided","0.5","desktop","0","0","0","","","","","","luck_game","","null","<div id=""score-counter"">TOTAL SCORE: &pound;0.10</div><div class=""experiment-container""><div class=""center-zone""><div class=""cross""></div><div class=""triangle-grid""><div class=""machine top-center blue""></div><div class=""machine bottom-left green""></div><div class=""machine bottom-right red-outline""></div></div></div></div>","null","","","","","","","","","","","","","","","","","","","","","","","","","","","","","","","",""
"html-keyboard-response","79","395640","0.0-5.0-109.0-0.0","69309f7da595fb656eebdeb1","not_provided","0.5","desktop","0","0","0","","","","","","luck_game","","null","<div id=""score-counter"">TOTAL SCORE: &pound;0.10</div><div class=""experiment-container""><div class=""center-zone""><div class=""cross""></div></div></div>","null","","","","","","","","","","","","","","","","","","","","","","","","","","","","","","","",""
"html-keyboard-response","80","396644","0.0-5.0-110.0-0.0","69309f7da595fb656eebdeb1","not_provided","0.5","desktop","0","0","0","","","","","","luck_game","","null","<div id=""score-counter"">TOTAL SCORE: &pound;0.05</div><div class=""experiment-container""><div class=""center-zone""><div class=""cross""></div>
                <div style=""position: absolute; z-index: 10; display: flex; flex-direction: column; align-items: center; justify-content: center;"">
                    <div class=""lose-text"" style=""font-size: 48px; font-weight: bold; margin-bottom: 20px; text-shadow: 2px 2px 4px #000;"">LOSE</div>
                    <img src=""images/coin_no_reward.png"" class=""reward-img"" style=""background-color: black; border-radius: 50%;"">
                    <div class=""lose-text"" style=""font-size: 48px; font-weight: bold; margin-top: 20px; text-shadow: 2px 2px 4px #000;"">-0.05&pound;</div>
                </div></div></div>","null","","","","","","","","","","","","","","","","","","","","","","","","","","","","","","","",""
"html-keyboard-response","81","398066","0.0-5.0-113.0","69309f7da595fb656eebdeb1","not_provided","0.5","desktop","0","0","0","","","","","","luck_game","","1421","<div id=""score-counter"">TOTAL SCORE: &pound;0.05</div><div class=""experiment-container""><div class=""center-zone""><div class=""cross""></div><div class=""triangle-grid""><div class=""machine top-center blue-outline""></div><div class=""machine bottom-left green""></div><div class=""machine bottom-right red""></div></div></div></div>","arrowright","","","","gambling_choice","1","15","arrowright","bottom-right","red","arrowleft","bottom-left","green","arrowup","top-center","blue","arrowright","bottom-right","red","0","1","0.1","0.05","0.05","-0.05","true","false","","","","","",""
"html-keyboard-response","82","398168","0.0-5.0-114.0-0.0","69309f7da595fb656eebdeb1","not_provided","0.5","desktop","0","0","0","","","","","","luck_game","","null","<div id=""score-counter"">TOTAL SCORE: &pound;0.05</div><div class=""experiment-container""><div class=""center-zone""><div class=""cross""></div><div class=""triangle-grid""><div class=""machine top-center blue-outline""></div><div class=""machine bottom-left green""></div><div class=""machine bottom-right red""></div></div></div></div>","null","","","","","","","","","","","","","","","","","","","","","","","","","","","","","","","",""
"html-keyboard-response","83","398670","0.0-5.0-115.0-0.0","69309f7da595fb656eebdeb1","not_provided","0.5","desktop","0","0","0","","","","","","luck_game","","null","<div id=""score-counter"">TOTAL SCORE: &pound;0.05</div><div class=""experiment-container""><div class=""center-zone""><div class=""cross""></div></div></div>","null","","","","","","","","","","","","","","","","","","","","","","","","","","","","","","","",""
"html-keyboard-response","84","399674","0.0-5.0-116.0-0.0","69309f7da595fb656eebdeb1","not_provided","0.5","desktop","0","0","0","","","","","","luck_game","","null","<div id=""score-counter"">TOTAL SCORE: &pound;0.10</div><div class=""experiment-container""><div class=""center-zone""><div class=""cross""></div>
                <div style=""position: absolute; z-index: 10; display: flex; flex-direction: column; align-items: center; justify-content: center;"">
                    <div class=""win-text"" style=""font-size: 48px; font-weight: bold; margin-bottom: 20px; text-shadow: 2px 2px 4px #000;"">WIN</div>
                    <img src=""images/coin_reward.png"" class=""reward-img"" style=""background-color: black; border-radius: 50%;"">
                    <div class=""win-text"" style=""font-size: 48px; font-weight: bold; margin-top: 20px; text-shadow: 2px 2px 4px #000;"">+0.05&pound;</div>
                </div></div></div>","null","","","","","","","","","","","","","","","","","","","","","","","","","","","","","","","",""
"html-keyboard-response","85","401218","0.0-5.0-119.0","69309f7da595fb656eebdeb1","not_provided","0.5","desktop","0","0","0","","","","","","luck_game","","1542","<div id=""score-counter"">TOTAL SCORE: &pound;0.10</div><div class=""experiment-container""><div class=""center-zone""><div class=""cross""></div><div class=""triangle-grid""><div class=""machine top-center blue-outline""></div><div class=""machine bottom-left green""></div><div class=""machine bottom-right red""></div></div></div></div>","arrowright","","","","gambling_choice","1","16","arrowright","bottom-right","red","arrowright","bottom-right","red","arrowup","top-center","blue","arrowup","top-center","blue","1","1","0.15","0.1","0.05","0.05","true","false","","","","","",""
"html-keyboard-response","86","401320","0.0-5.0-120.0-0.0","69309f7da595fb656eebdeb1","not_provided","0.5","desktop","0","0","0","","","","","","luck_game","","null","<div id=""score-counter"">TOTAL SCORE: &pound;0.10</div><div class=""experiment-container""><div class=""center-zone""><div class=""cross""></div><div class=""triangle-grid""><div class=""machine top-center blue-outline""></div><div class=""machine bottom-left green""></div><div class=""machine bottom-right red""></div></div></div></div>","null","","","","","","","","","","","","","","","","","","","","","","","","","","","","","","","",""
"html-keyboard-response","87","401823","0.0-5.0-121.0-0.0","69309f7da595fb656eebdeb1","not_provided","0.5","desktop","0","0","0","","","","","","luck_game","","null","<div id=""score-counter"">TOTAL SCORE: &pound;0.10</div><div class=""experiment-container""><div class=""center-zone""><div class=""cross""></div></div></div>","null","","","","","","","","","","","","","","","","","","","","","","","","","","","","","","","",""
"html-keyboard-response","88","402826","0.0-5.0-122.0-0.0","69309f7da595fb656eebdeb1","not_provided","0.5","desktop","0","0","0","","","","","","luck_game","","null","<div id=""score-counter"">TOTAL SCORE: &pound;0.15</div><div class=""experiment-container""><div class=""center-zone""><div class=""cross""></div>
                <div style=""position: absolute; z-index: 10; display: flex; flex-direction: column; align-items: center; justify-content: center;"">
                    <div class=""win-text"" style=""font-size: 48px; font-weight: bold; margin-bottom: 20px; text-shadow: 2px 2px 4px #000;"">WIN</div>
                    <img src=""images/coin_reward.png"" class=""reward-img"" style=""background-color: black; border-radius: 50%;"">
                    <div class=""win-text"" style=""font-size: 48px; font-weight: bold; margin-top: 20px; text-shadow: 2px 2px 4px #000;"">+0.05&pound;</div>
                </div></div></div>","null","","","","","","","","","","","","","","","","","","","","","","","","","","","","","","","",""
"html-keyboard-response","89","404598","0.0-5.0-125.0","69309f7da595fb656eebdeb1","not_provided","0.5","desktop","0","0","0","","","","","","luck_game","","1766","<div id=""score-counter"">TOTAL SCORE: &pound;0.15</div><div class=""experiment-container""><div class=""center-zone""><div class=""cross""></div><div class=""triangle-grid""><div class=""machine top-center blue-outline""></div><div class=""machine bottom-left green""></div><div class=""machine bottom-right red""></div></div></div></div>","arrowright","","","","gambling_choice","1","17","arrowright","bottom-right","red","arrowright","bottom-right","red","arrowup","top-center","blue","arrowup","top-center","blue","1","1","0.2","0.15","0.05","0.05","true","false","","","","","",""
"html-keyboard-response","90","404700","0.0-5.0-126.0-0.0","69309f7da595fb656eebdeb1","not_provided","0.5","desktop","0","0","0","","","","","","luck_game","","null","<div id=""score-counter"">TOTAL SCORE: &pound;0.15</div><div class=""experiment-container""><div class=""center-zone""><div class=""cross""></div><div class=""triangle-grid""><div class=""machine top-center blue-outline""></div><div class=""machine bottom-left green""></div><div class=""machine bottom-right red""></div></div></div></div>","null","","","","","","","","","","","","","","","","","","","","","","","","","","","","","","","",""
"html-keyboard-response","91","405202","0.0-5.0-127.0-0.0","69309f7da595fb656eebdeb1","not_provided","0.5","desktop","0","0","0","","","","","","luck_game","","null","<div id=""score-counter"">TOTAL SCORE: &pound;0.15</div><div class=""experiment-container""><div class=""center-zone""><div class=""cross""></div></div></div>","null","","","","","","","","","","","","","","","","","","","","","","","","","","","","","","","",""
"html-keyboard-response","92","406205","0.0-5.0-128.0-0.0","69309f7da595fb656eebdeb1","not_provided","0.5","desktop","0","0","0","","","","","","luck_game","","null","<div id=""score-counter"">TOTAL SCORE: &pound;0.20</div><div class=""experiment-container""><div class=""center-zone""><div class=""cross""></div>
                <div style=""position: absolute; z-index: 10; display: flex; flex-direction: column; align-items: center; justify-content: center;"">
                    <div class=""win-text"" style=""font-size: 48px; font-weight: bold; margin-bottom: 20px; text-shadow: 2px 2px 4px #000;"">WIN</div>
                    <img src=""images/coin_reward.png"" class=""reward-img"" style=""background-color: black; border-radius: 50%;"">
                    <div class=""win-text"" style=""font-size: 48px; font-weight: bold; margin-top: 20px; text-shadow: 2px 2px 4px #000;"">+0.05&pound;</div>
                </div></div></div>","null","","","","","","","","","","","","","","","","","","","","","","","","","","","","","","","",""
"html-keyboard-response","93","407027","0.0-5.0-131.0","69309f7da595fb656eebdeb1","not_provided","0.5","desktop","0","0","0","","","","","","luck_game","","820","<div id=""score-counter"">TOTAL SCORE: &pound;0.20</div><div class=""experiment-container""><div class=""center-zone""><div class=""cross""></div><div class=""triangle-grid""><div class=""machine top-center blue""></div><div class=""machine bottom-left green-outline""></div><div class=""machine bottom-right red""></div></div></div></div>","arrowup","","","","gambling_choice","1","18","arrowup","top-center","blue","arrowright","bottom-right","red","arrowleft","bottom-left","green","arrowup","top-center","blue","1","1","0.25","0.2","0.05","0.05","true","false","","","","","",""
"html-keyboard-response","94","407130","0.0-5.0-132.0-0.0","69309f7da595fb656eebdeb1","not_provided","0.5","desktop","0","0","0","","","","","","luck_game","","null","<div id=""score-counter"">TOTAL SCORE: &pound;0.20</div><div class=""experiment-container""><div class=""center-zone""><div class=""cross""></div><div class=""triangle-grid""><div class=""machine top-center blue""></div><div class=""machine bottom-left green-outline""></div><div class=""machine bottom-right red""></div></div></div></div>","null","","","","","","","","","","","","","","","","","","","","","","","","","","","","","","","",""
"html-keyboard-response","95","407632","0.0-5.0-133.0-0.0","69309f7da595fb656eebdeb1","not_provided","0.5","desktop","0","0","0","","","","","","luck_game","","null","<div id=""score-counter"">TOTAL SCORE: &pound;0.20</div><div class=""experiment-container""><div class=""center-zone""><div class=""cross""></div></div></div>","null","","","","","","","","","","","","","","","","","","","","","","","","","","","","","","","",""
"html-keyboard-response","96","408636","0.0-5.0-134.0-0.0","69309f7da595fb656eebdeb1","not_provided","0.5","desktop","0","0","0","","","","","","luck_game","","null","<div id=""score-counter"">TOTAL SCORE: &pound;0.25</div><div class=""experiment-container""><div class=""center-zone""><div class=""cross""></div>
                <div style=""position: absolute; z-index: 10; display: flex; flex-direction: column; align-items: center; justify-content: center;"">
                    <div class=""win-text"" style=""font-size: 48px; font-weight: bold; margin-bottom: 20px; text-shadow: 2px 2px 4px #000;"">WIN</div>
                    <img src=""images/coin_reward.png"" class=""reward-img"" style=""background-color: black; border-radius: 50%;"">
                    <div class=""win-text"" style=""font-size: 48px; font-weight: bold; margin-top: 20px; text-shadow: 2px 2px 4px #000;"">+0.05&pound;</div>
                </div></div></div>","null","","","","","","","","","","","","","","","","","","","","","","","","","","","","","","","",""
"html-keyboard-response","97","411103","0.0-5.0-137.0","69309f7da595fb656eebdeb1","not_provided","0.5","desktop","0","0","0","","","","","","luck_game","","2466","<div id=""score-counter"">TOTAL SCORE: &pound;0.25</div><div class=""experiment-container""><div class=""center-zone""><div class=""cross""></div><div class=""triangle-grid""><div class=""machine top-center blue-outline""></div><div class=""machine bottom-left green""></div><div class=""machine bottom-right red""></div></div></div></div>","arrowleft","","","","gambling_choice","1","19","arrowleft","bottom-left","green","arrowup","top-center","blue","arrowup","top-center","blue","arrowleft","bottom-left","green","1","1","0.3","0.25","0.05","0.05","true","false","","","","","",""
"html-keyboard-response","98","411206","0.0-5.0-138.0-0.0","69309f7da595fb656eebdeb1","not_provided","0.5","desktop","0","0","0","","","","","","luck_game","","null","<div id=""score-counter"">TOTAL SCORE: &pound;0.25</div><div class=""experiment-container""><div class=""center-zone""><div class=""cross""></div><div class=""triangle-grid""><div class=""machine top-center blue-outline""></div><div class=""machine bottom-left green""></div><div class=""machine bottom-right red""></div></div></div></div>","null","","","","","","","","","","","","","","","","","","","","","","","","","","","","","","","",""
"html-keyboard-response","99","411708","0.0-5.0-139.0-0.0","69309f7da595fb656eebdeb1","not_provided","0.5","desktop","0","0","0","","","","","","luck_game","","null","<div id=""score-counter"">TOTAL SCORE: &pound;0.25</div><div class=""experiment-container""><div class=""center-zone""><div class=""cross""></div></div></div>","null","","","","","","","","","","","","","","","","","","","","","","","","","","","","","","","",""
"html-keyboard-response","100","412711","0.0-5.0-140.0-0.0","69309f7da595fb656eebdeb1","not_provided","0.5","desktop","0","0","0","","","","","","luck_game","","null","<div id=""score-counter"">TOTAL SCORE: &pound;0.30</div><div class=""experiment-container""><div class=""center-zone""><div class=""cross""></div>
                <div style=""position: absolute; z-index: 10; display: flex; flex-direction: column; align-items: center; justify-content: center;"">
                    <div class=""win-text"" style=""font-size: 48px; font-weight: bold; margin-bottom: 20px; text-shadow: 2px 2px 4px #000;"">WIN</div>
                    <img src=""images/coin_reward.png"" class=""reward-img"" style=""background-color: black; border-radius: 50%;"">
                    <div class=""win-text"" style=""font-size: 48px; font-weight: bold; margin-top: 20px; text-shadow: 2px 2px 4px #000;"">+0.05&pound;</div>
                </div></div></div>","null","","","","","","","","","","","","","","","","","","","","","","","","","","","","","","","",""
"html-keyboard-response","101","413746","0.0-5.0-143.0","69309f7da595fb656eebdeb1","not_provided","0.5","desktop","0","0","0","","","","","","luck_game","","1033","<div id=""score-counter"">TOTAL SCORE: &pound;0.30</div><div class=""experiment-container""><div class=""center-zone""><div class=""cross""></div><div class=""triangle-grid""><div class=""machine top-center blue""></div><div class=""machine bottom-left green-outline""></div><div class=""machine bottom-right red""></div></div></div></div>","arrowup","","","","gambling_choice","1","20","arrowup","top-center","blue","arrowleft","bottom-left","green","arrowleft","bottom-left","green","arrowup","top-center","blue","1","1","0.35","0.3","0.05","0.05","true","false","","","","","",""
"html-keyboard-response","102","413851","0.0-5.0-144.0-0.0","69309f7da595fb656eebdeb1","not_provided","0.5","desktop","0","0","0","","","","","","luck_game","","null","<div id=""score-counter"">TOTAL SCORE: &pound;0.30</div><div class=""experiment-container""><div class=""center-zone""><div class=""cross""></div><div class=""triangle-grid""><div class=""machine top-center blue""></div><div class=""machine bottom-left green-outline""></div><div class=""machine bottom-right red""></div></div></div></div>","null","","","","","","","","","","","","","","","","","","","","","","","","","","","","","","","",""
"html-keyboard-response","103","414353","0.0-5.0-145.0-0.0","69309f7da595fb656eebdeb1","not_provided","0.5","desktop","0","0","0","","","","","","luck_game","","null","<div id=""score-counter"">TOTAL SCORE: &pound;0.30</div><div class=""experiment-container""><div class=""center-zone""><div class=""cross""></div></div></div>","null","","","","","","","","","","","","","","","","","","","","","","","","","","","","","","","",""
"html-keyboard-response","104","415356","0.0-5.0-146.0-0.0","69309f7da595fb656eebdeb1","not_provided","0.5","desktop","0","0","0","","","","","","luck_game","","null","<div id=""score-counter"">TOTAL SCORE: &pound;0.35</div><div class=""experiment-container""><div class=""center-zone""><div class=""cross""></div>
                <div style=""position: absolute; z-index: 10; display: flex; flex-direction: column; align-items: center; justify-content: center;"">
                    <div class=""win-text"" style=""font-size: 48px; font-weight: bold; margin-bottom: 20px; text-shadow: 2px 2px 4px #000;"">WIN</div>
                    <img src=""images/coin_reward.png"" class=""reward-img"" style=""background-color: black; border-radius: 50%;"">
                    <div class=""win-text"" style=""font-size: 48px; font-weight: bold; margin-top: 20px; text-shadow: 2px 2px 4px #000;"">+0.05&pound;</div>
                </div></div></div>","null","","","","","","","","","","","","","","","","","","","","","","","","","","","","","","","",""
"html-keyboard-response","105","416744","0.0-5.0-149.0","69309f7da595fb656eebdeb1","not_provided","0.5","desktop","0","0","0","","","","","","luck_game","","1386","<div id=""score-counter"">TOTAL SCORE: &pound;0.35</div><div class=""experiment-container""><div class=""center-zone""><div class=""cross""></div><div class=""triangle-grid""><div class=""machine top-center blue""></div><div class=""machine bottom-left green""></div><div class=""machine bottom-right red-outline""></div></div></div></div>","arrowleft","","","","gambling_choice","1","21","arrowleft","bottom-left","green","arrowup","top-center","blue","arrowright","bottom-right","red","arrowleft","bottom-left","green","1","1","0.4","0.35","0.05","0.05","true","false","","","","","",""
"html-keyboard-response","106","416847","0.0-5.0-150.0-0.0","69309f7da595fb656eebdeb1","not_provided","0.5","desktop","0","0","0","","","","","","luck_game","","null","<div id=""score-counter"">TOTAL SCORE: &pound;0.35</div><div class=""experiment-container""><div class=""center-zone""><div class=""cross""></div><div class=""triangle-grid""><div class=""machine top-center blue""></div><div class=""machine bottom-left green""></div><div class=""machine bottom-right red-outline""></div></div></div></div>","null","","","","","","","","","","","","","","","","","","","","","","","","","","","","","","","",""
"html-keyboard-response","107","417349","0.0-5.0-151.0-0.0","69309f7da595fb656eebdeb1","not_provided","0.5","desktop","0","0","0","","","","","","luck_game","","null","<div id=""score-counter"">TOTAL SCORE: &pound;0.35</div><div class=""experiment-container""><div class=""center-zone""><div class=""cross""></div></div></div>","null","","","","","","","","","","","","","","","","","","","","","","","","","","","","","","","",""
"html-keyboard-response","108","418352","0.0-5.0-152.0-0.0","69309f7da595fb656eebdeb1","not_provided","0.5","desktop","0","0","0","","","","","","luck_game","","null","<div id=""score-counter"">TOTAL SCORE: &pound;0.40</div><div class=""experiment-container""><div class=""center-zone""><div class=""cross""></div>
                <div style=""position: absolute; z-index: 10; display: flex; flex-direction: column; align-items: center; justify-content: center;"">
                    <div class=""win-text"" style=""font-size: 48px; font-weight: bold; margin-bottom: 20px; text-shadow: 2px 2px 4px #000;"">WIN</div>
                    <img src=""images/coin_reward.png"" class=""reward-img"" style=""background-color: black; border-radius: 50%;"">
                    <div class=""win-text"" style=""font-size: 48px; font-weight: bold; margin-top: 20px; text-shadow: 2px 2px 4px #000;"">+0.05&pound;</div>
                </div></div></div>","null","","","","","","","","","","","","","","","","","","","","","","","","","","","","","","","",""
"html-keyboard-response","109","419553","0.0-5.0-155.0","69309f7da595fb656eebdeb1","not_provided","0.5","desktop","0","0","0","","","","","","luck_game","","1200","<div id=""score-counter"">TOTAL SCORE: &pound;0.40</div><div class=""experiment-container""><div class=""center-zone""><div class=""cross""></div><div class=""triangle-grid""><div class=""machine top-center blue-outline""></div><div class=""machine bottom-left green""></div><div class=""machine bottom-right red""></div></div></div></div>","arrowleft","","","","gambling_choice","1","22","arrowleft","bottom-left","green","arrowleft","bottom-left","green","arrowup","top-center","blue","arrowright","bottom-right","red","1","0","0.35","0.4","-0.05","0.05","true","false","","","","","",""
"html-keyboard-response","110","419655","0.0-5.0-156.0-0.0","69309f7da595fb656eebdeb1","not_provided","0.5","desktop","0","0","0","","","","","","luck_game","","null","<div id=""score-counter"">TOTAL SCORE: &pound;0.40</div><div class=""experiment-container""><div class=""center-zone""><div class=""cross""></div><div class=""triangle-grid""><div class=""machine top-center blue-outline""></div><div class=""machine bottom-left green""></div><div class=""machine bottom-right red""></div></div></div></div>","null","","","","","","","","","","","","","","","","","","","","","","","","","","","","","","","",""
"html-keyboard-response","111","420158","0.0-5.0-157.0-0.0","69309f7da595fb656eebdeb1","not_provided","0.5","desktop","0","0","0","","","","","","luck_game","","null","<div id=""score-counter"">TOTAL SCORE: &pound;0.40</div><div class=""experiment-container""><div class=""center-zone""><div class=""cross""></div></div></div>","null","","","","","","","","","","","","","","","","","","","","","","","","","","","","","","","",""
"html-keyboard-response","112","421161","0.0-5.0-158.0-0.0","69309f7da595fb656eebdeb1","not_provided","0.5","desktop","0","0","0","","","","","","luck_game","","null","<div id=""score-counter"">TOTAL SCORE: &pound;0.35</div><div class=""experiment-container""><div class=""center-zone""><div class=""cross""></div>
                <div style=""position: absolute; z-index: 10; display: flex; flex-direction: column; align-items: center; justify-content: center;"">
                    <div class=""lose-text"" style=""font-size: 48px; font-weight: bold; margin-bottom: 20px; text-shadow: 2px 2px 4px #000;"">LOSE</div>
                    <img src=""images/coin_no_reward.png"" class=""reward-img"" style=""background-color: black; border-radius: 50%;"">
                    <div class=""lose-text"" style=""font-size: 48px; font-weight: bold; margin-top: 20px; text-shadow: 2px 2px 4px #000;"">-0.05&pound;</div>
                </div></div></div>","null","","","","","","","","","","","","","","","","","","","","","","","","","","","","","","","",""
"html-keyboard-response","113","422305","0.0-5.0-161.0","69309f7da595fb656eebdeb1","not_provided","0.5","desktop","0","0","0","","","","","","luck_game","","1142","<div id=""score-counter"">TOTAL SCORE: &pound;0.35</div><div class=""experiment-container""><div class=""center-zone""><div class=""cross""></div><div class=""triangle-grid""><div class=""machine top-center blue""></div><div class=""machine bottom-left green""></div><div class=""machine bottom-right red-outline""></div></div></div></div>","arrowup","","","","gambling_choice","1","23","arrowup","top-center","blue","arrowleft","bottom-left","green","arrowright","bottom-right","red","arrowup","top-center","blue","0","1","0.4","0.35","0.05","-0.05","true","false","","","","","",""
"html-keyboard-response","114","422406","0.0-5.0-162.0-0.0","69309f7da595fb656eebdeb1","not_provided","0.5","desktop","0","0","0","","","","","","luck_game","","null","<div id=""score-counter"">TOTAL SCORE: &pound;0.35</div><div class=""experiment-container""><div class=""center-zone""><div class=""cross""></div><div class=""triangle-grid""><div class=""machine top-center blue""></div><div class=""machine bottom-left green""></div><div class=""machine bottom-right red-outline""></div></div></div></div>","null","","","","","","","","","","","","","","","","","","","","","","","","","","","","","","","",""
"html-keyboard-response","115","422908","0.0-5.0-163.0-0.0","69309f7da595fb656eebdeb1","not_provided","0.5","desktop","0","0","0","","","","","","luck_game","","null","<div id=""score-counter"">TOTAL SCORE: &pound;0.35</div><div class=""experiment-container""><div class=""center-zone""><div class=""cross""></div></div></div>","null","","","","","","","","","","","","","","","","","","","","","","","","","","","","","","","",""
"html-keyboard-response","116","423911","0.0-5.0-164.0-0.0","69309f7da595fb656eebdeb1","not_provided","0.5","desktop","0","0","0","","","","","","luck_game","","null","<div id=""score-counter"">TOTAL SCORE: &pound;0.40</div><div class=""experiment-container""><div class=""center-zone""><div class=""cross""></div>
                <div style=""position: absolute; z-index: 10; display: flex; flex-direction: column; align-items: center; justify-content: center;"">
                    <div class=""win-text"" style=""font-size: 48px; font-weight: bold; margin-bottom: 20px; text-shadow: 2px 2px 4px #000;"">WIN</div>
                    <img src=""images/coin_reward.png"" class=""reward-img"" style=""background-color: black; border-radius: 50%;"">
                    <div class=""win-text"" style=""font-size: 48px; font-weight: bold; margin-top: 20px; text-shadow: 2px 2px 4px #000;"">+0.05&pound;</div>
                </div></div></div>","null","","","","","","","","","","","","","","","","","","","","","","","","","","","","","","","",""
"html-keyboard-response","117","425207","0.0-5.0-167.0","69309f7da595fb656eebdeb1","not_provided","0.5","desktop","0","0","0","","","","","","luck_game","","1294","<div id=""score-counter"">TOTAL SCORE: &pound;0.40</div><div class=""experiment-container""><div class=""center-zone""><div class=""cross""></div><div class=""triangle-grid""><div class=""machine top-center blue-outline""></div><div class=""machine bottom-left green""></div><div class=""machine bottom-right red""></div></div></div></div>","arrowleft","","","","gambling_choice","1","24","arrowleft","bottom-left","green","arrowup","top-center","blue","arrowup","top-center","blue","arrowright","bottom-right","red","1","0","0.35","0.4","-0.05","0.05","true","false","","","","","",""
"html-keyboard-response","118","425309","0.0-5.0-168.0-0.0","69309f7da595fb656eebdeb1","not_provided","0.5","desktop","0","0","0","","","","","","luck_game","","null","<div id=""score-counter"">TOTAL SCORE: &pound;0.40</div><div class=""experiment-container""><div class=""center-zone""><div class=""cross""></div><div class=""triangle-grid""><div class=""machine top-center blue-outline""></div><div class=""machine bottom-left green""></div><div class=""machine bottom-right red""></div></div></div></div>","null","","","","","","","","","","","","","","","","","","","","","","","","","","","","","","","",""
"html-keyboard-response","119","425811","0.0-5.0-169.0-0.0","69309f7da595fb656eebdeb1","not_provided","0.5","desktop","0","0","0","","","","","","luck_game","","null","<div id=""score-counter"">TOTAL SCORE: &pound;0.40</div><div class=""experiment-container""><div class=""center-zone""><div class=""cross""></div></div></div>","null","","","","","","","","","","","","","","","","","","","","","","","","","","","","","","","",""
"html-keyboard-response","120","426815","0.0-5.0-170.0-0.0","69309f7da595fb656eebdeb1","not_provided","0.5","desktop","0","0","0","","","","","","luck_game","","null","<div id=""score-counter"">TOTAL SCORE: &pound;0.35</div><div class=""experiment-container""><div class=""center-zone""><div class=""cross""></div>
                <div style=""position: absolute; z-index: 10; display: flex; flex-direction: column; align-items: center; justify-content: center;"">
                    <div class=""lose-text"" style=""font-size: 48px; font-weight: bold; margin-bottom: 20px; text-shadow: 2px 2px 4px #000;"">LOSE</div>
                    <img src=""images/coin_no_reward.png"" class=""reward-img"" style=""background-color: black; border-radius: 50%;"">
                    <div class=""lose-text"" style=""font-size: 48px; font-weight: bold; margin-top: 20px; text-shadow: 2px 2px 4px #000;"">-0.05&pound;</div>
                </div></div></div>","null","","","","","","","","","","","","","","","","","","","","","","","","","","","","","","","",""
"html-keyboard-response","121","427226","0.0-5.0-173.0","69309f7da595fb656eebdeb1","not_provided","0.5","desktop","0","0","0","","","","","","luck_game","","408","<div id=""score-counter"">TOTAL SCORE: &pound;0.35</div><div class=""experiment-container""><div class=""center-zone""><div class=""cross""></div><div class=""triangle-grid""><div class=""machine top-center blue-outline""></div><div class=""machine bottom-left green""></div><div class=""machine bottom-right red""></div></div></div></div>","arrowright","","","","gambling_choice","1","25","arrowright","bottom-right","red","arrowleft","bottom-left","green","arrowup","top-center","blue","arrowup","top-center","blue","0","0","0.3","0.35","-0.05","-0.05","true","false","","","","","",""
"html-keyboard-response","122","427329","0.0-5.0-174.0-0.0","69309f7da595fb656eebdeb1","not_provided","0.5","desktop","0","0","0","","","","","","luck_game","","null","<div id=""score-counter"">TOTAL SCORE: &pound;0.35</div><div class=""experiment-container""><div class=""center-zone""><div class=""cross""></div><div class=""triangle-grid""><div class=""machine top-center blue-outline""></div><div class=""machine bottom-left green""></div><div class=""machine bottom-right red""></div></div></div></div>","null","","","","","","","","","","","","","","","","","","","","","","","","","","","","","","","",""
"html-keyboard-response","123","427830","0.0-5.0-175.0-0.0","69309f7da595fb656eebdeb1","not_provided","0.5","desktop","0","0","0","","","","","","luck_game","","null","<div id=""score-counter"">TOTAL SCORE: &pound;0.35</div><div class=""experiment-container""><div class=""center-zone""><div class=""cross""></div></div></div>","null","","","","","","","","","","","","","","","","","","","","","","","","","","","","","","","",""
"html-keyboard-response","124","428835","0.0-5.0-176.0-0.0","69309f7da595fb656eebdeb1","not_provided","0.5","desktop","0","0","0","","","","","","luck_game","","null","<div id=""score-counter"">TOTAL SCORE: &pound;0.30</div><div class=""experiment-container""><div class=""center-zone""><div class=""cross""></div>
                <div style=""position: absolute; z-index: 10; display: flex; flex-direction: column; align-items: center; justify-content: center;"">
                    <div class=""lose-text"" style=""font-size: 48px; font-weight: bold; margin-bottom: 20px; text-shadow: 2px 2px 4px #000;"">LOSE</div>
                    <img src=""images/coin_no_reward.png"" class=""reward-img"" style=""background-color: black; border-radius: 50%;"">
                    <div class=""lose-text"" style=""font-size: 48px; font-weight: bold; margin-top: 20px; text-shadow: 2px 2px 4px #000;"">-0.05&pound;</div>
                </div></div></div>","null","","","","","","","","","","","","","","","","","","","","","","","","","","","","","","","",""
"html-keyboard-response","125","464244","0.0-5.0-179.0","69309f7da595fb656eebdeb1","not_provided","0.5","desktop","0","0","0","","","","","","luck_game","","35406","
            <div class=""experiment-container"">
                <div style=""text-align: center; font-family: sans-serif;"">
                    <h2 style=""color: white; font-size: 40px; margin-bottom: 20px;"">Rest phase.</h2>
                    <p style=""font-size: 24px; color: white;"">Take as much time as needed.</p>
                    <p style=""font-size: 24px; color: white; margin-top: 40px;"">When ready, press <strong>Space</strong> to continue.</p>
                </div>
            </div>"," ","","","","rest_break","","","","","","","","","","","","","","","","","","","","","","","","","","","",""
"html-keyboard-response","126","464942","0.0-5.0-180.0","69309f7da595fb656eebdeb1","not_provided","0.5","desktop","0","0","0","","","","","","luck_game","","696","<div id=""score-counter"">TOTAL SCORE: &pound;0.30</div><div class=""experiment-container""><div class=""center-zone""><div class=""cross""></div><div class=""triangle-grid""><div class=""machine top-center blue""></div><div class=""machine bottom-left green-outline""></div><div class=""machine bottom-right red""></div></div></div></div>","arrowup","","","","gambling_choice","2","1","arrowup","top-center","blue","arrowright","bottom-right","red","arrowleft","bottom-left","green","arrowup","top-center","blue","0","0","0.25","0.3","-0.05","-0.05","true","false","","","","","",""
"html-keyboard-response","127","465044","0.0-5.0-181.0-0.0","69309f7da595fb656eebdeb1","not_provided","0.5","desktop","0","0","0","","","","","","luck_game","","null","<div id=""score-counter"">TOTAL SCORE: &pound;0.30</div><div class=""experiment-container""><div class=""center-zone""><div class=""cross""></div><div class=""triangle-grid""><div class=""machine top-center blue""></div><div class=""machine bottom-left green-outline""></div><div class=""machine bottom-right red""></div></div></div></div>","null","","","","","","","","","","","","","","","","","","","","","","","","","","","","","","","",""
"html-keyboard-response","128","465545","0.0-5.0-182.0-0.0","69309f7da595fb656eebdeb1","not_provided","0.5","desktop","0","0","0","","","","","","luck_game","","null","<div id=""score-counter"">TOTAL SCORE: &pound;0.30</div><div class=""experiment-container""><div class=""center-zone""><div class=""cross""></div></div></div>","null","","","","","","","","","","","","","","","","","","","","","","","","","","","","","","","",""
"html-keyboard-response","129","466549","0.0-5.0-183.0-0.0","69309f7da595fb656eebdeb1","not_provided","0.5","desktop","0","0","0","","","","","","luck_game","","null","<div id=""score-counter"">TOTAL SCORE: &pound;0.25</div><div class=""experiment-container""><div class=""center-zone""><div class=""cross""></div>
                <div style=""position: absolute; z-index: 10; display: flex; flex-direction: column; align-items: center; justify-content: center;"">
                    <div class=""lose-text"" style=""font-size: 48px; font-weight: bold; margin-bottom: 20px; text-shadow: 2px 2px 4px #000;"">LOSE</div>
                    <img src=""images/coin_no_reward.png"" class=""reward-img"" style=""background-color: black; border-radius: 50%;"">
                    <div class=""lose-text"" style=""font-size: 48px; font-weight: bold; margin-top: 20px; text-shadow: 2px 2px 4px #000;"">-0.05&pound;</div>
                </div></div></div>","null","","","","","","","","","","","","","","","","","","","","","","","","","","","","","","","",""
"html-keyboard-response","130","467159","0.0-5.0-186.0","69309f7da595fb656eebdeb1","not_provided","0.5","desktop","0","0","0","","","","","","luck_game","","608","<div id=""score-counter"">TOTAL SCORE: &pound;0.25</div><div class=""experiment-container""><div class=""center-zone""><div class=""cross""></div><div class=""triangle-grid""><div class=""machine top-center blue""></div><div class=""machine bottom-left green""></div><div class=""machine bottom-right red-outline""></div></div></div></div>","arrowup","","","","gambling_choice","2","2","arrowup","top-center","blue","arrowup","top-center","blue","arrowright","bottom-right","red","arrowleft","bottom-left","green","0","1","0.3","0.25","0.05","-0.05","true","false","","","","","",""
"html-keyboard-response","131","467260","0.0-5.0-187.0-0.0","69309f7da595fb656eebdeb1","not_provided","0.5","desktop","0","0","0","","","","","","luck_game","","null","<div id=""score-counter"">TOTAL SCORE: &pound;0.25</div><div class=""experiment-container""><div class=""center-zone""><div class=""cross""></div><div class=""triangle-grid""><div class=""machine top-center blue""></div><div class=""machine bottom-left green""></div><div class=""machine bottom-right red-outline""></div></div></div></div>","null","","","","","","","","","","","","","","","","","","","","","","","","","","","","","","","",""
"html-keyboard-response","132","467762","0.0-5.0-188.0-0.0","69309f7da595fb656eebdeb1","not_provided","0.5","desktop","0","0","0","","","","","","luck_game","","null","<div id=""score-counter"">TOTAL SCORE: &pound;0.25</div><div class=""experiment-container""><div class=""center-zone""><div class=""cross""></div></div></div>","null","","","","","","","","","","","","","","","","","","","","","","","","","","","","","","","",""
"html-keyboard-response","133","468766","0.0-5.0-189.0-0.0","69309f7da595fb656eebdeb1","not_provided","0.5","desktop","0","0","0","","","","","","luck_game","","null","<div id=""score-counter"">TOTAL SCORE: &pound;0.30</div><div class=""experiment-container""><div class=""center-zone""><div class=""cross""></div>
                <div style=""position: absolute; z-index: 10; display: flex; flex-direction: column; align-items: center; justify-content: center;"">
                    <div class=""win-text"" style=""font-size: 48px; font-weight: bold; margin-bottom: 20px; text-shadow: 2px 2px 4px #000;"">WIN</div>
                    <img src=""images/coin_reward.png"" class=""reward-img"" style=""background-color: black; border-radius: 50%;"">
                    <div class=""win-text"" style=""font-size: 48px; font-weight: bold; margin-top: 20px; text-shadow: 2px 2px 4px #000;"">+0.05&pound;</div>
                </div></div></div>","null","","","","","","","","","","","","","","","","","","","","","","","","","","","","","","","",""
"html-keyboard-response","134","469441","0.0-5.0-192.0","69309f7da595fb656eebdeb1","not_provided","0.5","desktop","0","0","0","","","","","","luck_game","","674","<div id=""score-counter"">TOTAL SCORE: &pound;0.30</div><div class=""experiment-container""><div class=""center-zone""><div class=""cross""></div><div class=""triangle-grid""><div class=""machine top-center blue""></div><div class=""machine bottom-left green""></div><div class=""machine bottom-right red-outline""></div></div></div></div>","arrowup","","","","gambling_choice","2","3","arrowup","top-center","blue","arrowup","top-center","blue","arrowright","bottom-right","red","arrowright","bottom-right","red","1","1","0.35","0.3","0.05","0.05","true","false","","","","","",""
"html-keyboard-response","135","469543","0.0-5.0-193.0-0.0","69309f7da595fb656eebdeb1","not_provided","0.5","desktop","0","0","0","","","","","","luck_game","","null","<div id=""score-counter"">TOTAL SCORE: &pound;0.30</div><div class=""experiment-container""><div class=""center-zone""><div class=""cross""></div><div class=""triangle-grid""><div class=""machine top-center blue""></div><div class=""machine bottom-left green""></div><div class=""machine bottom-right red-outline""></div></div></div></div>","null","","","","","","","","","","","","","","","","","","","","","","","","","","","","","","","",""
"html-keyboard-response","136","470045","0.0-5.0-194.0-0.0","69309f7da595fb656eebdeb1","not_provided","0.5","desktop","0","0","0","","","","","","luck_game","","null","<div id=""score-counter"">TOTAL SCORE: &pound;0.30</div><div class=""experiment-container""><div class=""center-zone""><div class=""cross""></div></div></div>","null","","","","","","","","","","","","","","","","","","","","","","","","","","","","","","","",""
"html-keyboard-response","137","471048","0.0-5.0-195.0-0.0","69309f7da595fb656eebdeb1","not_provided","0.5","desktop","0","0","0","","","","","","luck_game","","null","<div id=""score-counter"">TOTAL SCORE: &pound;0.35</div><div class=""experiment-container""><div class=""center-zone""><div class=""cross""></div>
                <div style=""position: absolute; z-index: 10; display: flex; flex-direction: column; align-items: center; justify-content: center;"">
                    <div class=""win-text"" style=""font-size: 48px; font-weight: bold; margin-bottom: 20px; text-shadow: 2px 2px 4px #000;"">WIN</div>
                    <img src=""images/coin_reward.png"" class=""reward-img"" style=""background-color: black; border-radius: 50%;"">
                    <div class=""win-text"" style=""font-size: 48px; font-weight: bold; margin-top: 20px; text-shadow: 2px 2px 4px #000;"">+0.05&pound;</div>
                </div></div></div>","null","","","","","","","","","","","","","","","","","","","","","","","","","","","","","","","",""
"html-keyboard-response","138","472187","0.0-5.0-198.0","69309f7da595fb656eebdeb1","not_provided","0.5","desktop","0","0","0","","","","","","luck_game","","1137","<div id=""score-counter"">TOTAL SCORE: &pound;0.35</div><div class=""experiment-container""><div class=""center-zone""><div class=""cross""></div><div class=""triangle-grid""><div class=""machine top-center blue""></div><div class=""machine bottom-left green""></div><div class=""machine bottom-right red-outline""></div></div></div></div>","arrowleft","","","","gambling_choice","2","4","arrowleft","bottom-left","green","arrowup","top-center","blue","arrowright","bottom-right","red","arrowright","bottom-right","red","1","0","0.3","0.35","-0.05","0.05","true","false","","","","","",""
"html-keyboard-response","139","472289","0.0-5.0-199.0-0.0","69309f7da595fb656eebdeb1","not_provided","0.5","desktop","0","0","0","","","","","","luck_game","","null","<div id=""score-counter"">TOTAL SCORE: &pound;0.35</div><div class=""experiment-container""><div class=""center-zone""><div class=""cross""></div><div class=""triangle-grid""><div class=""machine top-center blue""></div><div class=""machine bottom-left green""></div><div class=""machine bottom-right red-outline""></div></div></div></div>","null","","","","","","","","","","","","","","","","","","","","","","","","","","","","","","","",""
"html-keyboard-response","140","472792","0.0-5.0-200.0-0.0","69309f7da595fb656eebdeb1","not_provided","0.5","desktop","0","0","0","","","","","","luck_game","","null","<div id=""score-counter"">TOTAL SCORE: &pound;0.35</div><div class=""experiment-container""><div class=""center-zone""><div class=""cross""></div></div></div>","null","","","","","","","","","","","","","","","","","","","","","","","","","","","","","","","",""
"html-keyboard-response","141","473795","0.0-5.0-201.0-0.0","69309f7da595fb656eebdeb1","not_provided","0.5","desktop","0","0","0","","","","","","luck_game","","null","<div id=""score-counter"">TOTAL SCORE: &pound;0.30</div><div class=""experiment-container""><div class=""center-zone""><div class=""cross""></div>
                <div style=""position: absolute; z-index: 10; display: flex; flex-direction: column; align-items: center; justify-content: center;"">
                    <div class=""lose-text"" style=""font-size: 48px; font-weight: bold; margin-bottom: 20px; text-shadow: 2px 2px 4px #000;"">LOSE</div>
                    <img src=""images/coin_no_reward.png"" class=""reward-img"" style=""background-color: black; border-radius: 50%;"">
                    <div class=""lose-text"" style=""font-size: 48px; font-weight: bold; margin-top: 20px; text-shadow: 2px 2px 4px #000;"">-0.05&pound;</div>
                </div></div></div>","null","","","","","","","","","","","","","","","","","","","","","","","","","","","","","","","",""
"html-keyboard-response","142","474952","0.0-5.0-204.0","69309f7da595fb656eebdeb1","not_provided","0.5","desktop","0","0","0","","","","","","luck_game","","1155","<div id=""score-counter"">TOTAL SCORE: &pound;0.30</div><div class=""experiment-container""><div class=""center-zone""><div class=""cross""></div><div class=""triangle-grid""><div class=""machine top-center blue""></div><div class=""machine bottom-left green-outline""></div><div class=""machine bottom-right red""></div></div></div></div>","arrowright","","","","gambling_choice","2","5","arrowright","bottom-right","red","arrowleft","bottom-left","green","arrowleft","bottom-left","green","arrowright","bottom-right","red","0","0","0.25","0.3","-0.05","-0.05","true","false","","","","","",""
