"trial_type","trial_index","time_elapsed","internal_node_id","subject_id","study_id","win_chance","device_type","blur_count","fullscreen_exit_count","failed_attention_checks","success","timeout","failed_images","failed_audio","failed_video","phase","view_history","rt","stimulus","response","question_order","trial_name","value","task","block_number","trial_number","choice_key","choice_location","choice_color","choice_key_oneback","choice_location_oneback","choice_color_oneback","unavailable_keys","unavailable_locations","unavailable_colors","unavailable_location","unavailable_color","unavailable_keys_oneback","unavailable_locations_oneback","unavailable_colors_oneback","reward_oneback","reward","total_score","total_score_oneback","coin_earned","coin_earned_oneback","is_choice_valid","is_timeout_reached","belief_blue","belief_green","belief_red","prompt","flipped","attention","expected_answer","category","question_index"
"pavlovia","0","919","0.0-0.0","69bbe13bdb78ed30b67655e6","not_provided","0.5","desktop","0","0","0","","","","","","","","","","","","","","","","","","","","","","","","","","","","","","","","","","","","","","","","","","","","","","",""
"preload","1","4370","0.0-2.0","69bbe13bdb78ed30b67655e6","not_provided","0.5","desktop","0","0","0","true","false","[]","[]","[]","","","","","","","","","","","","","","","","","","","","","","","","","","","","","","","","","","","","","","","","","",""
"fullscreen","2","11857","0.0-3.0","69bbe13bdb78ed30b67655e6","not_provided","0.5","desktop","0","0","0","true","","","","","setup","","","","","","","","","","","","","","","","","","","","","","","","","","","","","","","","","","","","","","","","",""
"instructions","3","343327","0.0-4.0-0.0-0.0-0.0","69bbe13bdb78ed30b67655e6","not_provided","0.5","desktop","0","0","0","","","","","","luck_game","[{""page_index"":0,""viewing_time"":31639},{""page_index"":1,""viewing_time"":40535},{""page_index"":2,""viewing_time"":50288},{""page_index"":3,""viewing_time"":18232},{""page_index"":4,""viewing_time"":34368},{""page_index"":5,""viewing_time"":46164},{""page_index"":6,""viewing_time"":18063},{""page_index"":7,""viewing_time"":49312},{""page_index"":8,""viewing_time"":17116},{""page_index"":9,""viewing_time"":16315},{""page_index"":10,""viewing_time"":9436}]","331469","","","","","","","","","","","","","","","","","","","","","","","","","","","","","","","","","","","","","","",""
"html-button-response","4","376887","0.0-4.0-0.0-1.0","69bbe13bdb78ed30b67655e6","not_provided","0.5","desktop","0","0","0","","","","","","luck_game","","33559","<div style=""max-width:640px; margin:0 auto; text-align:left;
                               font-family:sans-serif; color:white; padding:10px;"">
            <h3 style=""color:white; text-align:center;"">Quick Reminder</h3>
            <ul style=""line-height:2.1; font-size:1.05em;"">
                <li>There are <strong>3 luck machines</strong>:
                    <span style=""color:#5599ff""><strong>Blue</strong></span> (&uarr; Up),
                    <span style=""color:#55cc55""><strong>Green</strong></span> (&larr; Left),
                    <span style=""color:#ff5555""><strong>Red</strong></span> (&rarr; Right)</li>
                <li>Each turn, <strong>1 machine is READY</strong> and 2 are
                    <strong>unavailable</strong> (shown as a colored outline)</li>
                <li>Press the corresponding arrow key to activate the READY machine</li>
                <li>Activating one of the <strong>unavailable machines</strong>: lose your turn + time penalty</li>
                <li>Activating the READY machine: <strong class=""win-text"">50% win +&pound;0.05</strong>
                    / <strong class=""lose-text"">50% lose &minus;&pound;0.05</strong></li>
                <li><strong>Time limit:</strong> 6 seconds per turn &mdash; don&rsquo;t miss your chance!</li>
                <li><strong>Goal:</strong> Quickly activate the READY machine, avoid the unavailable ones</li>
            </ul>
        </div>","0","","","","","","","","","","","","","","","","","","","","","","","","","","","","","","","","","","","","",""
"survey-multi-choice","5","502614","0.0-4.0-0.0-2.0","69bbe13bdb78ed30b67655e6","not_provided","0.5","desktop","0","0","0","","","","","","luck_game","","125723","","{""q_total_machines"":""3"",""q_ready_machines"":""1"",""q_blue_key"":""↑ Up arrow key"",""q_red_key"":""→ Right arrow key"",""q_outcome"":""The red machine is one of the unavailable machines. I will lose my turn and chance to win coins, and get a time penalty."",""q_ready_outcome"":""I will either win a coin (+0.05£) or lose a coin (−0.05£)."",""q_goal"":""My goal is to quickly activate available luck machines, avoiding unavailable machines. If I am lucky, I will get rewarded."",""q_win_rates"":""Red: 50% win rate — Blue: 50% win rate — Green: 50% win rate""}","[0,1,2,3,4,5,6,7]","luck_game_quiz","","","","","","","","","","","","","","","","","","","","","","","","","","","","","","","","","","",""
"html-keyboard-response","6","509248","0.0-4.0-1.0","69bbe13bdb78ed30b67655e6","not_provided","0.5","desktop","0","0","0","","","","","","luck_game","","6632","
            <div style=""max-width: 600px; margin: 0 auto; text-align: center; font-family: sans-serif;"">
                <h2 style=""color: white;"">Good job, you learned the instructions!</h2>
                <p>We will now move to a short <strong>training phase</strong> to get you familiar with the game.</p>
                <p>Your score will <strong>not</strong> be counted during training.</p>
                <br>
                <p><strong>Press Space to start training.</strong></p>
            </div>"," ","","","","","","","","","","","","","","","","","","","","","","","","","","","","","","","","","","","","",""
"call-function","7","509248","0.0-4.0-2.0","69bbe13bdb78ed30b67655e6","not_provided","0.5","desktop","0","0","0","","","","","","luck_game","","","","","","","","","","","","","","","","","","","","","","","","","","","","","","","","","","","","","","","","",""
"html-keyboard-response","8","511660","0.0-4.0-3.0","69bbe13bdb78ed30b67655e6","not_provided","0.5","desktop","0","0","0","","","","","","luck_game","","2411","<div class=""experiment-container""><div class=""center-zone""><div class=""cross""></div><div class=""triangle-grid""><div class=""machine top-center blue-outline""></div><div class=""machine bottom-left green-outline""></div><div class=""machine bottom-right red""></div></div></div></div>","arrowright","","","","gambling_choice","training","1","arrowright","bottom-right","red","null","null","null","[""arrowup"",""arrowleft""]","[""top-center"",""bottom-left""]","[""blue"",""green""]","null","null","[]","[]","[]","null","1","0","0","0.05","null","true","false","","","","","","","","",""
"html-keyboard-response","9","511766","0.0-4.0-4.0-0.0","69bbe13bdb78ed30b67655e6","not_provided","0.5","desktop","0","0","0","","","","","","luck_game","","null","<div class=""experiment-container""><div class=""center-zone""><div class=""cross""></div><div class=""triangle-grid""><div class=""machine top-center blue-outline""></div><div class=""machine bottom-left green-outline""></div><div class=""machine bottom-right red""></div></div></div></div>","null","","","","","","","","","","","","","","","","","","","","","","","","","","","","","","","","","","","","",""
"html-keyboard-response","10","512276","0.0-4.0-5.0-0.0","69bbe13bdb78ed30b67655e6","not_provided","0.5","desktop","0","0","0","","","","","","luck_game","","null","<div class=""experiment-container""><div class=""center-zone""><div class=""cross""></div></div></div>","null","","","","","","","","","","","","","","","","","","","","","","","","","","","","","","","","","","","","",""
"html-keyboard-response","11","513280","0.0-4.0-6.0-0.0","69bbe13bdb78ed30b67655e6","not_provided","0.5","desktop","0","0","0","","","","","","luck_game","","null","<div class=""experiment-container""><div class=""center-zone""><div class=""cross""></div>
                <div style=""position: absolute; z-index: 10; display: flex; flex-direction: column; align-items: center; justify-content: center;"">
                    <div class=""win-text"" style=""font-size: 48px; font-weight: bold; margin-bottom: 20px; text-shadow: 2px 2px 4px #000;"">WIN</div>
                    <img src=""images/coin_reward.png"" class=""reward-img"" style=""background-color: black; border-radius: 50%;"">
                    <div class=""win-text"" style=""font-size: 48px; font-weight: bold; margin-top: 20px; text-shadow: 2px 2px 4px #000;"">+0.05&pound;</div>
                </div></div></div>","null","","","","","","","","","","","","","","","","","","","","","","","","","","","","","","","","","","","","",""
"html-keyboard-response","12","514295","0.0-4.0-7.0-0.0","69bbe13bdb78ed30b67655e6","not_provided","0.5","desktop","0","0","0","","","","","","luck_game","","null","<div class=""experiment-container""><div class=""center-zone""><div class=""cross""></div></div></div>","null","","","","","","","","","","","","","","","","","","","","","","","","","","","","","","","","","","","","",""
"html-keyboard-response","13","516914","0.0-4.0-10.0","69bbe13bdb78ed30b67655e6","not_provided","0.5","desktop","0","0","0","","","","","","luck_game","","2618","<div class=""experiment-container""><div class=""center-zone""><div class=""cross""></div><div class=""triangle-grid""><div class=""machine top-center blue-outline""></div><div class=""machine bottom-left green-outline""></div><div class=""machine bottom-right red""></div></div></div></div>","arrowup","","","","gambling_choice","training","2","arrowup","top-center","blue","arrowright","bottom-right","red","[""arrowup"",""arrowleft""]","[""top-center"",""bottom-left""]","[""blue"",""green""]","null","null","[""arrowup"",""arrowleft""]","[""top-center"",""bottom-left""]","[""blue"",""green""]","1","0","0","0","0","0.05","false","false","","","","","","","","",""
"html-keyboard-response","14","519916","0.0-4.0-16.0-0.0","69bbe13bdb78ed30b67655e6","not_provided","0.5","desktop","0","0","0","","","","","","luck_game","","null","
            <div id=""score-counter""></div>
            <div class=""experiment-container"">
                <div class=""center-zone"">
                    <p class=""feedback-text"" style=""margin: 0;"">Not available!</p>
                </div>
            </div>","null","","","","","","","","","","","","","","","","","","","","","","","","","","","","","","","","","","","","",""
"html-keyboard-response","15","520854","0.0-4.0-17.0","69bbe13bdb78ed30b67655e6","not_provided","0.5","desktop","0","0","0","","","","","","luck_game","","937","<div class=""experiment-container""><div class=""center-zone""><div class=""cross""></div><div class=""triangle-grid""><div class=""machine top-center blue-outline""></div><div class=""machine bottom-left green""></div><div class=""machine bottom-right red-outline""></div></div></div></div>","arrowleft","","","","gambling_choice","training","3","arrowleft","bottom-left","green","arrowup","top-center","blue","[""arrowright"",""arrowup""]","[""bottom-right"",""top-center""]","[""red"",""blue""]","null","null","[""arrowup"",""arrowleft""]","[""top-center"",""bottom-left""]","[""blue"",""green""]","0","0","0","0","-0.05","0","true","false","","","","","","","","",""
"html-keyboard-response","16","520967","0.0-4.0-18.0-0.0","69bbe13bdb78ed30b67655e6","not_provided","0.5","desktop","0","0","0","","","","","","luck_game","","null","<div class=""experiment-container""><div class=""center-zone""><div class=""cross""></div><div class=""triangle-grid""><div class=""machine top-center blue-outline""></div><div class=""machine bottom-left green""></div><div class=""machine bottom-right red-outline""></div></div></div></div>","null","","","","","","","","","","","","","","","","","","","","","","","","","","","","","","","","","","","","",""
"html-keyboard-response","17","521478","0.0-4.0-19.0-0.0","69bbe13bdb78ed30b67655e6","not_provided","0.5","desktop","0","0","0","","","","","","luck_game","","null","<div class=""experiment-container""><div class=""center-zone""><div class=""cross""></div></div></div>","null","","","","","","","","","","","","","","","","","","","","","","","","","","","","","","","","","","","","",""
"html-keyboard-response","18","522484","0.0-4.0-20.0-0.0","69bbe13bdb78ed30b67655e6","not_provided","0.5","desktop","0","0","0","","","","","","luck_game","","null","<div class=""experiment-container""><div class=""center-zone""><div class=""cross""></div>
                <div style=""position: absolute; z-index: 10; display: flex; flex-direction: column; align-items: center; justify-content: center;"">
                    <div class=""lose-text"" style=""font-size: 48px; font-weight: bold; margin-bottom: 20px; text-shadow: 2px 2px 4px #000;"">LOSE</div>
                    <img src=""images/coin_no_reward.png"" class=""reward-img"" style=""background-color: black; border-radius: 50%;"">
                    <div class=""lose-text"" style=""font-size: 48px; font-weight: bold; margin-top: 20px; text-shadow: 2px 2px 4px #000;"">-0.05&pound;</div>
                </div></div></div>","null","","","","","","","","","","","","","","","","","","","","","","","","","","","","","","","","","","","","",""
"html-keyboard-response","19","523497","0.0-4.0-21.0-0.0","69bbe13bdb78ed30b67655e6","not_provided","0.5","desktop","0","0","0","","","","","","luck_game","","null","<div class=""experiment-container""><div class=""center-zone""><div class=""cross""></div></div></div>","null","","","","","","","","","","","","","","","","","","","","","","","","","","","","","","","","","","","","",""
"html-keyboard-response","20","525319","0.0-4.0-24.0","69bbe13bdb78ed30b67655e6","not_provided","0.5","desktop","0","0","0","","","","","","luck_game","","1821","<div class=""experiment-container""><div class=""center-zone""><div class=""cross""></div><div class=""triangle-grid""><div class=""machine top-center blue-outline""></div><div class=""machine bottom-left green-outline""></div><div class=""machine bottom-right red""></div></div></div></div>","arrowright","","","","gambling_choice","training","4","arrowright","bottom-right","red","arrowleft","bottom-left","green","[""arrowleft"",""arrowup""]","[""bottom-left"",""top-center""]","[""green"",""blue""]","null","null","[""arrowright"",""arrowup""]","[""bottom-right"",""top-center""]","[""red"",""blue""]","0","1","0","0","0.05","-0.05","true","false","","","","","","","","",""
"html-keyboard-response","21","525434","0.0-4.0-25.0-0.0","69bbe13bdb78ed30b67655e6","not_provided","0.5","desktop","0","0","0","","","","","","luck_game","","null","<div class=""experiment-container""><div class=""center-zone""><div class=""cross""></div><div class=""triangle-grid""><div class=""machine top-center blue-outline""></div><div class=""machine bottom-left green-outline""></div><div class=""machine bottom-right red""></div></div></div></div>","null","","","","","","","","","","","","","","","","","","","","","","","","","","","","","","","","","","","","",""
"html-keyboard-response","22","525942","0.0-4.0-26.0-0.0","69bbe13bdb78ed30b67655e6","not_provided","0.5","desktop","0","0","0","","","","","","luck_game","","null","<div class=""experiment-container""><div class=""center-zone""><div class=""cross""></div></div></div>","null","","","","","","","","","","","","","","","","","","","","","","","","","","","","","","","","","","","","",""
"html-keyboard-response","23","526949","0.0-4.0-27.0-0.0","69bbe13bdb78ed30b67655e6","not_provided","0.5","desktop","0","0","0","","","","","","luck_game","","null","<div class=""experiment-container""><div class=""center-zone""><div class=""cross""></div>
                <div style=""position: absolute; z-index: 10; display: flex; flex-direction: column; align-items: center; justify-content: center;"">
                    <div class=""win-text"" style=""font-size: 48px; font-weight: bold; margin-bottom: 20px; text-shadow: 2px 2px 4px #000;"">WIN</div>
                    <img src=""images/coin_reward.png"" class=""reward-img"" style=""background-color: black; border-radius: 50%;"">
                    <div class=""win-text"" style=""font-size: 48px; font-weight: bold; margin-top: 20px; text-shadow: 2px 2px 4px #000;"">+0.05&pound;</div>
                </div></div></div>","null","","","","","","","","","","","","","","","","","","","","","","","","","","","","","","","","","","","","",""
"html-keyboard-response","24","527965","0.0-4.0-28.0-0.0","69bbe13bdb78ed30b67655e6","not_provided","0.5","desktop","0","0","0","","","","","","luck_game","","null","<div class=""experiment-container""><div class=""center-zone""><div class=""cross""></div></div></div>","null","","","","","","","","","","","","","","","","","","","","","","","","","","","","","","","","","","","","",""
"call-function","25","527966","0.0-4.0-31.0","69bbe13bdb78ed30b67655e6","not_provided","0.5","desktop","0","0","0","","","","","","luck_game","","","","","","","","","","","","","","","","","","","","","","","","","","","","","","","","","","","","","","","","",""
"html-keyboard-response","26","532792","0.0-4.0-32.0","69bbe13bdb78ed30b67655e6","not_provided","0.5","desktop","0","0","0","","","","","","luck_game","","4826","
            <div style=""max-width: 600px; margin: 0 auto; text-align: center; font-family: sans-serif;"">
                <h2 style=""color: white;"">Training Complete</h2>
                <p>You will now start the real game.</p>
                <br>
                <p><strong>Press Space to begin.</strong></p>
            </div>"," ","","","","","","","","","","","","","","","","","","","","","","","","","","","","","","","","","","","","",""
"html-keyboard-response","27","533734","0.0-4.0-33.0","69bbe13bdb78ed30b67655e6","not_provided","0.5","desktop","0","0","0","","","","","","luck_game","","940","<div id=""score-counter"">TOTAL SCORE: &pound;0.00</div><div class=""experiment-container""><div class=""center-zone""><div class=""cross""></div><div class=""triangle-grid""><div class=""machine top-center blue""></div><div class=""machine bottom-left green-outline""></div><div class=""machine bottom-right red-outline""></div></div></div></div>","arrowup","","","","gambling_choice","1","1","arrowup","top-center","blue","arrowright","bottom-right","red","[""arrowleft"",""arrowright""]","[""bottom-left"",""bottom-right""]","[""green"",""red""]","null","null","[""arrowleft"",""arrowup""]","[""bottom-left"",""top-center""]","[""green"",""blue""]","1","0","0","0","-0.05","0.05","true","false","","","","","","","","",""
"html-keyboard-response","28","533846","0.0-4.0-34.0-0.0","69bbe13bdb78ed30b67655e6","not_provided","0.5","desktop","0","0","0","","","","","","luck_game","","null","<div id=""score-counter"">TOTAL SCORE: &pound;0.00</div><div class=""experiment-container""><div class=""center-zone""><div class=""cross""></div><div class=""triangle-grid""><div class=""machine top-center blue""></div><div class=""machine bottom-left green-outline""></div><div class=""machine bottom-right red-outline""></div></div></div></div>","null","","","","","","","","","","","","","","","","","","","","","","","","","","","","","","","","","","","","",""
"html-keyboard-response","29","534359","0.0-4.0-35.0-0.0","69bbe13bdb78ed30b67655e6","not_provided","0.5","desktop","0","0","0","","","","","","luck_game","","null","<div id=""score-counter"">TOTAL SCORE: &pound;0.00</div><div class=""experiment-container""><div class=""center-zone""><div class=""cross""></div></div></div>","null","","","","","","","","","","","","","","","","","","","","","","","","","","","","","","","","","","","","",""
"html-keyboard-response","30","535377","0.0-4.0-36.0-0.0","69bbe13bdb78ed30b67655e6","not_provided","0.5","desktop","0","0","0","","","","","","luck_game","","null","<div id=""score-counter"">TOTAL SCORE: &pound;0.00</div><div class=""experiment-container""><div class=""center-zone""><div class=""cross""></div>
                <div style=""position: absolute; z-index: 10; display: flex; flex-direction: column; align-items: center; justify-content: center;"">
                    <div class=""lose-text"" style=""font-size: 48px; font-weight: bold; margin-bottom: 20px; text-shadow: 2px 2px 4px #000;"">LOSE</div>
                    <img src=""images/coin_no_reward.png"" class=""reward-img"" style=""background-color: black; border-radius: 50%;"">
                    <div class=""lose-text"" style=""font-size: 48px; font-weight: bold; margin-top: 20px; text-shadow: 2px 2px 4px #000;"">-0.05&pound;</div>
                </div></div></div>","null","","","","","","","","","","","","","","","","","","","","","","","","","","","","","","","","","","","","",""
"html-keyboard-response","31","536380","0.0-4.0-37.0-0.0","69bbe13bdb78ed30b67655e6","not_provided","0.5","desktop","0","0","0","","","","","","luck_game","","null","<div id=""score-counter"">TOTAL SCORE: &pound;0.00</div><div class=""experiment-container""><div class=""center-zone""><div class=""cross""></div></div></div>","null","","","","","","","","","","","","","","","","","","","","","","","","","","","","","","","","","","","","",""
"html-keyboard-response","32","537898","0.0-4.0-40.0","69bbe13bdb78ed30b67655e6","not_provided","0.5","desktop","0","0","0","","","","","","luck_game","","1517","<div id=""score-counter"">TOTAL SCORE: &pound;0.00</div><div class=""experiment-container""><div class=""center-zone""><div class=""cross""></div><div class=""triangle-grid""><div class=""machine top-center blue""></div><div class=""machine bottom-left green-outline""></div><div class=""machine bottom-right red-outline""></div></div></div></div>","arrowleft","","","","gambling_choice","1","2","arrowleft","bottom-left","green","arrowup","top-center","blue","[""arrowright"",""arrowleft""]","[""bottom-right"",""bottom-left""]","[""red"",""green""]","null","null","[""arrowleft"",""arrowright""]","[""bottom-left"",""bottom-right""]","[""green"",""red""]","0","0","0","0","0","-0.05","false","false","","","","","","","","",""
"html-keyboard-response","33","540911","0.0-4.0-46.0-0.0","69bbe13bdb78ed30b67655e6","not_provided","0.5","desktop","0","0","0","","","","","","luck_game","","null","
            <div id=""score-counter"">TOTAL SCORE: &pound;0.00</div>
            <div class=""experiment-container"">
                <div class=""center-zone"">
                    <p class=""feedback-text"" style=""margin: 0;"">Not available!</p>
                </div>
            </div>","null","","","","","","","","","","","","","","","","","","","","","","","","","","","","","","","","","","","","",""
"html-keyboard-response","34","543976","0.0-4.0-47.0","69bbe13bdb78ed30b67655e6","not_provided","0.5","desktop","0","0","0","","","","","","luck_game","","3063","<div id=""score-counter"">TOTAL SCORE: &pound;0.00</div><div class=""experiment-container""><div class=""center-zone""><div class=""cross""></div><div class=""triangle-grid""><div class=""machine top-center blue""></div><div class=""machine bottom-left green-outline""></div><div class=""machine bottom-right red-outline""></div></div></div></div>","arrowright","","","","gambling_choice","1","3","arrowright","bottom-right","red","arrowleft","bottom-left","green","[""arrowleft"",""arrowright""]","[""bottom-left"",""bottom-right""]","[""green"",""red""]","null","null","[""arrowright"",""arrowleft""]","[""bottom-right"",""bottom-left""]","[""red"",""green""]","0","0","0","0","0","0","false","false","","","","","","","","",""
"html-keyboard-response","35","546992","0.0-4.0-53.0-0.0","69bbe13bdb78ed30b67655e6","not_provided","0.5","desktop","0","0","0","","","","","","luck_game","","null","
            <div id=""score-counter"">TOTAL SCORE: &pound;0.00</div>
            <div class=""experiment-container"">
                <div class=""center-zone"">
                    <p class=""feedback-text"" style=""margin: 0;"">Not available!</p>
                </div>
            </div>","null","","","","","","","","","","","","","","","","","","","","","","","","","","","","","","","","","","","","",""
"html-keyboard-response","36","548152","0.0-4.0-54.0","69bbe13bdb78ed30b67655e6","not_provided","0.5","desktop","0","0","0","","","","","","luck_game","","1158","<div id=""score-counter"">TOTAL SCORE: &pound;0.00</div><div class=""experiment-container""><div class=""center-zone""><div class=""cross""></div><div class=""triangle-grid""><div class=""machine top-center blue-outline""></div><div class=""machine bottom-left green""></div><div class=""machine bottom-right red-outline""></div></div></div></div>","arrowleft","","","","gambling_choice","1","4","arrowleft","bottom-left","green","arrowright","bottom-right","red","[""arrowright"",""arrowup""]","[""bottom-right"",""top-center""]","[""red"",""blue""]","null","null","[""arrowleft"",""arrowright""]","[""bottom-left"",""bottom-right""]","[""green"",""red""]","0","0","0","0","-0.05","0","true","false","","","","","","","","",""
"html-keyboard-response","37","548265","0.0-4.0-55.0-0.0","69bbe13bdb78ed30b67655e6","not_provided","0.5","desktop","0","0","0","","","","","","luck_game","","null","<div id=""score-counter"">TOTAL SCORE: &pound;0.00</div><div class=""experiment-container""><div class=""center-zone""><div class=""cross""></div><div class=""triangle-grid""><div class=""machine top-center blue-outline""></div><div class=""machine bottom-left green""></div><div class=""machine bottom-right red-outline""></div></div></div></div>","null","","","","","","","","","","","","","","","","","","","","","","","","","","","","","","","","","","","","",""
"html-keyboard-response","38","548773","0.0-4.0-56.0-0.0","69bbe13bdb78ed30b67655e6","not_provided","0.5","desktop","0","0","0","","","","","","luck_game","","null","<div id=""score-counter"">TOTAL SCORE: &pound;0.00</div><div class=""experiment-container""><div class=""center-zone""><div class=""cross""></div></div></div>","null","","","","","","","","","","","","","","","","","","","","","","","","","","","","","","","","","","","","",""
"html-keyboard-response","39","549778","0.0-4.0-57.0-0.0","69bbe13bdb78ed30b67655e6","not_provided","0.5","desktop","0","0","0","","","","","","luck_game","","null","<div id=""score-counter"">TOTAL SCORE: &pound;0.00</div><div class=""experiment-container""><div class=""center-zone""><div class=""cross""></div>
                <div style=""position: absolute; z-index: 10; display: flex; flex-direction: column; align-items: center; justify-content: center;"">
                    <div class=""lose-text"" style=""font-size: 48px; font-weight: bold; margin-bottom: 20px; text-shadow: 2px 2px 4px #000;"">LOSE</div>
                    <img src=""images/coin_no_reward.png"" class=""reward-img"" style=""background-color: black; border-radius: 50%;"">
                    <div class=""lose-text"" style=""font-size: 48px; font-weight: bold; margin-top: 20px; text-shadow: 2px 2px 4px #000;"">-0.05&pound;</div>
                </div></div></div>","null","","","","","","","","","","","","","","","","","","","","","","","","","","","","","","","","","","","","",""
"html-keyboard-response","40","550795","0.0-4.0-58.0-0.0","69bbe13bdb78ed30b67655e6","not_provided","0.5","desktop","0","0","0","","","","","","luck_game","","null","<div id=""score-counter"">TOTAL SCORE: &pound;0.00</div><div class=""experiment-container""><div class=""center-zone""><div class=""cross""></div></div></div>","null","","","","","","","","","","","","","","","","","","","","","","","","","","","","","","","","","","","","",""
"html-keyboard-response","41","551627","0.0-4.0-61.0","69bbe13bdb78ed30b67655e6","not_provided","0.5","desktop","0","0","0","","","","","","luck_game","","832","<div id=""score-counter"">TOTAL SCORE: &pound;0.00</div><div class=""experiment-container""><div class=""center-zone""><div class=""cross""></div><div class=""triangle-grid""><div class=""machine top-center blue-outline""></div><div class=""machine bottom-left green-outline""></div><div class=""machine bottom-right red""></div></div></div></div>","arrowright","","","","gambling_choice","1","5","arrowright","bottom-right","red","arrowleft","bottom-left","green","[""arrowup"",""arrowleft""]","[""top-center"",""bottom-left""]","[""blue"",""green""]","null","null","[""arrowright"",""arrowup""]","[""bottom-right"",""top-center""]","[""red"",""blue""]","0","0","0","0","-0.05","-0.05","true","false","","","","","","","","",""
"html-keyboard-response","42","551730","0.0-4.0-62.0-0.0","69bbe13bdb78ed30b67655e6","not_provided","0.5","desktop","0","0","0","","","","","","luck_game","","null","<div id=""score-counter"">TOTAL SCORE: &pound;0.00</div><div class=""experiment-container""><div class=""center-zone""><div class=""cross""></div><div class=""triangle-grid""><div class=""machine top-center blue-outline""></div><div class=""machine bottom-left green-outline""></div><div class=""machine bottom-right red""></div></div></div></div>","null","","","","","","","","","","","","","","","","","","","","","","","","","","","","","","","","","","","","",""
"html-keyboard-response","43","552239","0.0-4.0-63.0-0.0","69bbe13bdb78ed30b67655e6","not_provided","0.5","desktop","0","0","0","","","","","","luck_game","","null","<div id=""score-counter"">TOTAL SCORE: &pound;0.00</div><div class=""experiment-container""><div class=""center-zone""><div class=""cross""></div></div></div>","null","","","","","","","","","","","","","","","","","","","","","","","","","","","","","","","","","","","","",""
"html-keyboard-response","44","553248","0.0-4.0-64.0-0.0","69bbe13bdb78ed30b67655e6","not_provided","0.5","desktop","0","0","0","","","","","","luck_game","","null","<div id=""score-counter"">TOTAL SCORE: &pound;0.00</div><div class=""experiment-container""><div class=""center-zone""><div class=""cross""></div>
                <div style=""position: absolute; z-index: 10; display: flex; flex-direction: column; align-items: center; justify-content: center;"">
                    <div class=""lose-text"" style=""font-size: 48px; font-weight: bold; margin-bottom: 20px; text-shadow: 2px 2px 4px #000;"">LOSE</div>
                    <img src=""images/coin_no_reward.png"" class=""reward-img"" style=""background-color: black; border-radius: 50%;"">
                    <div class=""lose-text"" style=""font-size: 48px; font-weight: bold; margin-top: 20px; text-shadow: 2px 2px 4px #000;"">-0.05&pound;</div>
                </div></div></div>","null","","","","","","","","","","","","","","","","","","","","","","","","","","","","","","","","","","","","",""
"html-keyboard-response","45","554263","0.0-4.0-65.0-0.0","69bbe13bdb78ed30b67655e6","not_provided","0.5","desktop","0","0","0","","","","","","luck_game","","null","<div id=""score-counter"">TOTAL SCORE: &pound;0.00</div><div class=""experiment-container""><div class=""center-zone""><div class=""cross""></div></div></div>","null","","","","","","","","","","","","","","","","","","","","","","","","","","","","","","","","","","","","",""
"html-keyboard-response","46","558099","0.0-4.0-68.0","69bbe13bdb78ed30b67655e6","not_provided","0.5","desktop","0","0","0","","","","","","luck_game","","3835","<div id=""score-counter"">TOTAL SCORE: &pound;0.00</div><div class=""experiment-container""><div class=""center-zone""><div class=""cross""></div><div class=""triangle-grid""><div class=""machine top-center blue-outline""></div><div class=""machine bottom-left green-outline""></div><div class=""machine bottom-right red""></div></div></div></div>","arrowright","","","","gambling_choice","1","6","arrowright","bottom-right","red","arrowright","bottom-right","red","[""arrowleft"",""arrowup""]","[""bottom-left"",""top-center""]","[""green"",""blue""]","null","null","[""arrowup"",""arrowleft""]","[""top-center"",""bottom-left""]","[""blue"",""green""]","0","0","0","0","-0.05","-0.05","true","false","","","","","","","","",""
"html-keyboard-response","47","558215","0.0-4.0-69.0-0.0","69bbe13bdb78ed30b67655e6","not_provided","0.5","desktop","0","0","0","","","","","","luck_game","","null","<div id=""score-counter"">TOTAL SCORE: &pound;0.00</div><div class=""experiment-container""><div class=""center-zone""><div class=""cross""></div><div class=""triangle-grid""><div class=""machine top-center blue-outline""></div><div class=""machine bottom-left green-outline""></div><div class=""machine bottom-right red""></div></div></div></div>","null","","","","","","","","","","","","","","","","","","","","","","","","","","","","","","","","","","","","",""
"html-keyboard-response","48","558723","0.0-4.0-70.0-0.0","69bbe13bdb78ed30b67655e6","not_provided","0.5","desktop","0","0","0","","","","","","luck_game","","null","<div id=""score-counter"">TOTAL SCORE: &pound;0.00</div><div class=""experiment-container""><div class=""center-zone""><div class=""cross""></div></div></div>","null","","","","","","","","","","","","","","","","","","","","","","","","","","","","","","","","","","","","",""
"html-keyboard-response","49","559728","0.0-4.0-71.0-0.0","69bbe13bdb78ed30b67655e6","not_provided","0.5","desktop","0","0","0","","","","","","luck_game","","null","<div id=""score-counter"">TOTAL SCORE: &pound;0.00</div><div class=""experiment-container""><div class=""center-zone""><div class=""cross""></div>
                <div style=""position: absolute; z-index: 10; display: flex; flex-direction: column; align-items: center; justify-content: center;"">
                    <div class=""lose-text"" style=""font-size: 48px; font-weight: bold; margin-bottom: 20px; text-shadow: 2px 2px 4px #000;"">LOSE</div>
                    <img src=""images/coin_no_reward.png"" class=""reward-img"" style=""background-color: black; border-radius: 50%;"">
                    <div class=""lose-text"" style=""font-size: 48px; font-weight: bold; margin-top: 20px; text-shadow: 2px 2px 4px #000;"">-0.05&pound;</div>
                </div></div></div>","null","","","","","","","","","","","","","","","","","","","","","","","","","","","","","","","","","","","","",""
"html-keyboard-response","50","560742","0.0-4.0-72.0-0.0","69bbe13bdb78ed30b67655e6","not_provided","0.5","desktop","0","0","0","","","","","","luck_game","","null","<div id=""score-counter"">TOTAL SCORE: &pound;0.00</div><div class=""experiment-container""><div class=""center-zone""><div class=""cross""></div></div></div>","null","","","","","","","","","","","","","","","","","","","","","","","","","","","","","","","","","","","","",""
"html-keyboard-response","51","564615","0.0-4.0-75.0","69bbe13bdb78ed30b67655e6","not_provided","0.5","desktop","0","0","0","","","","","","luck_game","","3872","<div id=""score-counter"">TOTAL SCORE: &pound;0.00</div><div class=""experiment-container""><div class=""center-zone""><div class=""cross""></div><div class=""triangle-grid""><div class=""machine top-center blue""></div><div class=""machine bottom-left green-outline""></div><div class=""machine bottom-right red-outline""></div></div></div></div>","arrowleft","","","","gambling_choice","1","7","arrowleft","bottom-left","green","arrowright","bottom-right","red","[""arrowright"",""arrowleft""]","[""bottom-right"",""bottom-left""]","[""red"",""green""]","null","null","[""arrowleft"",""arrowup""]","[""bottom-left"",""top-center""]","[""green"",""blue""]","0","0","0","0","0","-0.05","false","false","","","","","","","","",""
"html-keyboard-response","52","567627","0.0-4.0-81.0-0.0","69bbe13bdb78ed30b67655e6","not_provided","0.5","desktop","0","0","0","","","","","","luck_game","","null","
            <div id=""score-counter"">TOTAL SCORE: &pound;0.00</div>
            <div class=""experiment-container"">
                <div class=""center-zone"">
                    <p class=""feedback-text"" style=""margin: 0;"">Not available!</p>
                </div>
            </div>","null","","","","","","","","","","","","","","","","","","","","","","","","","","","","","","","","","","","","",""
"html-keyboard-response","53","573631","0.0-4.0-82.0","69bbe13bdb78ed30b67655e6","not_provided","0.5","desktop","0","0","0","","","","","","luck_game","","null","<div id=""score-counter"">TOTAL SCORE: &pound;0.00</div><div class=""experiment-container""><div class=""center-zone""><div class=""cross""></div><div class=""triangle-grid""><div class=""machine top-center blue-outline""></div><div class=""machine bottom-left green""></div><div class=""machine bottom-right red-outline""></div></div></div></div>","null","","","","gambling_choice","1","8","null","null","null","arrowleft","bottom-left","green","[""arrowup"",""arrowright""]","[""top-center"",""bottom-right""]","[""blue"",""red""]","null","null","[""arrowright"",""arrowleft""]","[""bottom-right"",""bottom-left""]","[""red"",""green""]","0","0","0","0","0","0","false","true","","","","","","","","",""
"html-keyboard-response","54","574645","0.0-4.0-87.0-0.0","69bbe13bdb78ed30b67655e6","not_provided","0.5","desktop","0","0","0","","","","","","luck_game","","null","
            <div id=""score-counter"">TOTAL SCORE: &pound;0.00</div>
            <div class=""experiment-container"">
                <div class=""center-zone"">
                    <p class=""feedback-text"" style=""margin: 0;"">Too late!</p>
                </div>
            </div>","null","","","","","","","","","","","","","","","","","","","","","","","","","","","","","","","","","","","","",""
"html-keyboard-response","55","575227","0.0-4.0-89.0","69bbe13bdb78ed30b67655e6","not_provided","0.5","desktop","0","0","0","","","","","","luck_game","","581","<div id=""score-counter"">TOTAL SCORE: &pound;0.00</div><div class=""experiment-container""><div class=""center-zone""><div class=""cross""></div><div class=""triangle-grid""><div class=""machine top-center blue-outline""></div><div class=""machine bottom-left green""></div><div class=""machine bottom-right red-outline""></div></div></div></div>","arrowleft","","","","gambling_choice","1","9","arrowleft","bottom-left","green","null","null","null","[""arrowup"",""arrowright""]","[""top-center"",""bottom-right""]","[""blue"",""red""]","null","null","[""arrowup"",""arrowright""]","[""top-center"",""bottom-right""]","[""blue"",""red""]","0","1","0.05","0","0.05","0","true","false","","","","","","","","",""
"html-keyboard-response","56","575329","0.0-4.0-90.0-0.0","69bbe13bdb78ed30b67655e6","not_provided","0.5","desktop","0","0","0","","","","","","luck_game","","null","<div id=""score-counter"">TOTAL SCORE: &pound;0.00</div><div class=""experiment-container""><div class=""center-zone""><div class=""cross""></div><div class=""triangle-grid""><div class=""machine top-center blue-outline""></div><div class=""machine bottom-left green""></div><div class=""machine bottom-right red-outline""></div></div></div></div>","null","","","","","","","","","","","","","","","","","","","","","","","","","","","","","","","","","","","","",""
"html-keyboard-response","57","575839","0.0-4.0-91.0-0.0","69bbe13bdb78ed30b67655e6","not_provided","0.5","desktop","0","0","0","","","","","","luck_game","","null","<div id=""score-counter"">TOTAL SCORE: &pound;0.00</div><div class=""experiment-container""><div class=""center-zone""><div class=""cross""></div></div></div>","null","","","","","","","","","","","","","","","","","","","","","","","","","","","","","","","","","","","","",""
"html-keyboard-response","58","576847","0.0-4.0-92.0-0.0","69bbe13bdb78ed30b67655e6","not_provided","0.5","desktop","0","0","0","","","","","","luck_game","","null","<div id=""score-counter"">TOTAL SCORE: &pound;0.05</div><div class=""experiment-container""><div class=""center-zone""><div class=""cross""></div>
                <div style=""position: absolute; z-index: 10; display: flex; flex-direction: column; align-items: center; justify-content: center;"">
                    <div class=""win-text"" style=""font-size: 48px; font-weight: bold; margin-bottom: 20px; text-shadow: 2px 2px 4px #000;"">WIN</div>
                    <img src=""images/coin_reward.png"" class=""reward-img"" style=""background-color: black; border-radius: 50%;"">
                    <div class=""win-text"" style=""font-size: 48px; font-weight: bold; margin-top: 20px; text-shadow: 2px 2px 4px #000;"">+0.05&pound;</div>
                </div></div></div>","null","","","","","","","","","","","","","","","","","","","","","","","","","","","","","","","","","","","","",""
"html-keyboard-response","59","577861","0.0-4.0-93.0-0.0","69bbe13bdb78ed30b67655e6","not_provided","0.5","desktop","0","0","0","","","","","","luck_game","","null","<div id=""score-counter"">TOTAL SCORE: &pound;0.05</div><div class=""experiment-container""><div class=""center-zone""><div class=""cross""></div></div></div>","null","","","","","","","","","","","","","","","","","","","","","","","","","","","","","","","","","","","","",""
"html-keyboard-response","60","578754","0.0-4.0-96.0","69bbe13bdb78ed30b67655e6","not_provided","0.5","desktop","0","0","0","","","","","","luck_game","","892","<div id=""score-counter"">TOTAL SCORE: &pound;0.05</div><div class=""experiment-container""><div class=""center-zone""><div class=""cross""></div><div class=""triangle-grid""><div class=""machine top-center blue""></div><div class=""machine bottom-left green-outline""></div><div class=""machine bottom-right red-outline""></div></div></div></div>","arrowup","","","","gambling_choice","1","10","arrowup","top-center","blue","arrowleft","bottom-left","green","[""arrowright"",""arrowleft""]","[""bottom-right"",""bottom-left""]","[""red"",""green""]","null","null","[""arrowup"",""arrowright""]","[""top-center"",""bottom-right""]","[""blue"",""red""]","1","0","0","0.05","-0.05","0.05","true","false","","","","","","","","",""
"html-keyboard-response","61","578862","0.0-4.0-97.0-0.0","69bbe13bdb78ed30b67655e6","not_provided","0.5","desktop","0","0","0","","","","","","luck_game","","null","<div id=""score-counter"">TOTAL SCORE: &pound;0.05</div><div class=""experiment-container""><div class=""center-zone""><div class=""cross""></div><div class=""triangle-grid""><div class=""machine top-center blue""></div><div class=""machine bottom-left green-outline""></div><div class=""machine bottom-right red-outline""></div></div></div></div>","null","","","","","","","","","","","","","","","","","","","","","","","","","","","","","","","","","","","","",""
"html-keyboard-response","62","579371","0.0-4.0-98.0-0.0","69bbe13bdb78ed30b67655e6","not_provided","0.5","desktop","0","0","0","","","","","","luck_game","","null","<div id=""score-counter"">TOTAL SCORE: &pound;0.05</div><div class=""experiment-container""><div class=""center-zone""><div class=""cross""></div></div></div>","null","","","","","","","","","","","","","","","","","","","","","","","","","","","","","","","","","","","","",""
"html-keyboard-response","63","580375","0.0-4.0-99.0-0.0","69bbe13bdb78ed30b67655e6","not_provided","0.5","desktop","0","0","0","","","","","","luck_game","","null","<div id=""score-counter"">TOTAL SCORE: &pound;0.00</div><div class=""experiment-container""><div class=""center-zone""><div class=""cross""></div>
                <div style=""position: absolute; z-index: 10; display: flex; flex-direction: column; align-items: center; justify-content: center;"">
                    <div class=""lose-text"" style=""font-size: 48px; font-weight: bold; margin-bottom: 20px; text-shadow: 2px 2px 4px #000;"">LOSE</div>
                    <img src=""images/coin_no_reward.png"" class=""reward-img"" style=""background-color: black; border-radius: 50%;"">
                    <div class=""lose-text"" style=""font-size: 48px; font-weight: bold; margin-top: 20px; text-shadow: 2px 2px 4px #000;"">-0.05&pound;</div>
                </div></div></div>","null","","","","","","","","","","","","","","","","","","","","","","","","","","","","","","","","","","","","",""
"html-keyboard-response","64","581392","0.0-4.0-100.0-0.0","69bbe13bdb78ed30b67655e6","not_provided","0.5","desktop","0","0","0","","","","","","luck_game","","null","<div id=""score-counter"">TOTAL SCORE: &pound;0.00</div><div class=""experiment-container""><div class=""center-zone""><div class=""cross""></div></div></div>","null","","","","","","","","","","","","","","","","","","","","","","","","","","","","","","","","","","","","",""
"html-keyboard-response","65","582046","0.0-4.0-103.0","69bbe13bdb78ed30b67655e6","not_provided","0.5","desktop","0","0","0","","","","","","luck_game","","653","<div id=""score-counter"">TOTAL SCORE: &pound;0.00</div><div class=""experiment-container""><div class=""center-zone""><div class=""cross""></div><div class=""triangle-grid""><div class=""machine top-center blue-outline""></div><div class=""machine bottom-left green""></div><div class=""machine bottom-right red-outline""></div></div></div></div>","arrowleft","","","","gambling_choice","1","11","arrowleft","bottom-left","green","arrowup","top-center","blue","[""arrowup"",""arrowright""]","[""top-center"",""bottom-right""]","[""blue"",""red""]","null","null","[""arrowright"",""arrowleft""]","[""bottom-right"",""bottom-left""]","[""red"",""green""]","0","1","0.05","0","0.05","-0.05","true","false","","","","","","","","",""
"html-keyboard-response","66","582162","0.0-4.0-104.0-0.0","69bbe13bdb78ed30b67655e6","not_provided","0.5","desktop","0","0","0","","","","","","luck_game","","null","<div id=""score-counter"">TOTAL SCORE: &pound;0.00</div><div class=""experiment-container""><div class=""center-zone""><div class=""cross""></div><div class=""triangle-grid""><div class=""machine top-center blue-outline""></div><div class=""machine bottom-left green""></div><div class=""machine bottom-right red-outline""></div></div></div></div>","null","","","","","","","","","","","","","","","","","","","","","","","","","","","","","","","","","","","","",""
"html-keyboard-response","67","582671","0.0-4.0-105.0-0.0","69bbe13bdb78ed30b67655e6","not_provided","0.5","desktop","0","0","0","","","","","","luck_game","","null","<div id=""score-counter"">TOTAL SCORE: &pound;0.00</div><div class=""experiment-container""><div class=""center-zone""><div class=""cross""></div></div></div>","null","","","","","","","","","","","","","","","","","","","","","","","","","","","","","","","","","","","","",""
"html-keyboard-response","68","583677","0.0-4.0-106.0-0.0","69bbe13bdb78ed30b67655e6","not_provided","0.5","desktop","0","0","0","","","","","","luck_game","","null","<div id=""score-counter"">TOTAL SCORE: &pound;0.05</div><div class=""experiment-container""><div class=""center-zone""><div class=""cross""></div>
                <div style=""position: absolute; z-index: 10; display: flex; flex-direction: column; align-items: center; justify-content: center;"">
                    <div class=""win-text"" style=""font-size: 48px; font-weight: bold; margin-bottom: 20px; text-shadow: 2px 2px 4px #000;"">WIN</div>
                    <img src=""images/coin_reward.png"" class=""reward-img"" style=""background-color: black; border-radius: 50%;"">
                    <div class=""win-text"" style=""font-size: 48px; font-weight: bold; margin-top: 20px; text-shadow: 2px 2px 4px #000;"">+0.05&pound;</div>
                </div></div></div>","null","","","","","","","","","","","","","","","","","","","","","","","","","","","","","","","","","","","","",""
"html-keyboard-response","69","584693","0.0-4.0-107.0-0.0","69bbe13bdb78ed30b67655e6","not_provided","0.5","desktop","0","0","0","","","","","","luck_game","","null","<div id=""score-counter"">TOTAL SCORE: &pound;0.05</div><div class=""experiment-container""><div class=""center-zone""><div class=""cross""></div></div></div>","null","","","","","","","","","","","","","","","","","","","","","","","","","","","","","","","","","","","","",""
"html-keyboard-response","70","585715","0.0-4.0-110.0","69bbe13bdb78ed30b67655e6","not_provided","0.5","desktop","0","0","0","","","","","","luck_game","","1020","<div id=""score-counter"">TOTAL SCORE: &pound;0.05</div><div class=""experiment-container""><div class=""center-zone""><div class=""cross""></div><div class=""triangle-grid""><div class=""machine top-center blue-outline""></div><div class=""machine bottom-left green-outline""></div><div class=""machine bottom-right red""></div></div></div></div>","arrowleft","","","","gambling_choice","1","12","arrowleft","bottom-left","green","arrowleft","bottom-left","green","[""arrowup"",""arrowleft""]","[""top-center"",""bottom-left""]","[""blue"",""green""]","null","null","[""arrowup"",""arrowright""]","[""top-center"",""bottom-right""]","[""blue"",""red""]","1","0","0.05","0.05","0","0.05","false","false","","","","","","","","",""
"html-keyboard-response","71","588726","0.0-4.0-116.0-0.0","69bbe13bdb78ed30b67655e6","not_provided","0.5","desktop","0","0","0","","","","","","luck_game","","null","
            <div id=""score-counter"">TOTAL SCORE: &pound;0.05</div>
            <div class=""experiment-container"">
                <div class=""center-zone"">
                    <p class=""feedback-text"" style=""margin: 0;"">Not available!</p>
                </div>
            </div>","null","","","","","","","","","","","","","","","","","","","","","","","","","","","","","","","","","","","","",""
"html-keyboard-response","72","591390","0.0-4.0-117.0","69bbe13bdb78ed30b67655e6","not_provided","0.5","desktop","0","0","0","","","","","","luck_game","","2663","<div id=""score-counter"">TOTAL SCORE: &pound;0.05</div><div class=""experiment-container""><div class=""center-zone""><div class=""cross""></div><div class=""triangle-grid""><div class=""machine top-center blue-outline""></div><div class=""machine bottom-left green-outline""></div><div class=""machine bottom-right red""></div></div></div></div>","arrowleft","","","","gambling_choice","1","13","arrowleft","bottom-left","green","arrowleft","bottom-left","green","[""arrowup"",""arrowleft""]","[""top-center"",""bottom-left""]","[""blue"",""green""]","null","null","[""arrowup"",""arrowleft""]","[""top-center"",""bottom-left""]","[""blue"",""green""]","0","0","0.05","0.05","0","0","false","false","","","","","","","","",""
"html-keyboard-response","73","594399","0.0-4.0-123.0-0.0","69bbe13bdb78ed30b67655e6","not_provided","0.5","desktop","0","0","0","","","","","","luck_game","","null","
            <div id=""score-counter"">TOTAL SCORE: &pound;0.05</div>
            <div class=""experiment-container"">
                <div class=""center-zone"">
                    <p class=""feedback-text"" style=""margin: 0;"">Not available!</p>
                </div>
            </div>","null","","","","","","","","","","","","","","","","","","","","","","","","","","","","","","","","","","","","",""
"html-keyboard-response","74","596163","0.0-4.0-124.0","69bbe13bdb78ed30b67655e6","not_provided","0.5","desktop","0","0","0","","","","","","luck_game","","1764","<div id=""score-counter"">TOTAL SCORE: &pound;0.05</div><div class=""experiment-container""><div class=""center-zone""><div class=""cross""></div><div class=""triangle-grid""><div class=""machine top-center blue""></div><div class=""machine bottom-left green-outline""></div><div class=""machine bottom-right red-outline""></div></div></div></div>","arrowright","","","","gambling_choice","1","14","arrowright","bottom-right","red","arrowleft","bottom-left","green","[""arrowright"",""arrowleft""]","[""bottom-right"",""bottom-left""]","[""red"",""green""]","null","null","[""arrowup"",""arrowleft""]","[""top-center"",""bottom-left""]","[""blue"",""green""]","0","0","0.05","0.05","0","0","false","false","","","","","","","","",""
"html-keyboard-response","75","599166","0.0-4.0-130.0-0.0","69bbe13bdb78ed30b67655e6","not_provided","0.5","desktop","0","0","0","","","","","","luck_game","","null","
            <div id=""score-counter"">TOTAL SCORE: &pound;0.05</div>
            <div class=""experiment-container"">
                <div class=""center-zone"">
                    <p class=""feedback-text"" style=""margin: 0;"">Not available!</p>
                </div>
            </div>","null","","","","","","","","","","","","","","","","","","","","","","","","","","","","","","","","","","","","",""
"html-keyboard-response","76","599958","0.0-4.0-131.0","69bbe13bdb78ed30b67655e6","not_provided","0.5","desktop","0","0","0","","","","","","luck_game","","792","<div id=""score-counter"">TOTAL SCORE: &pound;0.05</div><div class=""experiment-container""><div class=""center-zone""><div class=""cross""></div><div class=""triangle-grid""><div class=""machine top-center blue-outline""></div><div class=""machine bottom-left green""></div><div class=""machine bottom-right red-outline""></div></div></div></div>","arrowleft","","","","gambling_choice","1","15","arrowleft","bottom-left","green","arrowright","bottom-right","red","[""arrowup"",""arrowright""]","[""top-center"",""bottom-right""]","[""blue"",""red""]","null","null","[""arrowright"",""arrowleft""]","[""bottom-right"",""bottom-left""]","[""red"",""green""]","0","1","0.1","0.05","0.05","0","true","false","","","","","","","","",""
"html-keyboard-response","77","600061","0.0-4.0-132.0-0.0","69bbe13bdb78ed30b67655e6","not_provided","0.5","desktop","0","0","0","","","","","","luck_game","","null","<div id=""score-counter"">TOTAL SCORE: &pound;0.05</div><div class=""experiment-container""><div class=""center-zone""><div class=""cross""></div><div class=""triangle-grid""><div class=""machine top-center blue-outline""></div><div class=""machine bottom-left green""></div><div class=""machine bottom-right red-outline""></div></div></div></div>","null","","","","","","","","","","","","","","","","","","","","","","","","","","","","","","","","","","","","",""
"html-keyboard-response","78","600568","0.0-4.0-133.0-0.0","69bbe13bdb78ed30b67655e6","not_provided","0.5","desktop","0","0","0","","","","","","luck_game","","null","<div id=""score-counter"">TOTAL SCORE: &pound;0.05</div><div class=""experiment-container""><div class=""center-zone""><div class=""cross""></div></div></div>","null","","","","","","","","","","","","","","","","","","","","","","","","","","","","","","","","","","","","",""
"html-keyboard-response","79","601572","0.0-4.0-134.0-0.0","69bbe13bdb78ed30b67655e6","not_provided","0.5","desktop","0","0","0","","","","","","luck_game","","null","<div id=""score-counter"">TOTAL SCORE: &pound;0.10</div><div class=""experiment-container""><div class=""center-zone""><div class=""cross""></div>
                <div style=""position: absolute; z-index: 10; display: flex; flex-direction: column; align-items: center; justify-content: center;"">
                    <div class=""win-text"" style=""font-size: 48px; font-weight: bold; margin-bottom: 20px; text-shadow: 2px 2px 4px #000;"">WIN</div>
                    <img src=""images/coin_reward.png"" class=""reward-img"" style=""background-color: black; border-radius: 50%;"">
                    <div class=""win-text"" style=""font-size: 48px; font-weight: bold; margin-top: 20px; text-shadow: 2px 2px 4px #000;"">+0.05&pound;</div>
                </div></div></div>","null","","","","","","","","","","","","","","","","","","","","","","","","","","","","","","","","","","","","",""
"html-keyboard-response","80","602587","0.0-4.0-135.0-0.0","69bbe13bdb78ed30b67655e6","not_provided","0.5","desktop","0","0","0","","","","","","luck_game","","null","<div id=""score-counter"">TOTAL SCORE: &pound;0.10</div><div class=""experiment-container""><div class=""center-zone""><div class=""cross""></div></div></div>","null","","","","","","","","","","","","","","","","","","","","","","","","","","","","","","","","","","","","",""
"html-keyboard-response","81","603983","0.0-4.0-138.0","69bbe13bdb78ed30b67655e6","not_provided","0.5","desktop","0","0","0","","","","","","luck_game","","1395","<div id=""score-counter"">TOTAL SCORE: &pound;0.10</div><div class=""experiment-container""><div class=""center-zone""><div class=""cross""></div><div class=""triangle-grid""><div class=""machine top-center blue-outline""></div><div class=""machine bottom-left green-outline""></div><div class=""machine bottom-right red""></div></div></div></div>","arrowleft","","","","gambling_choice","1","16","arrowleft","bottom-left","green","arrowleft","bottom-left","green","[""arrowleft"",""arrowup""]","[""bottom-left"",""top-center""]","[""green"",""blue""]","null","null","[""arrowup"",""arrowright""]","[""top-center"",""bottom-right""]","[""blue"",""red""]","1","0","0.1","0.1","0","0.05","false","false","","","","","","","","",""
"html-keyboard-response","82","606997","0.0-4.0-144.0-0.0","69bbe13bdb78ed30b67655e6","not_provided","0.5","desktop","0","0","0","","","","","","luck_game","","null","
            <div id=""score-counter"">TOTAL SCORE: &pound;0.10</div>
            <div class=""experiment-container"">
                <div class=""center-zone"">
                    <p class=""feedback-text"" style=""margin: 0;"">Not available!</p>
                </div>
            </div>","null","","","","","","","","","","","","","","","","","","","","","","","","","","","","","","","","","","","","",""
"html-keyboard-response","83","608359","0.0-4.0-145.0","69bbe13bdb78ed30b67655e6","not_provided","0.5","desktop","0","0","0","","","","","","luck_game","","1361","<div id=""score-counter"">TOTAL SCORE: &pound;0.10</div><div class=""experiment-container""><div class=""center-zone""><div class=""cross""></div><div class=""triangle-grid""><div class=""machine top-center blue-outline""></div><div class=""machine bottom-left green""></div><div class=""machine bottom-right red-outline""></div></div></div></div>","arrowleft","","","","gambling_choice","1","17","arrowleft","bottom-left","green","arrowleft","bottom-left","green","[""arrowright"",""arrowup""]","[""bottom-right"",""top-center""]","[""red"",""blue""]","null","null","[""arrowleft"",""arrowup""]","[""bottom-left"",""top-center""]","[""green"",""blue""]","0","0","0.05","0.1","-0.05","0","true","false","","","","","","","","",""
"html-keyboard-response","84","608475","0.0-4.0-146.0-0.0","69bbe13bdb78ed30b67655e6","not_provided","0.5","desktop","0","0","0","","","","","","luck_game","","null","<div id=""score-counter"">TOTAL SCORE: &pound;0.10</div><div class=""experiment-container""><div class=""center-zone""><div class=""cross""></div><div class=""triangle-grid""><div class=""machine top-center blue-outline""></div><div class=""machine bottom-left green""></div><div class=""machine bottom-right red-outline""></div></div></div></div>","null","","","","","","","","","","","","","","","","","","","","","","","","","","","","","","","","","","","","",""
"html-keyboard-response","85","608986","0.0-4.0-147.0-0.0","69bbe13bdb78ed30b67655e6","not_provided","0.5","desktop","0","0","0","","","","","","luck_game","","null","<div id=""score-counter"">TOTAL SCORE: &pound;0.10</div><div class=""experiment-container""><div class=""center-zone""><div class=""cross""></div></div></div>","null","","","","","","","","","","","","","","","","","","","","","","","","","","","","","","","","","","","","",""
"html-keyboard-response","86","609992","0.0-4.0-148.0-0.0","69bbe13bdb78ed30b67655e6","not_provided","0.5","desktop","0","0","0","","","","","","luck_game","","null","<div id=""score-counter"">TOTAL SCORE: &pound;0.05</div><div class=""experiment-container""><div class=""center-zone""><div class=""cross""></div>
                <div style=""position: absolute; z-index: 10; display: flex; flex-direction: column; align-items: center; justify-content: center;"">
                    <div class=""lose-text"" style=""font-size: 48px; font-weight: bold; margin-bottom: 20px; text-shadow: 2px 2px 4px #000;"">LOSE</div>
                    <img src=""images/coin_no_reward.png"" class=""reward-img"" style=""background-color: black; border-radius: 50%;"">
                    <div class=""lose-text"" style=""font-size: 48px; font-weight: bold; margin-top: 20px; text-shadow: 2px 2px 4px #000;"">-0.05&pound;</div>
                </div></div></div>","null","","","","","","","","","","","","","","","","","","","","","","","","","","","","","","","","","","","","",""
"html-keyboard-response","87","611005","0.0-4.0-149.0-0.0","69bbe13bdb78ed30b67655e6","not_provided","0.5","desktop","0","0","0","","","","","","luck_game","","null","<div id=""score-counter"">TOTAL SCORE: &pound;0.05</div><div class=""experiment-container""><div class=""center-zone""><div class=""cross""></div></div></div>","null","","","","","","","","","","","","","","","","","","","","","","","","","","","","","","","","","","","","",""
"html-keyboard-response","88","612966","0.0-4.0-152.0","69bbe13bdb78ed30b67655e6","not_provided","0.5","desktop","0","0","0","","","","","","luck_game","","1960","<div id=""score-counter"">TOTAL SCORE: &pound;0.05</div><div class=""experiment-container""><div class=""center-zone""><div class=""cross""></div><div class=""triangle-grid""><div class=""machine top-center blue-outline""></div><div class=""machine bottom-left green-outline""></div><div class=""machine bottom-right red""></div></div></div></div>","arrowright","","","","gambling_choice","1","18","arrowright","bottom-right","red","arrowleft","bottom-left","green","[""arrowup"",""arrowleft""]","[""top-center"",""bottom-left""]","[""blue"",""green""]","null","null","[""arrowright"",""arrowup""]","[""bottom-right"",""top-center""]","[""red"",""blue""]","0","0","0","0.05","-0.05","-0.05","true","false","","","","","","","","",""
"html-keyboard-response","89","613077","0.0-4.0-153.0-0.0","69bbe13bdb78ed30b67655e6","not_provided","0.5","desktop","0","0","0","","","","","","luck_game","","null","<div id=""score-counter"">TOTAL SCORE: &pound;0.05</div><div class=""experiment-container""><div class=""center-zone""><div class=""cross""></div><div class=""triangle-grid""><div class=""machine top-center blue-outline""></div><div class=""machine bottom-left green-outline""></div><div class=""machine bottom-right red""></div></div></div></div>","null","","","","","","","","","","","","","","","","","","","","","","","","","","","","","","","","","","","","",""
"html-keyboard-response","90","613588","0.0-4.0-154.0-0.0","69bbe13bdb78ed30b67655e6","not_provided","0.5","desktop","0","0","0","","","","","","luck_game","","null","<div id=""score-counter"">TOTAL SCORE: &pound;0.05</div><div class=""experiment-container""><div class=""center-zone""><div class=""cross""></div></div></div>","null","","","","","","","","","","","","","","","","","","","","","","","","","","","","","","","","","","","","",""
"html-keyboard-response","91","614590","0.0-4.0-155.0-0.0","69bbe13bdb78ed30b67655e6","not_provided","0.5","desktop","0","0","0","","","","","","luck_game","","null","<div id=""score-counter"">TOTAL SCORE: &pound;0.00</div><div class=""experiment-container""><div class=""center-zone""><div class=""cross""></div>
                <div style=""position: absolute; z-index: 10; display: flex; flex-direction: column; align-items: center; justify-content: center;"">
                    <div class=""lose-text"" style=""font-size: 48px; font-weight: bold; margin-bottom: 20px; text-shadow: 2px 2px 4px #000;"">LOSE</div>
                    <img src=""images/coin_no_reward.png"" class=""reward-img"" style=""background-color: black; border-radius: 50%;"">
                    <div class=""lose-text"" style=""font-size: 48px; font-weight: bold; margin-top: 20px; text-shadow: 2px 2px 4px #000;"">-0.05&pound;</div>
                </div></div></div>","null","","","","","","","","","","","","","","","","","","","","","","","","","","","","","","","","","","","","",""
"html-keyboard-response","92","615605","0.0-4.0-156.0-0.0","69bbe13bdb78ed30b67655e6","not_provided","0.5","desktop","0","0","0","","","","","","luck_game","","null","<div id=""score-counter"">TOTAL SCORE: &pound;0.00</div><div class=""experiment-container""><div class=""center-zone""><div class=""cross""></div></div></div>","null","","","","","","","","","","","","","","","","","","","","","","","","","","","","","","","","","","","","",""
"html-keyboard-response","93","617169","0.0-4.0-159.0","69bbe13bdb78ed30b67655e6","not_provided","0.5","desktop","0","0","0","","","","","","luck_game","","1564","<div id=""score-counter"">TOTAL SCORE: &pound;0.00</div><div class=""experiment-container""><div class=""center-zone""><div class=""cross""></div><div class=""triangle-grid""><div class=""machine top-center blue-outline""></div><div class=""machine bottom-left green-outline""></div><div class=""machine bottom-right red""></div></div></div></div>","arrowright","","","","gambling_choice","1","19","arrowright","bottom-right","red","arrowright","bottom-right","red","[""arrowup"",""arrowleft""]","[""top-center"",""bottom-left""]","[""blue"",""green""]","null","null","[""arrowup"",""arrowleft""]","[""top-center"",""bottom-left""]","[""blue"",""green""]","0","0","0","0","-0.05","-0.05","true","false","","","","","","","","",""
"html-keyboard-response","94","617277","0.0-4.0-160.0-0.0","69bbe13bdb78ed30b67655e6","not_provided","0.5","desktop","0","0","0","","","","","","luck_game","","null","<div id=""score-counter"">TOTAL SCORE: &pound;0.00</div><div class=""experiment-container""><div class=""center-zone""><div class=""cross""></div><div class=""triangle-grid""><div class=""machine top-center blue-outline""></div><div class=""machine bottom-left green-outline""></div><div class=""machine bottom-right red""></div></div></div></div>","null","","","","","","","","","","","","","","","","","","","","","","","","","","","","","","","","","","","","",""
"html-keyboard-response","95","617783","0.0-4.0-161.0-0.0","69bbe13bdb78ed30b67655e6","not_provided","0.5","desktop","0","0","0","","","","","","luck_game","","null","<div id=""score-counter"">TOTAL SCORE: &pound;0.00</div><div class=""experiment-container""><div class=""center-zone""><div class=""cross""></div></div></div>","null","","","","","","","","","","","","","","","","","","","","","","","","","","","","","","","","","","","","",""
"html-keyboard-response","96","618789","0.0-4.0-162.0-0.0","69bbe13bdb78ed30b67655e6","not_provided","0.5","desktop","0","0","0","","","","","","luck_game","","null","<div id=""score-counter"">TOTAL SCORE: &pound;0.00</div><div class=""experiment-container""><div class=""center-zone""><div class=""cross""></div>
                <div style=""position: absolute; z-index: 10; display: flex; flex-direction: column; align-items: center; justify-content: center;"">
                    <div class=""lose-text"" style=""font-size: 48px; font-weight: bold; margin-bottom: 20px; text-shadow: 2px 2px 4px #000;"">LOSE</div>
                    <img src=""images/coin_no_reward.png"" class=""reward-img"" style=""background-color: black; border-radius: 50%;"">
                    <div class=""lose-text"" style=""font-size: 48px; font-weight: bold; margin-top: 20px; text-shadow: 2px 2px 4px #000;"">-0.05&pound;</div>
                </div></div></div>","null","","","","","","","","","","","","","","","","","","","","","","","","","","","","","","","","","","","","",""
"html-keyboard-response","97","619790","0.0-4.0-163.0-0.0","69bbe13bdb78ed30b67655e6","not_provided","0.5","desktop","0","0","0","","","","","","luck_game","","null","<div id=""score-counter"">TOTAL SCORE: &pound;0.00</div><div class=""experiment-container""><div class=""center-zone""><div class=""cross""></div></div></div>","null","","","","","","","","","","","","","","","","","","","","","","","","","","","","","","","","","","","","",""
"html-keyboard-response","98","620641","0.0-4.0-166.0","69bbe13bdb78ed30b67655e6","not_provided","0.5","desktop","0","0","0","","","","","","luck_game","","850","<div id=""score-counter"">TOTAL SCORE: &pound;0.00</div><div class=""experiment-container""><div class=""center-zone""><div class=""cross""></div><div class=""triangle-grid""><div class=""machine top-center blue""></div><div class=""machine bottom-left green-outline""></div><div class=""machine bottom-right red-outline""></div></div></div></div>","arrowup","","","","gambling_choice","1","20","arrowup","top-center","blue","arrowright","bottom-right","red","[""arrowright"",""arrowleft""]","[""bottom-right"",""bottom-left""]","[""red"",""green""]","null","null","[""arrowup"",""arrowleft""]","[""top-center"",""bottom-left""]","[""blue"",""green""]","0","1","0.05","0","0.05","-0.05","true","false","","","","","","","","",""
"html-keyboard-response","99","620742","0.0-4.0-167.0-0.0","69bbe13bdb78ed30b67655e6","not_provided","0.5","desktop","0","0","0","","","","","","luck_game","","null","<div id=""score-counter"">TOTAL SCORE: &pound;0.00</div><div class=""experiment-container""><div class=""center-zone""><div class=""cross""></div><div class=""triangle-grid""><div class=""machine top-center blue""></div><div class=""machine bottom-left green-outline""></div><div class=""machine bottom-right red-outline""></div></div></div></div>","null","","","","","","","","","","","","","","","","","","","","","","","","","","","","","","","","","","","","",""
"html-keyboard-response","100","621250","0.0-4.0-168.0-0.0","69bbe13bdb78ed30b67655e6","not_provided","0.5","desktop","0","0","0","","","","","","luck_game","","null","<div id=""score-counter"">TOTAL SCORE: &pound;0.00</div><div class=""experiment-container""><div class=""center-zone""><div class=""cross""></div></div></div>","null","","","","","","","","","","","","","","","","","","","","","","","","","","","","","","","","","","","","",""
"html-keyboard-response","101","622256","0.0-4.0-169.0-0.0","69bbe13bdb78ed30b67655e6","not_provided","0.5","desktop","0","0","0","","","","","","luck_game","","null","<div id=""score-counter"">TOTAL SCORE: &pound;0.05</div><div class=""experiment-container""><div class=""center-zone""><div class=""cross""></div>
                <div style=""position: absolute; z-index: 10; display: flex; flex-direction: column; align-items: center; justify-content: center;"">
                    <div class=""win-text"" style=""font-size: 48px; font-weight: bold; margin-bottom: 20px; text-shadow: 2px 2px 4px #000;"">WIN</div>
                    <img src=""images/coin_reward.png"" class=""reward-img"" style=""background-color: black; border-radius: 50%;"">
                    <div class=""win-text"" style=""font-size: 48px; font-weight: bold; margin-top: 20px; text-shadow: 2px 2px 4px #000;"">+0.05&pound;</div>
                </div></div></div>","null","","","","","","","","","","","","","","","","","","","","","","","","","","","","","","","","","","","","",""
"html-keyboard-response","102","623271","0.0-4.0-170.0-0.0","69bbe13bdb78ed30b67655e6","not_provided","0.5","desktop","0","0","0","","","","","","luck_game","","null","<div id=""score-counter"">TOTAL SCORE: &pound;0.05</div><div class=""experiment-container""><div class=""center-zone""><div class=""cross""></div></div></div>","null","","","","","","","","","","","","","","","","","","","","","","","","","","","","","","","","","","","","",""
"html-keyboard-response","103","624573","0.0-4.0-173.0","69bbe13bdb78ed30b67655e6","not_provided","0.5","desktop","0","0","0","","","","","","luck_game","","1301","<div id=""score-counter"">TOTAL SCORE: &pound;0.05</div><div class=""experiment-container""><div class=""center-zone""><div class=""cross""></div><div class=""triangle-grid""><div class=""machine top-center blue-outline""></div><div class=""machine bottom-left green-outline""></div><div class=""machine bottom-right red""></div></div></div></div>","arrowleft","","","","gambling_choice","1","21","arrowleft","bottom-left","green","arrowup","top-center","blue","[""arrowup"",""arrowleft""]","[""top-center"",""bottom-left""]","[""blue"",""green""]","null","null","[""arrowright"",""arrowleft""]","[""bottom-right"",""bottom-left""]","[""red"",""green""]","1","0","0.05","0.05","0","0.05","false","false","","","","","","","","",""
"html-keyboard-response","104","627584","0.0-4.0-179.0-0.0","69bbe13bdb78ed30b67655e6","not_provided","0.5","desktop","0","0","0","","","","","","luck_game","","null","
            <div id=""score-counter"">TOTAL SCORE: &pound;0.05</div>
            <div class=""experiment-container"">
                <div class=""center-zone"">
                    <p class=""feedback-text"" style=""margin: 0;"">Not available!</p>
                </div>
            </div>","null","","","","","","","","","","","","","","","","","","","","","","","","","","","","","","","","","","","","",""
"html-keyboard-response","105","628658","0.0-4.0-180.0","69bbe13bdb78ed30b67655e6","not_provided","0.5","desktop","0","0","0","","","","","","luck_game","","1074","<div id=""score-counter"">TOTAL SCORE: &pound;0.05</div><div class=""experiment-container""><div class=""center-zone""><div class=""cross""></div><div class=""triangle-grid""><div class=""machine top-center blue-outline""></div><div class=""machine bottom-left green""></div><div class=""machine bottom-right red-outline""></div></div></div></div>","arrowleft","","","","gambling_choice","1","22","arrowleft","bottom-left","green","arrowleft","bottom-left","green","[""arrowright"",""arrowup""]","[""bottom-right"",""top-center""]","[""red"",""blue""]","null","null","[""arrowup"",""arrowleft""]","[""top-center"",""bottom-left""]","[""blue"",""green""]","0","1","0.1","0.05","0.05","0","true","false","","","","","","","","",""
"html-keyboard-response","106","628773","0.0-4.0-181.0-0.0","69bbe13bdb78ed30b67655e6","not_provided","0.5","desktop","0","0","0","","","","","","luck_game","","null","<div id=""score-counter"">TOTAL SCORE: &pound;0.05</div><div class=""experiment-container""><div class=""center-zone""><div class=""cross""></div><div class=""triangle-grid""><div class=""machine top-center blue-outline""></div><div class=""machine bottom-left green""></div><div class=""machine bottom-right red-outline""></div></div></div></div>","null","","","","","","","","","","","","","","","","","","","","","","","","","","","","","","","","","","","","",""
"html-keyboard-response","107","629283","0.0-4.0-182.0-0.0","69bbe13bdb78ed30b67655e6","not_provided","0.5","desktop","0","0","0","","","","","","luck_game","","null","<div id=""score-counter"">TOTAL SCORE: &pound;0.05</div><div class=""experiment-container""><div class=""center-zone""><div class=""cross""></div></div></div>","null","","","","","","","","","","","","","","","","","","","","","","","","","","","","","","","","","","","","",""
"html-keyboard-response","108","630288","0.0-4.0-183.0-0.0","69bbe13bdb78ed30b67655e6","not_provided","0.5","desktop","0","0","0","","","","","","luck_game","","null","<div id=""score-counter"">TOTAL SCORE: &pound;0.10</div><div class=""experiment-container""><div class=""center-zone""><div class=""cross""></div>
                <div style=""position: absolute; z-index: 10; display: flex; flex-direction: column; align-items: center; justify-content: center;"">
                    <div class=""win-text"" style=""font-size: 48px; font-weight: bold; margin-bottom: 20px; text-shadow: 2px 2px 4px #000;"">WIN</div>
                    <img src=""images/coin_reward.png"" class=""reward-img"" style=""background-color: black; border-radius: 50%;"">
                    <div class=""win-text"" style=""font-size: 48px; font-weight: bold; margin-top: 20px; text-shadow: 2px 2px 4px #000;"">+0.05&pound;</div>
                </div></div></div>","null","","","","","","","","","","","","","","","","","","","","","","","","","","","","","","","","","","","","",""
"html-keyboard-response","109","631304","0.0-4.0-184.0-0.0","69bbe13bdb78ed30b67655e6","not_provided","0.5","desktop","0","0","0","","","","","","luck_game","","null","<div id=""score-counter"">TOTAL SCORE: &pound;0.10</div><div class=""experiment-container""><div class=""center-zone""><div class=""cross""></div></div></div>","null","","","","","","","","","","","","","","","","","","","","","","","","","","","","","","","","","","","","",""
"html-keyboard-response","110","632266","0.0-4.0-187.0","69bbe13bdb78ed30b67655e6","not_provided","0.5","desktop","0","0","0","","","","","","luck_game","","962","<div id=""score-counter"">TOTAL SCORE: &pound;0.10</div><div class=""experiment-container""><div class=""center-zone""><div class=""cross""></div><div class=""triangle-grid""><div class=""machine top-center blue-outline""></div><div class=""machine bottom-left green""></div><div class=""machine bottom-right red-outline""></div></div></div></div>","arrowright","","","","gambling_choice","1","23","arrowright","bottom-right","red","arrowleft","bottom-left","green","[""arrowup"",""arrowright""]","[""top-center"",""bottom-right""]","[""blue"",""red""]","null","null","[""arrowright"",""arrowup""]","[""bottom-right"",""top-center""]","[""red"",""blue""]","1","0","0.1","0.1","0","0.05","false","false","","","","","","","","",""
"html-keyboard-response","111","635268","0.0-4.0-193.0-0.0","69bbe13bdb78ed30b67655e6","not_provided","0.5","desktop","0","0","0","","","","","","luck_game","","null","
            <div id=""score-counter"">TOTAL SCORE: &pound;0.10</div>
            <div class=""experiment-container"">
                <div class=""center-zone"">
                    <p class=""feedback-text"" style=""margin: 0;"">Not available!</p>
                </div>
            </div>","null","","","","","","","","","","","","","","","","","","","","","","","","","","","","","","","","","","","","",""
"html-keyboard-response","112","637173","0.0-4.0-194.0","69bbe13bdb78ed30b67655e6","not_provided","0.5","desktop","0","0","0","","","","","","luck_game","","1905","<div id=""score-counter"">TOTAL SCORE: &pound;0.10</div><div class=""experiment-container""><div class=""center-zone""><div class=""cross""></div><div class=""triangle-grid""><div class=""machine top-center blue-outline""></div><div class=""machine bottom-left green-outline""></div><div class=""machine bottom-right red""></div></div></div></div>","arrowleft","","","","gambling_choice","1","24","arrowleft","bottom-left","green","arrowright","bottom-right","red","[""arrowleft"",""arrowup""]","[""bottom-left"",""top-center""]","[""green"",""blue""]","null","null","[""arrowup"",""arrowright""]","[""top-center"",""bottom-right""]","[""blue"",""red""]","0","0","0.1","0.1","0","0","false","false","","","","","","","","",""
"html-keyboard-response","113","640189","0.0-4.0-200.0-0.0","69bbe13bdb78ed30b67655e6","not_provided","0.5","desktop","0","0","0","","","","","","luck_game","","null","
            <div id=""score-counter"">TOTAL SCORE: &pound;0.10</div>
            <div class=""experiment-container"">
                <div class=""center-zone"">
                    <p class=""feedback-text"" style=""margin: 0;"">Not available!</p>
                </div>
            </div>","null","","","","","","","","","","","","","","","","","","","","","","","","","","","","","","","","","","","","",""
"html-keyboard-response","114","640726","0.0-4.0-201.0","69bbe13bdb78ed30b67655e6","not_provided","0.5","desktop","0","0","0","","","","","","luck_game","","536","<div id=""score-counter"">TOTAL SCORE: &pound;0.10</div><div class=""experiment-container""><div class=""center-zone""><div class=""cross""></div><div class=""triangle-grid""><div class=""machine top-center blue-outline""></div><div class=""machine bottom-left green-outline""></div><div class=""machine bottom-right red""></div></div></div></div>","arrowright","","","","gambling_choice","1","25","arrowright","bottom-right","red","arrowleft","bottom-left","green","[""arrowleft"",""arrowup""]","[""bottom-left"",""top-center""]","[""green"",""blue""]","null","null","[""arrowleft"",""arrowup""]","[""bottom-left"",""top-center""]","[""green"",""blue""]","0","0","0.05","0.1","-0.05","0","true","false","","","","","","","","",""
"html-keyboard-response","115","640841","0.0-4.0-202.0-0.0","69bbe13bdb78ed30b67655e6","not_provided","0.5","desktop","0","0","0","","","","","","luck_game","","null","<div id=""score-counter"">TOTAL SCORE: &pound;0.10</div><div class=""experiment-container""><div class=""center-zone""><div class=""cross""></div><div class=""triangle-grid""><div class=""machine top-center blue-outline""></div><div class=""machine bottom-left green-outline""></div><div class=""machine bottom-right red""></div></div></div></div>","null","","","","","","","","","","","","","","","","","","","","","","","","","","","","","","","","","","","","",""
"html-keyboard-response","116","641348","0.0-4.0-203.0-0.0","69bbe13bdb78ed30b67655e6","not_provided","0.5","desktop","0","0","0","","","","","","luck_game","","null","<div id=""score-counter"">TOTAL SCORE: &pound;0.10</div><div class=""experiment-container""><div class=""center-zone""><div class=""cross""></div></div></div>","null","","","","","","","","","","","","","","","","","","","","","","","","","","","","","","","","","","","","",""
"html-keyboard-response","117","642358","0.0-4.0-204.0-0.0","69bbe13bdb78ed30b67655e6","not_provided","0.5","desktop","0","0","0","","","","","","luck_game","","null","<div id=""score-counter"">TOTAL SCORE: &pound;0.05</div><div class=""experiment-container""><div class=""center-zone""><div class=""cross""></div>
                <div style=""position: absolute; z-index: 10; display: flex; flex-direction: column; align-items: center; justify-content: center;"">
                    <div class=""lose-text"" style=""font-size: 48px; font-weight: bold; margin-bottom: 20px; text-shadow: 2px 2px 4px #000;"">LOSE</div>
                    <img src=""images/coin_no_reward.png"" class=""reward-img"" style=""background-color: black; border-radius: 50%;"">
                    <div class=""lose-text"" style=""font-size: 48px; font-weight: bold; margin-top: 20px; text-shadow: 2px 2px 4px #000;"">-0.05&pound;</div>
                </div></div></div>","null","","","","","","","","","","","","","","","","","","","","","","","","","","","","","","","","","","","","",""
"html-keyboard-response","118","643370","0.0-4.0-205.0-0.0","69bbe13bdb78ed30b67655e6","not_provided","0.5","desktop","0","0","0","","","","","","luck_game","","null","<div id=""score-counter"">TOTAL SCORE: &pound;0.05</div><div class=""experiment-container""><div class=""center-zone""><div class=""cross""></div></div></div>","null","","","","","","","","","","","","","","","","","","","","","","","","","","","","","","","","","","","","",""
"html-keyboard-response","119","648493","0.0-4.0-208.0","69bbe13bdb78ed30b67655e6","not_provided","0.5","desktop","0","0","0","","","","","","luck_game","","5122","
            <div class=""experiment-container"">
                <div style=""text-align: center; font-family: sans-serif;"">
                    <h2 style=""color: white; font-size: 40px; margin-bottom: 20px;"">Rest phase.</h2>
                    <p style=""font-size: 24px; color: white;"">Take as much time as needed.</p>
                    <p style=""font-size: 24px; color: white; margin-top: 40px;"">When ready, press <strong>Space</strong> to continue.</p>
                </div>
            </div>"," ","","","","rest_break","","","","","","","","","","","","","","","","","","","","","","","","","","","","","","","","",""
"html-keyboard-response","120","649490","0.0-4.0-209.0","69bbe13bdb78ed30b67655e6","not_provided","0.5","desktop","0","0","0","","","","","","luck_game","","997","<div id=""score-counter"">TOTAL SCORE: &pound;0.05</div><div class=""experiment-container""><div class=""center-zone""><div class=""cross""></div><div class=""triangle-grid""><div class=""machine top-center blue-outline""></div><div class=""machine bottom-left green""></div><div class=""machine bottom-right red-outline""></div></div></div></div>","arrowleft","","","","gambling_choice","2","1","arrowleft","bottom-left","green","arrowright","bottom-right","red","[""arrowright"",""arrowup""]","[""bottom-right"",""top-center""]","[""red"",""blue""]","null","null","[""arrowleft"",""arrowup""]","[""bottom-left"",""top-center""]","[""green"",""blue""]","0","1","0.1","0.05","0.05","-0.05","true","false","","","","","","","","",""
"html-keyboard-response","121","649607","0.0-4.0-210.0-0.0","69bbe13bdb78ed30b67655e6","not_provided","0.5","desktop","0","0","0","","","","","","luck_game","","null","<div id=""score-counter"">TOTAL SCORE: &pound;0.05</div><div class=""experiment-container""><div class=""center-zone""><div class=""cross""></div><div class=""triangle-grid""><div class=""machine top-center blue-outline""></div><div class=""machine bottom-left green""></div><div class=""machine bottom-right red-outline""></div></div></div></div>","null","","","","","","","","","","","","","","","","","","","","","","","","","","","","","","","","","","","","",""
"html-keyboard-response","122","650118","0.0-4.0-211.0-0.0","69bbe13bdb78ed30b67655e6","not_provided","0.5","desktop","0","0","0","","","","","","luck_game","","null","<div id=""score-counter"">TOTAL SCORE: &pound;0.05</div><div class=""experiment-container""><div class=""center-zone""><div class=""cross""></div></div></div>","null","","","","","","","","","","","","","","","","","","","","","","","","","","","","","","","","","","","","",""
"html-keyboard-response","123","651122","0.0-4.0-212.0-0.0","69bbe13bdb78ed30b67655e6","not_provided","0.5","desktop","0","0","0","","","","","","luck_game","","null","<div id=""score-counter"">TOTAL SCORE: &pound;0.10</div><div class=""experiment-container""><div class=""center-zone""><div class=""cross""></div>
                <div style=""position: absolute; z-index: 10; display: flex; flex-direction: column; align-items: center; justify-content: center;"">
                    <div class=""win-text"" style=""font-size: 48px; font-weight: bold; margin-bottom: 20px; text-shadow: 2px 2px 4px #000;"">WIN</div>
                    <img src=""images/coin_reward.png"" class=""reward-img"" style=""background-color: black; border-radius: 50%;"">
                    <div class=""win-text"" style=""font-size: 48px; font-weight: bold; margin-top: 20px; text-shadow: 2px 2px 4px #000;"">+0.05&pound;</div>
                </div></div></div>","null","","","","","","","","","","","","","","","","","","","","","","","","","","","","","","","","","","","","",""
"html-keyboard-response","124","652134","0.0-4.0-213.0-0.0","69bbe13bdb78ed30b67655e6","not_provided","0.5","desktop","0","0","0","","","","","","luck_game","","null","<div id=""score-counter"">TOTAL SCORE: &pound;0.10</div><div class=""experiment-container""><div class=""center-zone""><div class=""cross""></div></div></div>","null","","","","","","","","","","","","","","","","","","","","","","","","","","","","","","","","","","","","",""
"html-keyboard-response","125","653616","0.0-4.0-216.0","69bbe13bdb78ed30b67655e6","not_provided","0.5","desktop","0","0","0","","","","","","luck_game","","1481","<div id=""score-counter"">TOTAL SCORE: &pound;0.10</div><div class=""experiment-container""><div class=""center-zone""><div class=""cross""></div><div class=""triangle-grid""><div class=""machine top-center blue""></div><div class=""machine bottom-left green-outline""></div><div class=""machine bottom-right red-outline""></div></div></div></div>","arrowup","","","","gambling_choice","2","2","arrowup","top-center","blue","arrowleft","bottom-left","green","[""arrowleft"",""arrowright""]","[""bottom-left"",""bottom-right""]","[""green"",""red""]","null","null","[""arrowright"",""arrowup""]","[""bottom-right"",""top-center""]","[""red"",""blue""]","1","1","0.15","0.1","0.05","0.05","true","false","","","","","","","","",""
"html-keyboard-response","126","653723","0.0-4.0-217.0-0.0","69bbe13bdb78ed30b67655e6","not_provided","0.5","desktop","0","0","0","","","","","","luck_game","","null","<div id=""score-counter"">TOTAL SCORE: &pound;0.10</div><div class=""experiment-container""><div class=""center-zone""><div class=""cross""></div><div class=""triangle-grid""><div class=""machine top-center blue""></div><div class=""machine bottom-left green-outline""></div><div class=""machine bottom-right red-outline""></div></div></div></div>","null","","","","","","","","","","","","","","","","","","","","","","","","","","","","","","","","","","","","",""
"html-keyboard-response","127","654233","0.0-4.0-218.0-0.0","69bbe13bdb78ed30b67655e6","not_provided","0.5","desktop","0","0","0","","","","","","luck_game","","null","<div id=""score-counter"">TOTAL SCORE: &pound;0.10</div><div class=""experiment-container""><div class=""center-zone""><div class=""cross""></div></div></div>","null","","","","","","","","","","","","","","","","","","","","","","","","","","","","","","","","","","","","",""
"html-keyboard-response","128","655237","0.0-4.0-219.0-0.0","69bbe13bdb78ed30b67655e6","not_provided","0.5","desktop","0","0","0","","","","","","luck_game","","null","<div id=""score-counter"">TOTAL SCORE: &pound;0.15</div><div class=""experiment-container""><div class=""center-zone""><div class=""cross""></div>
                <div style=""position: absolute; z-index: 10; display: flex; flex-direction: column; align-items: center; justify-content: center;"">
                    <div class=""win-text"" style=""font-size: 48px; font-weight: bold; margin-bottom: 20px; text-shadow: 2px 2px 4px #000;"">WIN</div>
                    <img src=""images/coin_reward.png"" class=""reward-img"" style=""background-color: black; border-radius: 50%;"">
                    <div class=""win-text"" style=""font-size: 48px; font-weight: bold; margin-top: 20px; text-shadow: 2px 2px 4px #000;"">+0.05&pound;</div>
                </div></div></div>","null","","","","","","","","","","","","","","","","","","","","","","","","","","","","","","","","","","","","",""
"html-keyboard-response","129","656254","0.0-4.0-220.0-0.0","69bbe13bdb78ed30b67655e6","not_provided","0.5","desktop","0","0","0","","","","","","luck_game","","null","<div id=""score-counter"">TOTAL SCORE: &pound;0.15</div><div class=""experiment-container""><div class=""center-zone""><div class=""cross""></div></div></div>","null","","","","","","","","","","","","","","","","","","","","","","","","","","","","","","","","","","","","",""
"html-keyboard-response","130","657056","0.0-4.0-223.0","69bbe13bdb78ed30b67655e6","not_provided","0.5","desktop","0","0","0","","","","","","luck_game","","801","<div id=""score-counter"">TOTAL SCORE: &pound;0.15</div><div class=""experiment-container""><div class=""center-zone""><div class=""cross""></div><div class=""triangle-grid""><div class=""machine top-center blue""></div><div class=""machine bottom-left green-outline""></div><div class=""machine bottom-right red-outline""></div></div></div></div>","arrowright","","","","gambling_choice","2","3","arrowright","bottom-right","red","arrowup","top-center","blue","[""arrowright"",""arrowleft""]","[""bottom-right"",""bottom-left""]","[""red"",""green""]","null","null","[""arrowleft"",""arrowright""]","[""bottom-left"",""bottom-right""]","[""green"",""red""]","1","0","0.15","0.15","0","0.05","false","false","","","","","","","","",""
"html-keyboard-response","131","660069","0.0-4.0-229.0-0.0","69bbe13bdb78ed30b67655e6","not_provided","0.5","desktop","0","0","0","","","","","","luck_game","","null","
            <div id=""score-counter"">TOTAL SCORE: &pound;0.15</div>
            <div class=""experiment-container"">
                <div class=""center-zone"">
                    <p class=""feedback-text"" style=""margin: 0;"">Not available!</p>
                </div>
            </div>","null","","","","","","","","","","","","","","","","","","","","","","","","","","","","","","","","","","","","",""
"html-keyboard-response","132","661352","0.0-4.0-230.0","69bbe13bdb78ed30b67655e6","not_provided","0.5","desktop","0","0","0","","","","","","luck_game","","1282","<div id=""score-counter"">TOTAL SCORE: &pound;0.15</div><div class=""experiment-container""><div class=""center-zone""><div class=""cross""></div><div class=""triangle-grid""><div class=""machine top-center blue""></div><div class=""machine bottom-left green-outline""></div><div class=""machine bottom-right red-outline""></div></div></div></div>","arrowleft","","","","gambling_choice","2","4","arrowleft","bottom-left","green","arrowright","bottom-right","red","[""arrowright"",""arrowleft""]","[""bottom-right"",""bottom-left""]","[""red"",""green""]","null","null","[""arrowright"",""arrowleft""]","[""bottom-right"",""bottom-left""]","[""red"",""green""]","0","0","0.15","0.15","0","0","false","false","","","","","","","","",""
"html-keyboard-response","133","664353","0.0-4.0-236.0-0.0","69bbe13bdb78ed30b67655e6","not_provided","0.5","desktop","0","0","0","","","","","","luck_game","","null","
            <div id=""score-counter"">TOTAL SCORE: &pound;0.15</div>
            <div class=""experiment-container"">
                <div class=""center-zone"">
                    <p class=""feedback-text"" style=""margin: 0;"">Not available!</p>
                </div>
            </div>","null","","","","","","","","","","","","","","","","","","","","","","","","","","","","","","","","","","","","",""
"html-keyboard-response","134","665311","0.0-4.0-237.0","69bbe13bdb78ed30b67655e6","not_provided","0.5","desktop","0","0","0","","","","","","luck_game","","957","<div id=""score-counter"">TOTAL SCORE: &pound;0.15</div><div class=""experiment-container""><div class=""center-zone""><div class=""cross""></div><div class=""triangle-grid""><div class=""machine top-center blue-outline""></div><div class=""machine bottom-left green-outline""></div><div class=""machine bottom-right red""></div></div></div></div>","arrowright","","","","gambling_choice","2","5","arrowright","bottom-right","red","arrowleft","bottom-left","green","[""arrowleft"",""arrowup""]","[""bottom-left"",""top-center""]","[""green"",""blue""]","null","null","[""arrowright"",""arrowleft""]","[""bottom-right"",""bottom-left""]","[""red"",""green""]","0","1","0.2","0.15","0.05","0","true","false","","","","","","","","",""
"html-keyboard-response","135","665423","0.0-4.0-238.0-0.0","69bbe13bdb78ed30b67655e6","not_provided","0.5","desktop","0","0","0","","","","","","luck_game","","null","<div id=""score-counter"">TOTAL SCORE: &pound;0.15</div><div class=""experiment-container""><div class=""center-zone""><div class=""cross""></div><div class=""triangle-grid""><div class=""machine top-center blue-outline""></div><div class=""machine bottom-left green-outline""></div><div class=""machine bottom-right red""></div></div></div></div>","null","","","","","","","","","","","","","","","","","","","","","","","","","","","","","","","","","","","","",""
"html-keyboard-response","136","665935","0.0-4.0-239.0-0.0","69bbe13bdb78ed30b67655e6","not_provided","0.5","desktop","0","0","0","","","","","","luck_game","","null","<div id=""score-counter"">TOTAL SCORE: &pound;0.15</div><div class=""experiment-container""><div class=""center-zone""><div class=""cross""></div></div></div>","null","","","","","","","","","","","","","","","","","","","","","","","","","","","","","","","","","","","","",""
"html-keyboard-response","137","666952","0.0-4.0-240.0-0.0","69bbe13bdb78ed30b67655e6","not_provided","0.5","desktop","0","0","0","","","","","","luck_game","","null","<div id=""score-counter"">TOTAL SCORE: &pound;0.20</div><div class=""experiment-container""><div class=""center-zone""><div class=""cross""></div>
                <div style=""position: absolute; z-index: 10; display: flex; flex-direction: column; align-items: center; justify-content: center;"">
                    <div class=""win-text"" style=""font-size: 48px; font-weight: bold; margin-bottom: 20px; text-shadow: 2px 2px 4px #000;"">WIN</div>
                    <img src=""images/coin_reward.png"" class=""reward-img"" style=""background-color: black; border-radius: 50%;"">
                    <div class=""win-text"" style=""font-size: 48px; font-weight: bold; margin-top: 20px; text-shadow: 2px 2px 4px #000;"">+0.05&pound;</div>
                </div></div></div>","null","","","","","","","","","","","","","","","","","","","","","","","","","","","","","","","","","","","","",""
"html-keyboard-response","138","667967","0.0-4.0-241.0-0.0","69bbe13bdb78ed30b67655e6","not_provided","0.5","desktop","0","0","0","","","","","","luck_game","","null","<div id=""score-counter"">TOTAL SCORE: &pound;0.20</div><div class=""experiment-container""><div class=""center-zone""><div class=""cross""></div></div></div>","null","","","","","","","","","","","","","","","","","","","","","","","","","","","","","","","","","","","","",""
"html-keyboard-response","139","669462","0.0-4.0-244.0","69bbe13bdb78ed30b67655e6","not_provided","0.5","desktop","0","0","0","","","","","","luck_game","","1495","<div id=""score-counter"">TOTAL SCORE: &pound;0.20</div><div class=""experiment-container""><div class=""center-zone""><div class=""cross""></div><div class=""triangle-grid""><div class=""machine top-center blue""></div><div class=""machine bottom-left green-outline""></div><div class=""machine bottom-right red-outline""></div></div></div></div>","arrowleft","","","","gambling_choice","2","6","arrowleft","bottom-left","green","arrowright","bottom-right","red","[""arrowright"",""arrowleft""]","[""bottom-right"",""bottom-left""]","[""red"",""green""]","null","null","[""arrowleft"",""arrowup""]","[""bottom-left"",""top-center""]","[""green"",""blue""]","1","0","0.2","0.2","0","0.05","false","false","","","","","","","","",""
"html-keyboard-response","140","672473","0.0-4.0-250.0-0.0","69bbe13bdb78ed30b67655e6","not_provided","0.5","desktop","0","0","0","","","","","","luck_game","","null","
            <div id=""score-counter"">TOTAL SCORE: &pound;0.20</div>
            <div class=""experiment-container"">
                <div class=""center-zone"">
                    <p class=""feedback-text"" style=""margin: 0;"">Not available!</p>
                </div>
            </div>","null","","","","","","","","","","","","","","","","","","","","","","","","","","","","","","","","","","","","",""
"html-keyboard-response","141","674460","0.0-4.0-251.0","69bbe13bdb78ed30b67655e6","not_provided","0.5","desktop","0","0","0","","","","","","luck_game","","1986","<div id=""score-counter"">TOTAL SCORE: &pound;0.20</div><div class=""experiment-container""><div class=""center-zone""><div class=""cross""></div><div class=""triangle-grid""><div class=""machine top-center blue-outline""></div><div class=""machine bottom-left green-outline""></div><div class=""machine bottom-right red""></div></div></div></div>","arrowleft","","","","gambling_choice","2","7","arrowleft","bottom-left","green","arrowleft","bottom-left","green","[""arrowup"",""arrowleft""]","[""top-center"",""bottom-left""]","[""blue"",""green""]","null","null","[""arrowright"",""arrowleft""]","[""bottom-right"",""bottom-left""]","[""red"",""green""]","0","0","0.2","0.2","0","0","false","false","","","","","","","","",""
"html-keyboard-response","142","677472","0.0-4.0-257.0-0.0","69bbe13bdb78ed30b67655e6","not_provided","0.5","desktop","0","0","0","","","","","","luck_game","","null","
            <div id=""score-counter"">TOTAL SCORE: &pound;0.20</div>
            <div class=""experiment-container"">
                <div class=""center-zone"">
                    <p class=""feedback-text"" style=""margin: 0;"">Not available!</p>
                </div>
            </div>","null","","","","","","","","","","","","","","","","","","","","","","","","","","","","","","","","","","","","",""
