"trial_type","trial_index","time_elapsed","internal_node_id","subject_id","study_id","win_chance","device_type","blur_count","fullscreen_exit_count","failed_attention_checks","success","timeout","failed_images","failed_audio","failed_video","phase","view_history","rt","stimulus","response","question_order","trial_name","value","task","block_number","trial_number","choice_key","choice_location","choice_color","choice_key_oneback","choice_location_oneback","choice_color_oneback","unavailable_keys","unavailable_locations","unavailable_colors","unavailable_location","unavailable_color","unavailable_keys_oneback","unavailable_locations_oneback","unavailable_colors_oneback","reward_oneback","reward","total_score","total_score_oneback","coin_earned","coin_earned_oneback","is_choice_valid","is_timeout_reached","belief_blue","belief_green","belief_red","prompt","flipped","attention","expected_answer","category","question_index"
"pavlovia","0","1372","0.0-0.0","69ff8f6c58779f2e9509c9ea","not_provided","0.5","desktop","0","0","3","","","","","","","","","","","","","","","","","","","","","","","","","","","","","","","","","","","","","","","","","","","","","","",""
"preload","1","2705","0.0-2.0","69ff8f6c58779f2e9509c9ea","not_provided","0.5","desktop","0","0","3","true","false","[]","[]","[]","","","","","","","","","","","","","","","","","","","","","","","","","","","","","","","","","","","","","","","","","",""
"fullscreen","2","7520","0.0-3.0","69ff8f6c58779f2e9509c9ea","not_provided","0.5","desktop","0","0","3","true","","","","","setup","","","","","","","","","","","","","","","","","","","","","","","","","","","","","","","","","","","","","","","","",""
"instructions","3","111409","0.0-4.0-0.0-0.0-0.0","69ff8f6c58779f2e9509c9ea","not_provided","0.5","desktop","0","0","3","","","","","","luck_game","[{""page_index"":0,""viewing_time"":13405},{""page_index"":1,""viewing_time"":9396},{""page_index"":2,""viewing_time"":9376},{""page_index"":3,""viewing_time"":13684},{""page_index"":4,""viewing_time"":14017},{""page_index"":5,""viewing_time"":7828},{""page_index"":6,""viewing_time"":9739},{""page_index"":7,""viewing_time"":6296},{""page_index"":8,""viewing_time"":10644},{""page_index"":9,""viewing_time"":3852},{""page_index"":10,""viewing_time"":5649}]","103886","","","","","","","","","","","","","","","","","","","","","","","","","","","","","","","","","","","","","","",""
"html-button-response","4","121970","0.0-4.0-0.0-1.0","69ff8f6c58779f2e9509c9ea","not_provided","0.5","desktop","0","0","3","","","","","","luck_game","","10555","<div style=""max-width:640px; margin:0 auto; text-align:left;
                               font-family:sans-serif; color:white; padding:10px;"">
            <h3 style=""color:white; text-align:center;"">Quick Reminder</h3>
            <ul style=""line-height:2.1; font-size:1.05em;"">
                <li>There are <strong>3 luck machines</strong>:
                    <span style=""color:#5599ff""><strong>Blue</strong></span> (&uarr; Up),
                    <span style=""color:#55cc55""><strong>Green</strong></span> (&larr; Left),
                    <span style=""color:#ff5555""><strong>Red</strong></span> (&rarr; Right)</li>
                <li>Each turn, <strong>1 machine is READY</strong> and 2 are
                    <strong>unavailable</strong> (shown as a colored outline)</li>
                <li>Press the corresponding arrow key to activate the READY machine</li>
                <li>Activating one of the <strong>unavailable machines</strong>: lose your turn + time penalty</li>
                <li>Activating the READY machine: <strong class=""win-text"">50% win +&pound;0.05</strong>
                    / <strong class=""lose-text"">50% lose &minus;&pound;0.05</strong></li>
                <li><strong>Time limit:</strong> 6 seconds per turn &mdash; don&rsquo;t miss your chance!</li>
                <li><strong>Goal:</strong> Quickly activate the READY machine, avoid the unavailable ones</li>
            </ul>
        </div>","0","","","","","","","","","","","","","","","","","","","","","","","","","","","","","","","","","","","","",""
"survey-multi-choice","5","173245","0.0-4.0-0.0-2.0","69ff8f6c58779f2e9509c9ea","not_provided","0.5","desktop","0","0","3","","","","","","luck_game","","51267","","{""q_total_machines"":""1"",""q_ready_machines"":""3"",""q_blue_key"":""↑ Up arrow key"",""q_red_key"":""→ Right arrow key"",""q_outcome"":""The red machine is one of the unavailable machines. I will lose my turn and chance to win coins, and get a time penalty."",""q_ready_outcome"":""I will only win a coin (+0.05£) and never lose."",""q_goal"":""My goal is to quickly activate available luck machines, avoiding unavailable machines. If I am lucky, I will get rewarded."",""q_win_rates"":""Red: 50% win rate — Blue: 50% win rate — Green: 50% win rate""}","[0,1,2,3,4,5,6,7]","luck_game_quiz","","","","","","","","","","","","","","","","","","","","","","","","","","","","","","","","","","",""
"html-button-response","6","175477","0.0-4.0-0.0-3.0-0.0-0.0","69ff8f6c58779f2e9509c9ea","not_provided","0.5","desktop","0","0","3","","","","","","luck_game","","2228","<p>Sorry. You made a mistake.<br>
                       We will now briefly go again over the instructions.
                       Then, you could try and correct your mistake.<br>
                       Thank you for your patience!</p>","0","","","","","","","","","","","","","","","","","","","","","","","","","","","","","","","","","","","","",""
"html-button-response","7","193617","0.0-4.0-0.1-1.1","69ff8f6c58779f2e9509c9ea","not_provided","0.5","desktop","0","0","3","","","","","","luck_game","","18135","<div style=""max-width:640px; margin:0 auto; text-align:left;
                               font-family:sans-serif; color:white; padding:10px;"">
            <h3 style=""color:white; text-align:center;"">Quick Reminder</h3>
            <ul style=""line-height:2.1; font-size:1.05em;"">
                <li>There are <strong>3 luck machines</strong>:
                    <span style=""color:#5599ff""><strong>Blue</strong></span> (&uarr; Up),
                    <span style=""color:#55cc55""><strong>Green</strong></span> (&larr; Left),
                    <span style=""color:#ff5555""><strong>Red</strong></span> (&rarr; Right)</li>
                <li>Each turn, <strong>1 machine is READY</strong> and 2 are
                    <strong>unavailable</strong> (shown as a colored outline)</li>
                <li>Press the corresponding arrow key to activate the READY machine</li>
                <li>Activating one of the <strong>unavailable machines</strong>: lose your turn + time penalty</li>
                <li>Activating the READY machine: <strong class=""win-text"">50% win +&pound;0.05</strong>
                    / <strong class=""lose-text"">50% lose &minus;&pound;0.05</strong></li>
                <li><strong>Time limit:</strong> 6 seconds per turn &mdash; don&rsquo;t miss your chance!</li>
                <li><strong>Goal:</strong> Quickly activate the READY machine, avoid the unavailable ones</li>
            </ul>
        </div>","0","","","","","","","","","","","","","","","","","","","","","","","","","","","","","","","","","","","","",""
"survey-multi-choice","8","239813","0.0-4.0-0.1-2.1","69ff8f6c58779f2e9509c9ea","not_provided","0.5","desktop","0","0","3","","","","","","luck_game","","46190","","{""q_total_machines"":""3"",""q_ready_machines"":""1"",""q_blue_key"":""↑ Up arrow key"",""q_red_key"":""→ Right arrow key"",""q_outcome"":""The red machine is one of the unavailable machines. I will lose my turn and chance to win coins, and get a time penalty."",""q_ready_outcome"":""I will either win a coin (+0.05£) or lose a coin (−0.05£)."",""q_goal"":""My goal is to quickly activate available luck machines, avoiding unavailable machines. If I am lucky, I will get rewarded."",""q_win_rates"":""Red: 50% win rate — Blue: 50% win rate — Green: 50% win rate""}","[0,1,2,3,4,5,6,7]","luck_game_quiz","","","","","","","","","","","","","","","","","","","","","","","","","","","","","","","","","","",""
"html-keyboard-response","9","242392","0.0-4.0-1.0","69ff8f6c58779f2e9509c9ea","not_provided","0.5","desktop","0","0","3","","","","","","luck_game","","2576","
            <div style=""max-width: 600px; margin: 0 auto; text-align: center; font-family: sans-serif;"">
                <h2 style=""color: white;"">Good job, you learned the instructions!</h2>
                <p>We will now move to a short <strong>training phase</strong> to get you familiar with the game.</p>
                <p>Your score will <strong>not</strong> be counted during training.</p>
                <br>
                <p><strong>Press Space to start training.</strong></p>
            </div>"," ","","","","","","","","","","","","","","","","","","","","","","","","","","","","","","","","","","","","",""
"call-function","10","242393","0.0-4.0-2.0","69ff8f6c58779f2e9509c9ea","not_provided","0.5","desktop","0","0","3","","","","","","luck_game","","","","","","","","","","","","","","","","","","","","","","","","","","","","","","","","","","","","","","","","",""
"html-keyboard-response","11","244113","0.0-4.0-3.0","69ff8f6c58779f2e9509c9ea","not_provided","0.5","desktop","0","0","3","","","","","","luck_game","","1719","<div class=""experiment-container""><div class=""center-zone""><div class=""cross""></div><div class=""triangle-grid""><div class=""machine top-center blue-outline""></div><div class=""machine bottom-left green-outline""></div><div class=""machine bottom-right red""></div></div></div></div>","arrowright","","","","gambling_choice","training","1","arrowright","bottom-right","red","null","null","null","[""arrowup"",""arrowleft""]","[""top-center"",""bottom-left""]","[""blue"",""green""]","null","null","[]","[]","[]","null","1","0","0","0.05","null","true","false","","","","","","","","",""
"html-keyboard-response","12","244215","0.0-4.0-4.0-0.0","69ff8f6c58779f2e9509c9ea","not_provided","0.5","desktop","0","0","3","","","","","","luck_game","","null","<div class=""experiment-container""><div class=""center-zone""><div class=""cross""></div><div class=""triangle-grid""><div class=""machine top-center blue-outline""></div><div class=""machine bottom-left green-outline""></div><div class=""machine bottom-right red""></div></div></div></div>","null","","","","","","","","","","","","","","","","","","","","","","","","","","","","","","","","","","","","",""
"html-keyboard-response","13","244717","0.0-4.0-5.0-0.0","69ff8f6c58779f2e9509c9ea","not_provided","0.5","desktop","0","0","3","","","","","","luck_game","","null","<div class=""experiment-container""><div class=""center-zone""><div class=""cross""></div></div></div>","null","","","","","","","","","","","","","","","","","","","","","","","","","","","","","","","","","","","","",""
"html-keyboard-response","14","245729","0.0-4.0-6.0-0.0","69ff8f6c58779f2e9509c9ea","not_provided","0.5","desktop","0","0","3","","","","","","luck_game","","null","<div class=""experiment-container""><div class=""center-zone""><div class=""cross""></div>
                <div style=""position: absolute; z-index: 10; display: flex; flex-direction: column; align-items: center; justify-content: center;"">
                    <div class=""win-text"" style=""font-size: 48px; font-weight: bold; margin-bottom: 20px; text-shadow: 2px 2px 4px #000;"">WIN</div>
                    <img src=""images/coin_reward.png"" class=""reward-img"" style=""background-color: black; border-radius: 50%;"">
                    <div class=""win-text"" style=""font-size: 48px; font-weight: bold; margin-top: 20px; text-shadow: 2px 2px 4px #000;"">+0.05&pound;</div>
                </div></div></div>","null","","","","","","","","","","","","","","","","","","","","","","","","","","","","","","","","","","","","",""
"html-keyboard-response","15","246735","0.0-4.0-7.0-0.0","69ff8f6c58779f2e9509c9ea","not_provided","0.5","desktop","0","0","3","","","","","","luck_game","","null","<div class=""experiment-container""><div class=""center-zone""><div class=""cross""></div></div></div>","null","","","","","","","","","","","","","","","","","","","","","","","","","","","","","","","","","","","","",""
"html-keyboard-response","16","247588","0.0-4.0-10.0","69ff8f6c58779f2e9509c9ea","not_provided","0.5","desktop","0","0","3","","","","","","luck_game","","851","<div class=""experiment-container""><div class=""center-zone""><div class=""cross""></div><div class=""triangle-grid""><div class=""machine top-center blue""></div><div class=""machine bottom-left green-outline""></div><div class=""machine bottom-right red-outline""></div></div></div></div>","arrowup","","","","gambling_choice","training","2","arrowup","top-center","blue","arrowright","bottom-right","red","[""arrowright"",""arrowleft""]","[""bottom-right"",""bottom-left""]","[""red"",""green""]","null","null","[""arrowup"",""arrowleft""]","[""top-center"",""bottom-left""]","[""blue"",""green""]","1","1","0","0","0.05","0.05","true","false","","","","","","","","",""
"html-keyboard-response","17","247689","0.0-4.0-11.0-0.0","69ff8f6c58779f2e9509c9ea","not_provided","0.5","desktop","0","0","3","","","","","","luck_game","","null","<div class=""experiment-container""><div class=""center-zone""><div class=""cross""></div><div class=""triangle-grid""><div class=""machine top-center blue""></div><div class=""machine bottom-left green-outline""></div><div class=""machine bottom-right red-outline""></div></div></div></div>","null","","","","","","","","","","","","","","","","","","","","","","","","","","","","","","","","","","","","",""
"html-keyboard-response","18","248202","0.0-4.0-12.0-0.0","69ff8f6c58779f2e9509c9ea","not_provided","0.5","desktop","0","0","3","","","","","","luck_game","","null","<div class=""experiment-container""><div class=""center-zone""><div class=""cross""></div></div></div>","null","","","","","","","","","","","","","","","","","","","","","","","","","","","","","","","","","","","","",""
"html-keyboard-response","19","249216","0.0-4.0-13.0-0.0","69ff8f6c58779f2e9509c9ea","not_provided","0.5","desktop","0","0","3","","","","","","luck_game","","null","<div class=""experiment-container""><div class=""center-zone""><div class=""cross""></div>
                <div style=""position: absolute; z-index: 10; display: flex; flex-direction: column; align-items: center; justify-content: center;"">
                    <div class=""win-text"" style=""font-size: 48px; font-weight: bold; margin-bottom: 20px; text-shadow: 2px 2px 4px #000;"">WIN</div>
                    <img src=""images/coin_reward.png"" class=""reward-img"" style=""background-color: black; border-radius: 50%;"">
                    <div class=""win-text"" style=""font-size: 48px; font-weight: bold; margin-top: 20px; text-shadow: 2px 2px 4px #000;"">+0.05&pound;</div>
                </div></div></div>","null","","","","","","","","","","","","","","","","","","","","","","","","","","","","","","","","","","","","",""
"html-keyboard-response","20","250229","0.0-4.0-14.0-0.0","69ff8f6c58779f2e9509c9ea","not_provided","0.5","desktop","0","0","3","","","","","","luck_game","","null","<div class=""experiment-container""><div class=""center-zone""><div class=""cross""></div></div></div>","null","","","","","","","","","","","","","","","","","","","","","","","","","","","","","","","","","","","","",""
"html-keyboard-response","21","250873","0.0-4.0-17.0","69ff8f6c58779f2e9509c9ea","not_provided","0.5","desktop","0","0","3","","","","","","luck_game","","642","<div class=""experiment-container""><div class=""center-zone""><div class=""cross""></div><div class=""triangle-grid""><div class=""machine top-center blue-outline""></div><div class=""machine bottom-left green-outline""></div><div class=""machine bottom-right red""></div></div></div></div>","arrowright","","","","gambling_choice","training","3","arrowright","bottom-right","red","arrowup","top-center","blue","[""arrowup"",""arrowleft""]","[""top-center"",""bottom-left""]","[""blue"",""green""]","null","null","[""arrowright"",""arrowleft""]","[""bottom-right"",""bottom-left""]","[""red"",""green""]","1","0","0","0","-0.05","0.05","true","false","","","","","","","","",""
"html-keyboard-response","22","250988","0.0-4.0-18.0-0.0","69ff8f6c58779f2e9509c9ea","not_provided","0.5","desktop","0","0","3","","","","","","luck_game","","null","<div class=""experiment-container""><div class=""center-zone""><div class=""cross""></div><div class=""triangle-grid""><div class=""machine top-center blue-outline""></div><div class=""machine bottom-left green-outline""></div><div class=""machine bottom-right red""></div></div></div></div>","null","","","","","","","","","","","","","","","","","","","","","","","","","","","","","","","","","","","","",""
"html-keyboard-response","23","251490","0.0-4.0-19.0-0.0","69ff8f6c58779f2e9509c9ea","not_provided","0.5","desktop","0","0","3","","","","","","luck_game","","null","<div class=""experiment-container""><div class=""center-zone""><div class=""cross""></div></div></div>","null","","","","","","","","","","","","","","","","","","","","","","","","","","","","","","","","","","","","",""
"html-keyboard-response","24","252494","0.0-4.0-20.0-0.0","69ff8f6c58779f2e9509c9ea","not_provided","0.5","desktop","0","0","3","","","","","","luck_game","","null","<div class=""experiment-container""><div class=""center-zone""><div class=""cross""></div>
                <div style=""position: absolute; z-index: 10; display: flex; flex-direction: column; align-items: center; justify-content: center;"">
                    <div class=""lose-text"" style=""font-size: 48px; font-weight: bold; margin-bottom: 20px; text-shadow: 2px 2px 4px #000;"">LOSE</div>
                    <img src=""images/coin_no_reward.png"" class=""reward-img"" style=""background-color: black; border-radius: 50%;"">
                    <div class=""lose-text"" style=""font-size: 48px; font-weight: bold; margin-top: 20px; text-shadow: 2px 2px 4px #000;"">-0.05&pound;</div>
                </div></div></div>","null","","","","","","","","","","","","","","","","","","","","","","","","","","","","","","","","","","","","",""
"html-keyboard-response","25","253508","0.0-4.0-21.0-0.0","69ff8f6c58779f2e9509c9ea","not_provided","0.5","desktop","0","0","3","","","","","","luck_game","","null","<div class=""experiment-container""><div class=""center-zone""><div class=""cross""></div></div></div>","null","","","","","","","","","","","","","","","","","","","","","","","","","","","","","","","","","","","","",""
"html-keyboard-response","26","254274","0.0-4.0-24.0","69ff8f6c58779f2e9509c9ea","not_provided","0.5","desktop","0","0","3","","","","","","luck_game","","765","<div class=""experiment-container""><div class=""center-zone""><div class=""cross""></div><div class=""triangle-grid""><div class=""machine top-center blue""></div><div class=""machine bottom-left green-outline""></div><div class=""machine bottom-right red-outline""></div></div></div></div>","arrowup","","","","gambling_choice","training","4","arrowup","top-center","blue","arrowright","bottom-right","red","[""arrowleft"",""arrowright""]","[""bottom-left"",""bottom-right""]","[""green"",""red""]","null","null","[""arrowup"",""arrowleft""]","[""top-center"",""bottom-left""]","[""blue"",""green""]","0","0","0","0","-0.05","-0.05","true","false","","","","","","","","",""
"html-keyboard-response","27","254382","0.0-4.0-25.0-0.0","69ff8f6c58779f2e9509c9ea","not_provided","0.5","desktop","0","0","3","","","","","","luck_game","","null","<div class=""experiment-container""><div class=""center-zone""><div class=""cross""></div><div class=""triangle-grid""><div class=""machine top-center blue""></div><div class=""machine bottom-left green-outline""></div><div class=""machine bottom-right red-outline""></div></div></div></div>","null","","","","","","","","","","","","","","","","","","","","","","","","","","","","","","","","","","","","",""
"html-keyboard-response","28","254895","0.0-4.0-26.0-0.0","69ff8f6c58779f2e9509c9ea","not_provided","0.5","desktop","0","0","3","","","","","","luck_game","","null","<div class=""experiment-container""><div class=""center-zone""><div class=""cross""></div></div></div>","null","","","","","","","","","","","","","","","","","","","","","","","","","","","","","","","","","","","","",""
"html-keyboard-response","29","255899","0.0-4.0-27.0-0.0","69ff8f6c58779f2e9509c9ea","not_provided","0.5","desktop","0","0","3","","","","","","luck_game","","null","<div class=""experiment-container""><div class=""center-zone""><div class=""cross""></div>
                <div style=""position: absolute; z-index: 10; display: flex; flex-direction: column; align-items: center; justify-content: center;"">
                    <div class=""lose-text"" style=""font-size: 48px; font-weight: bold; margin-bottom: 20px; text-shadow: 2px 2px 4px #000;"">LOSE</div>
                    <img src=""images/coin_no_reward.png"" class=""reward-img"" style=""background-color: black; border-radius: 50%;"">
                    <div class=""lose-text"" style=""font-size: 48px; font-weight: bold; margin-top: 20px; text-shadow: 2px 2px 4px #000;"">-0.05&pound;</div>
                </div></div></div>","null","","","","","","","","","","","","","","","","","","","","","","","","","","","","","","","","","","","","",""
"html-keyboard-response","30","256904","0.0-4.0-28.0-0.0","69ff8f6c58779f2e9509c9ea","not_provided","0.5","desktop","0","0","3","","","","","","luck_game","","null","<div class=""experiment-container""><div class=""center-zone""><div class=""cross""></div></div></div>","null","","","","","","","","","","","","","","","","","","","","","","","","","","","","","","","","","","","","",""
"call-function","31","256904","0.0-4.0-31.0","69ff8f6c58779f2e9509c9ea","not_provided","0.5","desktop","0","0","3","","","","","","luck_game","","","","","","","","","","","","","","","","","","","","","","","","","","","","","","","","","","","","","","","","",""
"html-keyboard-response","32","259098","0.0-4.0-32.0","69ff8f6c58779f2e9509c9ea","not_provided","0.5","desktop","0","0","3","","","","","","luck_game","","2193","
            <div style=""max-width: 600px; margin: 0 auto; text-align: center; font-family: sans-serif;"">
                <h2 style=""color: white;"">Training Complete</h2>
                <p>You will now start the real game.</p>
                <br>
                <p><strong>Press Space to begin.</strong></p>
            </div>"," ","","","","","","","","","","","","","","","","","","","","","","","","","","","","","","","","","","","","",""
"html-keyboard-response","33","260599","0.0-4.0-33.0","69ff8f6c58779f2e9509c9ea","not_provided","0.5","desktop","0","0","3","","","","","","luck_game","","1500","<div id=""score-counter"">TOTAL SCORE: &pound;0.00</div><div class=""experiment-container""><div class=""center-zone""><div class=""cross""></div><div class=""triangle-grid""><div class=""machine top-center blue-outline""></div><div class=""machine bottom-left green""></div><div class=""machine bottom-right red-outline""></div></div></div></div>","arrowleft","","","","gambling_choice","1","1","arrowleft","bottom-left","green","arrowup","top-center","blue","[""arrowup"",""arrowright""]","[""top-center"",""bottom-right""]","[""blue"",""red""]","null","null","[""arrowleft"",""arrowright""]","[""bottom-left"",""bottom-right""]","[""green"",""red""]","0","1","0.05","0","0.05","-0.05","true","false","","","","","","","","",""
"html-keyboard-response","34","260703","0.0-4.0-34.0-0.0","69ff8f6c58779f2e9509c9ea","not_provided","0.5","desktop","0","0","3","","","","","","luck_game","","null","<div id=""score-counter"">TOTAL SCORE: &pound;0.00</div><div class=""experiment-container""><div class=""center-zone""><div class=""cross""></div><div class=""triangle-grid""><div class=""machine top-center blue-outline""></div><div class=""machine bottom-left green""></div><div class=""machine bottom-right red-outline""></div></div></div></div>","null","","","","","","","","","","","","","","","","","","","","","","","","","","","","","","","","","","","","",""
"html-keyboard-response","35","261215","0.0-4.0-35.0-0.0","69ff8f6c58779f2e9509c9ea","not_provided","0.5","desktop","0","0","3","","","","","","luck_game","","null","<div id=""score-counter"">TOTAL SCORE: &pound;0.00</div><div class=""experiment-container""><div class=""center-zone""><div class=""cross""></div></div></div>","null","","","","","","","","","","","","","","","","","","","","","","","","","","","","","","","","","","","","",""
"html-keyboard-response","36","262224","0.0-4.0-36.0-0.0","69ff8f6c58779f2e9509c9ea","not_provided","0.5","desktop","0","0","3","","","","","","luck_game","","null","<div id=""score-counter"">TOTAL SCORE: &pound;0.05</div><div class=""experiment-container""><div class=""center-zone""><div class=""cross""></div>
                <div style=""position: absolute; z-index: 10; display: flex; flex-direction: column; align-items: center; justify-content: center;"">
                    <div class=""win-text"" style=""font-size: 48px; font-weight: bold; margin-bottom: 20px; text-shadow: 2px 2px 4px #000;"">WIN</div>
                    <img src=""images/coin_reward.png"" class=""reward-img"" style=""background-color: black; border-radius: 50%;"">
                    <div class=""win-text"" style=""font-size: 48px; font-weight: bold; margin-top: 20px; text-shadow: 2px 2px 4px #000;"">+0.05&pound;</div>
                </div></div></div>","null","","","","","","","","","","","","","","","","","","","","","","","","","","","","","","","","","","","","",""
"html-keyboard-response","37","263227","0.0-4.0-37.0-0.0","69ff8f6c58779f2e9509c9ea","not_provided","0.5","desktop","0","0","3","","","","","","luck_game","","null","<div id=""score-counter"">TOTAL SCORE: &pound;0.05</div><div class=""experiment-container""><div class=""center-zone""><div class=""cross""></div></div></div>","null","","","","","","","","","","","","","","","","","","","","","","","","","","","","","","","","","","","","",""
"html-keyboard-response","38","264882","0.0-4.0-40.0","69ff8f6c58779f2e9509c9ea","not_provided","0.5","desktop","0","0","3","","","","","","luck_game","","1654","<div id=""score-counter"">TOTAL SCORE: &pound;0.05</div><div class=""experiment-container""><div class=""center-zone""><div class=""cross""></div><div class=""triangle-grid""><div class=""machine top-center blue-outline""></div><div class=""machine bottom-left green""></div><div class=""machine bottom-right red-outline""></div></div></div></div>","arrowleft","","","","gambling_choice","1","2","arrowleft","bottom-left","green","arrowleft","bottom-left","green","[""arrowup"",""arrowright""]","[""top-center"",""bottom-right""]","[""blue"",""red""]","null","null","[""arrowup"",""arrowright""]","[""top-center"",""bottom-right""]","[""blue"",""red""]","1","1","0.1","0.05","0.05","0.05","true","false","","","","","","","","",""
"html-keyboard-response","39","264998","0.0-4.0-41.0-0.0","69ff8f6c58779f2e9509c9ea","not_provided","0.5","desktop","0","0","3","","","","","","luck_game","","null","<div id=""score-counter"">TOTAL SCORE: &pound;0.05</div><div class=""experiment-container""><div class=""center-zone""><div class=""cross""></div><div class=""triangle-grid""><div class=""machine top-center blue-outline""></div><div class=""machine bottom-left green""></div><div class=""machine bottom-right red-outline""></div></div></div></div>","null","","","","","","","","","","","","","","","","","","","","","","","","","","","","","","","","","","","","",""
"html-keyboard-response","40","265514","0.0-4.0-42.0-0.0","69ff8f6c58779f2e9509c9ea","not_provided","0.5","desktop","0","0","3","","","","","","luck_game","","null","<div id=""score-counter"">TOTAL SCORE: &pound;0.05</div><div class=""experiment-container""><div class=""center-zone""><div class=""cross""></div></div></div>","null","","","","","","","","","","","","","","","","","","","","","","","","","","","","","","","","","","","","",""
"html-keyboard-response","41","266519","0.0-4.0-43.0-0.0","69ff8f6c58779f2e9509c9ea","not_provided","0.5","desktop","0","0","3","","","","","","luck_game","","null","<div id=""score-counter"">TOTAL SCORE: &pound;0.10</div><div class=""experiment-container""><div class=""center-zone""><div class=""cross""></div>
                <div style=""position: absolute; z-index: 10; display: flex; flex-direction: column; align-items: center; justify-content: center;"">
                    <div class=""win-text"" style=""font-size: 48px; font-weight: bold; margin-bottom: 20px; text-shadow: 2px 2px 4px #000;"">WIN</div>
                    <img src=""images/coin_reward.png"" class=""reward-img"" style=""background-color: black; border-radius: 50%;"">
                    <div class=""win-text"" style=""font-size: 48px; font-weight: bold; margin-top: 20px; text-shadow: 2px 2px 4px #000;"">+0.05&pound;</div>
                </div></div></div>","null","","","","","","","","","","","","","","","","","","","","","","","","","","","","","","","","","","","","",""
"html-keyboard-response","42","267535","0.0-4.0-44.0-0.0","69ff8f6c58779f2e9509c9ea","not_provided","0.5","desktop","0","0","3","","","","","","luck_game","","null","<div id=""score-counter"">TOTAL SCORE: &pound;0.10</div><div class=""experiment-container""><div class=""center-zone""><div class=""cross""></div></div></div>","null","","","","","","","","","","","","","","","","","","","","","","","","","","","","","","","","","","","","",""
"html-keyboard-response","43","268554","0.0-4.0-47.0","69ff8f6c58779f2e9509c9ea","not_provided","0.5","desktop","0","0","3","","","","","","luck_game","","1018","<div id=""score-counter"">TOTAL SCORE: &pound;0.10</div><div class=""experiment-container""><div class=""center-zone""><div class=""cross""></div><div class=""triangle-grid""><div class=""machine top-center blue""></div><div class=""machine bottom-left green-outline""></div><div class=""machine bottom-right red-outline""></div></div></div></div>","arrowup","","","","gambling_choice","1","3","arrowup","top-center","blue","arrowleft","bottom-left","green","[""arrowleft"",""arrowright""]","[""bottom-left"",""bottom-right""]","[""green"",""red""]","null","null","[""arrowup"",""arrowright""]","[""top-center"",""bottom-right""]","[""blue"",""red""]","1","0","0.05","0.1","-0.05","0.05","true","false","","","","","","","","",""
"html-keyboard-response","44","268660","0.0-4.0-48.0-0.0","69ff8f6c58779f2e9509c9ea","not_provided","0.5","desktop","0","0","3","","","","","","luck_game","","null","<div id=""score-counter"">TOTAL SCORE: &pound;0.10</div><div class=""experiment-container""><div class=""center-zone""><div class=""cross""></div><div class=""triangle-grid""><div class=""machine top-center blue""></div><div class=""machine bottom-left green-outline""></div><div class=""machine bottom-right red-outline""></div></div></div></div>","null","","","","","","","","","","","","","","","","","","","","","","","","","","","","","","","","","","","","",""
"html-keyboard-response","45","269172","0.0-4.0-49.0-0.0","69ff8f6c58779f2e9509c9ea","not_provided","0.5","desktop","0","0","3","","","","","","luck_game","","null","<div id=""score-counter"">TOTAL SCORE: &pound;0.10</div><div class=""experiment-container""><div class=""center-zone""><div class=""cross""></div></div></div>","null","","","","","","","","","","","","","","","","","","","","","","","","","","","","","","","","","","","","",""
"html-keyboard-response","46","270177","0.0-4.0-50.0-0.0","69ff8f6c58779f2e9509c9ea","not_provided","0.5","desktop","0","0","3","","","","","","luck_game","","null","<div id=""score-counter"">TOTAL SCORE: &pound;0.05</div><div class=""experiment-container""><div class=""center-zone""><div class=""cross""></div>
                <div style=""position: absolute; z-index: 10; display: flex; flex-direction: column; align-items: center; justify-content: center;"">
                    <div class=""lose-text"" style=""font-size: 48px; font-weight: bold; margin-bottom: 20px; text-shadow: 2px 2px 4px #000;"">LOSE</div>
                    <img src=""images/coin_no_reward.png"" class=""reward-img"" style=""background-color: black; border-radius: 50%;"">
                    <div class=""lose-text"" style=""font-size: 48px; font-weight: bold; margin-top: 20px; text-shadow: 2px 2px 4px #000;"">-0.05&pound;</div>
                </div></div></div>","null","","","","","","","","","","","","","","","","","","","","","","","","","","","","","","","","","","","","",""
"html-keyboard-response","47","271188","0.0-4.0-51.0-0.0","69ff8f6c58779f2e9509c9ea","not_provided","0.5","desktop","0","0","3","","","","","","luck_game","","null","<div id=""score-counter"">TOTAL SCORE: &pound;0.05</div><div class=""experiment-container""><div class=""center-zone""><div class=""cross""></div></div></div>","null","","","","","","","","","","","","","","","","","","","","","","","","","","","","","","","","","","","","",""
"html-keyboard-response","48","272109","0.0-4.0-54.0","69ff8f6c58779f2e9509c9ea","not_provided","0.5","desktop","0","0","3","","","","","","luck_game","","920","<div id=""score-counter"">TOTAL SCORE: &pound;0.05</div><div class=""experiment-container""><div class=""center-zone""><div class=""cross""></div><div class=""triangle-grid""><div class=""machine top-center blue-outline""></div><div class=""machine bottom-left green-outline""></div><div class=""machine bottom-right red""></div></div></div></div>","arrowright","","","","gambling_choice","1","4","arrowright","bottom-right","red","arrowup","top-center","blue","[""arrowup"",""arrowleft""]","[""top-center"",""bottom-left""]","[""blue"",""green""]","null","null","[""arrowleft"",""arrowright""]","[""bottom-left"",""bottom-right""]","[""green"",""red""]","0","1","0.1","0.05","0.05","-0.05","true","false","","","","","","","","",""
"html-keyboard-response","49","272223","0.0-4.0-55.0-0.0","69ff8f6c58779f2e9509c9ea","not_provided","0.5","desktop","0","0","3","","","","","","luck_game","","null","<div id=""score-counter"">TOTAL SCORE: &pound;0.05</div><div class=""experiment-container""><div class=""center-zone""><div class=""cross""></div><div class=""triangle-grid""><div class=""machine top-center blue-outline""></div><div class=""machine bottom-left green-outline""></div><div class=""machine bottom-right red""></div></div></div></div>","null","","","","","","","","","","","","","","","","","","","","","","","","","","","","","","","","","","","","",""
"html-keyboard-response","50","272735","0.0-4.0-56.0-0.0","69ff8f6c58779f2e9509c9ea","not_provided","0.5","desktop","0","0","3","","","","","","luck_game","","null","<div id=""score-counter"">TOTAL SCORE: &pound;0.05</div><div class=""experiment-container""><div class=""center-zone""><div class=""cross""></div></div></div>","null","","","","","","","","","","","","","","","","","","","","","","","","","","","","","","","","","","","","",""
"html-keyboard-response","51","273738","0.0-4.0-57.0-0.0","69ff8f6c58779f2e9509c9ea","not_provided","0.5","desktop","0","0","3","","","","","","luck_game","","null","<div id=""score-counter"">TOTAL SCORE: &pound;0.10</div><div class=""experiment-container""><div class=""center-zone""><div class=""cross""></div>
                <div style=""position: absolute; z-index: 10; display: flex; flex-direction: column; align-items: center; justify-content: center;"">
                    <div class=""win-text"" style=""font-size: 48px; font-weight: bold; margin-bottom: 20px; text-shadow: 2px 2px 4px #000;"">WIN</div>
                    <img src=""images/coin_reward.png"" class=""reward-img"" style=""background-color: black; border-radius: 50%;"">
                    <div class=""win-text"" style=""font-size: 48px; font-weight: bold; margin-top: 20px; text-shadow: 2px 2px 4px #000;"">+0.05&pound;</div>
                </div></div></div>","null","","","","","","","","","","","","","","","","","","","","","","","","","","","","","","","","","","","","",""
"html-keyboard-response","52","274751","0.0-4.0-58.0-0.0","69ff8f6c58779f2e9509c9ea","not_provided","0.5","desktop","0","0","3","","","","","","luck_game","","null","<div id=""score-counter"">TOTAL SCORE: &pound;0.10</div><div class=""experiment-container""><div class=""center-zone""><div class=""cross""></div></div></div>","null","","","","","","","","","","","","","","","","","","","","","","","","","","","","","","","","","","","","",""
"html-keyboard-response","53","275650","0.0-4.0-61.0","69ff8f6c58779f2e9509c9ea","not_provided","0.5","desktop","0","0","3","","","","","","luck_game","","898","<div id=""score-counter"">TOTAL SCORE: &pound;0.10</div><div class=""experiment-container""><div class=""center-zone""><div class=""cross""></div><div class=""triangle-grid""><div class=""machine top-center blue""></div><div class=""machine bottom-left green-outline""></div><div class=""machine bottom-right red-outline""></div></div></div></div>","arrowup","","","","gambling_choice","1","5","arrowup","top-center","blue","arrowright","bottom-right","red","[""arrowleft"",""arrowright""]","[""bottom-left"",""bottom-right""]","[""green"",""red""]","null","null","[""arrowup"",""arrowleft""]","[""top-center"",""bottom-left""]","[""blue"",""green""]","1","1","0.15","0.1","0.05","0.05","true","false","","","","","","","","",""
"html-keyboard-response","54","275763","0.0-4.0-62.0-0.0","69ff8f6c58779f2e9509c9ea","not_provided","0.5","desktop","0","0","3","","","","","","luck_game","","null","<div id=""score-counter"">TOTAL SCORE: &pound;0.10</div><div class=""experiment-container""><div class=""center-zone""><div class=""cross""></div><div class=""triangle-grid""><div class=""machine top-center blue""></div><div class=""machine bottom-left green-outline""></div><div class=""machine bottom-right red-outline""></div></div></div></div>","null","","","","","","","","","","","","","","","","","","","","","","","","","","","","","","","","","","","","",""
"html-keyboard-response","55","276277","0.0-4.0-63.0-0.0","69ff8f6c58779f2e9509c9ea","not_provided","0.5","desktop","0","0","3","","","","","","luck_game","","null","<div id=""score-counter"">TOTAL SCORE: &pound;0.10</div><div class=""experiment-container""><div class=""center-zone""><div class=""cross""></div></div></div>","null","","","","","","","","","","","","","","","","","","","","","","","","","","","","","","","","","","","","",""
"html-keyboard-response","56","277287","0.0-4.0-64.0-0.0","69ff8f6c58779f2e9509c9ea","not_provided","0.5","desktop","0","0","3","","","","","","luck_game","","null","<div id=""score-counter"">TOTAL SCORE: &pound;0.15</div><div class=""experiment-container""><div class=""center-zone""><div class=""cross""></div>
                <div style=""position: absolute; z-index: 10; display: flex; flex-direction: column; align-items: center; justify-content: center;"">
                    <div class=""win-text"" style=""font-size: 48px; font-weight: bold; margin-bottom: 20px; text-shadow: 2px 2px 4px #000;"">WIN</div>
                    <img src=""images/coin_reward.png"" class=""reward-img"" style=""background-color: black; border-radius: 50%;"">
                    <div class=""win-text"" style=""font-size: 48px; font-weight: bold; margin-top: 20px; text-shadow: 2px 2px 4px #000;"">+0.05&pound;</div>
                </div></div></div>","null","","","","","","","","","","","","","","","","","","","","","","","","","","","","","","","","","","","","",""
"html-keyboard-response","57","278303","0.0-4.0-65.0-0.0","69ff8f6c58779f2e9509c9ea","not_provided","0.5","desktop","0","0","3","","","","","","luck_game","","null","<div id=""score-counter"">TOTAL SCORE: &pound;0.15</div><div class=""experiment-container""><div class=""center-zone""><div class=""cross""></div></div></div>","null","","","","","","","","","","","","","","","","","","","","","","","","","","","","","","","","","","","","",""
"html-keyboard-response","58","279035","0.0-4.0-68.0","69ff8f6c58779f2e9509c9ea","not_provided","0.5","desktop","0","0","3","","","","","","luck_game","","730","<div id=""score-counter"">TOTAL SCORE: &pound;0.15</div><div class=""experiment-container""><div class=""center-zone""><div class=""cross""></div><div class=""triangle-grid""><div class=""machine top-center blue-outline""></div><div class=""machine bottom-left green-outline""></div><div class=""machine bottom-right red""></div></div></div></div>","arrowright","","","","gambling_choice","1","6","arrowright","bottom-right","red","arrowup","top-center","blue","[""arrowleft"",""arrowup""]","[""bottom-left"",""top-center""]","[""green"",""blue""]","null","null","[""arrowleft"",""arrowright""]","[""bottom-left"",""bottom-right""]","[""green"",""red""]","1","0","0.1","0.15","-0.05","0.05","true","false","","","","","","","","",""
"html-keyboard-response","59","279144","0.0-4.0-69.0-0.0","69ff8f6c58779f2e9509c9ea","not_provided","0.5","desktop","0","0","3","","","","","","luck_game","","null","<div id=""score-counter"">TOTAL SCORE: &pound;0.15</div><div class=""experiment-container""><div class=""center-zone""><div class=""cross""></div><div class=""triangle-grid""><div class=""machine top-center blue-outline""></div><div class=""machine bottom-left green-outline""></div><div class=""machine bottom-right red""></div></div></div></div>","null","","","","","","","","","","","","","","","","","","","","","","","","","","","","","","","","","","","","",""
"html-keyboard-response","60","279660","0.0-4.0-70.0-0.0","69ff8f6c58779f2e9509c9ea","not_provided","0.5","desktop","0","0","3","","","","","","luck_game","","null","<div id=""score-counter"">TOTAL SCORE: &pound;0.15</div><div class=""experiment-container""><div class=""center-zone""><div class=""cross""></div></div></div>","null","","","","","","","","","","","","","","","","","","","","","","","","","","","","","","","","","","","","",""
"html-keyboard-response","61","280674","0.0-4.0-71.0-0.0","69ff8f6c58779f2e9509c9ea","not_provided","0.5","desktop","0","0","3","","","","","","luck_game","","null","<div id=""score-counter"">TOTAL SCORE: &pound;0.10</div><div class=""experiment-container""><div class=""center-zone""><div class=""cross""></div>
                <div style=""position: absolute; z-index: 10; display: flex; flex-direction: column; align-items: center; justify-content: center;"">
                    <div class=""lose-text"" style=""font-size: 48px; font-weight: bold; margin-bottom: 20px; text-shadow: 2px 2px 4px #000;"">LOSE</div>
                    <img src=""images/coin_no_reward.png"" class=""reward-img"" style=""background-color: black; border-radius: 50%;"">
                    <div class=""lose-text"" style=""font-size: 48px; font-weight: bold; margin-top: 20px; text-shadow: 2px 2px 4px #000;"">-0.05&pound;</div>
                </div></div></div>","null","","","","","","","","","","","","","","","","","","","","","","","","","","","","","","","","","","","","",""
"html-keyboard-response","62","281677","0.0-4.0-72.0-0.0","69ff8f6c58779f2e9509c9ea","not_provided","0.5","desktop","0","0","3","","","","","","luck_game","","null","<div id=""score-counter"">TOTAL SCORE: &pound;0.10</div><div class=""experiment-container""><div class=""center-zone""><div class=""cross""></div></div></div>","null","","","","","","","","","","","","","","","","","","","","","","","","","","","","","","","","","","","","",""
"html-keyboard-response","63","282472","0.0-4.0-75.0","69ff8f6c58779f2e9509c9ea","not_provided","0.5","desktop","0","0","3","","","","","","luck_game","","794","<div id=""score-counter"">TOTAL SCORE: &pound;0.10</div><div class=""experiment-container""><div class=""center-zone""><div class=""cross""></div><div class=""triangle-grid""><div class=""machine top-center blue-outline""></div><div class=""machine bottom-left green-outline""></div><div class=""machine bottom-right red""></div></div></div></div>","arrowright","","","","gambling_choice","1","7","arrowright","bottom-right","red","arrowright","bottom-right","red","[""arrowup"",""arrowleft""]","[""top-center"",""bottom-left""]","[""blue"",""green""]","null","null","[""arrowleft"",""arrowup""]","[""bottom-left"",""top-center""]","[""green"",""blue""]","0","1","0.15","0.1","0.05","-0.05","true","false","","","","","","","","",""
"html-keyboard-response","64","282583","0.0-4.0-76.0-0.0","69ff8f6c58779f2e9509c9ea","not_provided","0.5","desktop","0","0","3","","","","","","luck_game","","null","<div id=""score-counter"">TOTAL SCORE: &pound;0.10</div><div class=""experiment-container""><div class=""center-zone""><div class=""cross""></div><div class=""triangle-grid""><div class=""machine top-center blue-outline""></div><div class=""machine bottom-left green-outline""></div><div class=""machine bottom-right red""></div></div></div></div>","null","","","","","","","","","","","","","","","","","","","","","","","","","","","","","","","","","","","","",""
"html-keyboard-response","65","283100","0.0-4.0-77.0-0.0","69ff8f6c58779f2e9509c9ea","not_provided","0.5","desktop","0","0","3","","","","","","luck_game","","null","<div id=""score-counter"">TOTAL SCORE: &pound;0.10</div><div class=""experiment-container""><div class=""center-zone""><div class=""cross""></div></div></div>","null","","","","","","","","","","","","","","","","","","","","","","","","","","","","","","","","","","","","",""
"html-keyboard-response","66","284113","0.0-4.0-78.0-0.0","69ff8f6c58779f2e9509c9ea","not_provided","0.5","desktop","0","0","3","","","","","","luck_game","","null","<div id=""score-counter"">TOTAL SCORE: &pound;0.15</div><div class=""experiment-container""><div class=""center-zone""><div class=""cross""></div>
                <div style=""position: absolute; z-index: 10; display: flex; flex-direction: column; align-items: center; justify-content: center;"">
                    <div class=""win-text"" style=""font-size: 48px; font-weight: bold; margin-bottom: 20px; text-shadow: 2px 2px 4px #000;"">WIN</div>
                    <img src=""images/coin_reward.png"" class=""reward-img"" style=""background-color: black; border-radius: 50%;"">
                    <div class=""win-text"" style=""font-size: 48px; font-weight: bold; margin-top: 20px; text-shadow: 2px 2px 4px #000;"">+0.05&pound;</div>
                </div></div></div>","null","","","","","","","","","","","","","","","","","","","","","","","","","","","","","","","","","","","","",""
"html-keyboard-response","67","285125","0.0-4.0-79.0-0.0","69ff8f6c58779f2e9509c9ea","not_provided","0.5","desktop","0","0","3","","","","","","luck_game","","null","<div id=""score-counter"">TOTAL SCORE: &pound;0.15</div><div class=""experiment-container""><div class=""center-zone""><div class=""cross""></div></div></div>","null","","","","","","","","","","","","","","","","","","","","","","","","","","","","","","","","","","","","",""
"html-keyboard-response","68","285851","0.0-4.0-82.0","69ff8f6c58779f2e9509c9ea","not_provided","0.5","desktop","0","0","3","","","","","","luck_game","","724","<div id=""score-counter"">TOTAL SCORE: &pound;0.15</div><div class=""experiment-container""><div class=""center-zone""><div class=""cross""></div><div class=""triangle-grid""><div class=""machine top-center blue-outline""></div><div class=""machine bottom-left green-outline""></div><div class=""machine bottom-right red""></div></div></div></div>","arrowright","","","","gambling_choice","1","8","arrowright","bottom-right","red","arrowright","bottom-right","red","[""arrowup"",""arrowleft""]","[""top-center"",""bottom-left""]","[""blue"",""green""]","null","null","[""arrowup"",""arrowleft""]","[""top-center"",""bottom-left""]","[""blue"",""green""]","1","0","0.1","0.15","-0.05","0.05","true","false","","","","","","","","",""
"html-keyboard-response","69","285953","0.0-4.0-83.0-0.0","69ff8f6c58779f2e9509c9ea","not_provided","0.5","desktop","0","0","3","","","","","","luck_game","","null","<div id=""score-counter"">TOTAL SCORE: &pound;0.15</div><div class=""experiment-container""><div class=""center-zone""><div class=""cross""></div><div class=""triangle-grid""><div class=""machine top-center blue-outline""></div><div class=""machine bottom-left green-outline""></div><div class=""machine bottom-right red""></div></div></div></div>","null","","","","","","","","","","","","","","","","","","","","","","","","","","","","","","","","","","","","",""
"html-keyboard-response","70","286463","0.0-4.0-84.0-0.0","69ff8f6c58779f2e9509c9ea","not_provided","0.5","desktop","0","0","3","","","","","","luck_game","","null","<div id=""score-counter"">TOTAL SCORE: &pound;0.15</div><div class=""experiment-container""><div class=""center-zone""><div class=""cross""></div></div></div>","null","","","","","","","","","","","","","","","","","","","","","","","","","","","","","","","","","","","","",""
"html-keyboard-response","71","287474","0.0-4.0-85.0-0.0","69ff8f6c58779f2e9509c9ea","not_provided","0.5","desktop","0","0","3","","","","","","luck_game","","null","<div id=""score-counter"">TOTAL SCORE: &pound;0.10</div><div class=""experiment-container""><div class=""center-zone""><div class=""cross""></div>
                <div style=""position: absolute; z-index: 10; display: flex; flex-direction: column; align-items: center; justify-content: center;"">
                    <div class=""lose-text"" style=""font-size: 48px; font-weight: bold; margin-bottom: 20px; text-shadow: 2px 2px 4px #000;"">LOSE</div>
                    <img src=""images/coin_no_reward.png"" class=""reward-img"" style=""background-color: black; border-radius: 50%;"">
                    <div class=""lose-text"" style=""font-size: 48px; font-weight: bold; margin-top: 20px; text-shadow: 2px 2px 4px #000;"">-0.05&pound;</div>
                </div></div></div>","null","","","","","","","","","","","","","","","","","","","","","","","","","","","","","","","","","","","","",""
"html-keyboard-response","72","288478","0.0-4.0-86.0-0.0","69ff8f6c58779f2e9509c9ea","not_provided","0.5","desktop","0","0","3","","","","","","luck_game","","null","<div id=""score-counter"">TOTAL SCORE: &pound;0.10</div><div class=""experiment-container""><div class=""center-zone""><div class=""cross""></div></div></div>","null","","","","","","","","","","","","","","","","","","","","","","","","","","","","","","","","","","","","",""
"html-keyboard-response","73","289102","0.0-4.0-89.0","69ff8f6c58779f2e9509c9ea","not_provided","0.5","desktop","0","0","3","","","","","","luck_game","","624","<div id=""score-counter"">TOTAL SCORE: &pound;0.10</div><div class=""experiment-container""><div class=""center-zone""><div class=""cross""></div><div class=""triangle-grid""><div class=""machine top-center blue""></div><div class=""machine bottom-left green-outline""></div><div class=""machine bottom-right red-outline""></div></div></div></div>","arrowup","","","","gambling_choice","1","9","arrowup","top-center","blue","arrowright","bottom-right","red","[""arrowleft"",""arrowright""]","[""bottom-left"",""bottom-right""]","[""green"",""red""]","null","null","[""arrowup"",""arrowleft""]","[""top-center"",""bottom-left""]","[""blue"",""green""]","0","0","0.05","0.1","-0.05","-0.05","true","false","","","","","","","","",""
"html-keyboard-response","74","289215","0.0-4.0-90.0-0.0","69ff8f6c58779f2e9509c9ea","not_provided","0.5","desktop","0","0","3","","","","","","luck_game","","null","<div id=""score-counter"">TOTAL SCORE: &pound;0.10</div><div class=""experiment-container""><div class=""center-zone""><div class=""cross""></div><div class=""triangle-grid""><div class=""machine top-center blue""></div><div class=""machine bottom-left green-outline""></div><div class=""machine bottom-right red-outline""></div></div></div></div>","null","","","","","","","","","","","","","","","","","","","","","","","","","","","","","","","","","","","","",""
"html-keyboard-response","75","289730","0.0-4.0-91.0-0.0","69ff8f6c58779f2e9509c9ea","not_provided","0.5","desktop","0","0","3","","","","","","luck_game","","null","<div id=""score-counter"">TOTAL SCORE: &pound;0.10</div><div class=""experiment-container""><div class=""center-zone""><div class=""cross""></div></div></div>","null","","","","","","","","","","","","","","","","","","","","","","","","","","","","","","","","","","","","",""
"html-keyboard-response","76","290739","0.0-4.0-92.0-0.0","69ff8f6c58779f2e9509c9ea","not_provided","0.5","desktop","0","0","3","","","","","","luck_game","","null","<div id=""score-counter"">TOTAL SCORE: &pound;0.05</div><div class=""experiment-container""><div class=""center-zone""><div class=""cross""></div>
                <div style=""position: absolute; z-index: 10; display: flex; flex-direction: column; align-items: center; justify-content: center;"">
                    <div class=""lose-text"" style=""font-size: 48px; font-weight: bold; margin-bottom: 20px; text-shadow: 2px 2px 4px #000;"">LOSE</div>
                    <img src=""images/coin_no_reward.png"" class=""reward-img"" style=""background-color: black; border-radius: 50%;"">
                    <div class=""lose-text"" style=""font-size: 48px; font-weight: bold; margin-top: 20px; text-shadow: 2px 2px 4px #000;"">-0.05&pound;</div>
                </div></div></div>","null","","","","","","","","","","","","","","","","","","","","","","","","","","","","","","","","","","","","",""
"html-keyboard-response","77","291755","0.0-4.0-93.0-0.0","69ff8f6c58779f2e9509c9ea","not_provided","0.5","desktop","0","0","3","","","","","","luck_game","","null","<div id=""score-counter"">TOTAL SCORE: &pound;0.05</div><div class=""experiment-container""><div class=""center-zone""><div class=""cross""></div></div></div>","null","","","","","","","","","","","","","","","","","","","","","","","","","","","","","","","","","","","","",""
"html-keyboard-response","78","292570","0.0-4.0-96.0","69ff8f6c58779f2e9509c9ea","not_provided","0.5","desktop","0","0","3","","","","","","luck_game","","814","<div id=""score-counter"">TOTAL SCORE: &pound;0.05</div><div class=""experiment-container""><div class=""center-zone""><div class=""cross""></div><div class=""triangle-grid""><div class=""machine top-center blue""></div><div class=""machine bottom-left green-outline""></div><div class=""machine bottom-right red-outline""></div></div></div></div>","arrowup","","","","gambling_choice","1","10","arrowup","top-center","blue","arrowup","top-center","blue","[""arrowright"",""arrowleft""]","[""bottom-right"",""bottom-left""]","[""red"",""green""]","null","null","[""arrowleft"",""arrowright""]","[""bottom-left"",""bottom-right""]","[""green"",""red""]","0","1","0.1","0.05","0.05","-0.05","true","false","","","","","","","","",""
"html-keyboard-response","79","292680","0.0-4.0-97.0-0.0","69ff8f6c58779f2e9509c9ea","not_provided","0.5","desktop","0","0","3","","","","","","luck_game","","null","<div id=""score-counter"">TOTAL SCORE: &pound;0.05</div><div class=""experiment-container""><div class=""center-zone""><div class=""cross""></div><div class=""triangle-grid""><div class=""machine top-center blue""></div><div class=""machine bottom-left green-outline""></div><div class=""machine bottom-right red-outline""></div></div></div></div>","null","","","","","","","","","","","","","","","","","","","","","","","","","","","","","","","","","","","","",""
"html-keyboard-response","80","293192","0.0-4.0-98.0-0.0","69ff8f6c58779f2e9509c9ea","not_provided","0.5","desktop","0","0","3","","","","","","luck_game","","null","<div id=""score-counter"">TOTAL SCORE: &pound;0.05</div><div class=""experiment-container""><div class=""center-zone""><div class=""cross""></div></div></div>","null","","","","","","","","","","","","","","","","","","","","","","","","","","","","","","","","","","","","",""
"html-keyboard-response","81","294202","0.0-4.0-99.0-0.0","69ff8f6c58779f2e9509c9ea","not_provided","0.5","desktop","0","0","3","","","","","","luck_game","","null","<div id=""score-counter"">TOTAL SCORE: &pound;0.10</div><div class=""experiment-container""><div class=""center-zone""><div class=""cross""></div>
                <div style=""position: absolute; z-index: 10; display: flex; flex-direction: column; align-items: center; justify-content: center;"">
                    <div class=""win-text"" style=""font-size: 48px; font-weight: bold; margin-bottom: 20px; text-shadow: 2px 2px 4px #000;"">WIN</div>
                    <img src=""images/coin_reward.png"" class=""reward-img"" style=""background-color: black; border-radius: 50%;"">
                    <div class=""win-text"" style=""font-size: 48px; font-weight: bold; margin-top: 20px; text-shadow: 2px 2px 4px #000;"">+0.05&pound;</div>
                </div></div></div>","null","","","","","","","","","","","","","","","","","","","","","","","","","","","","","","","","","","","","",""
"html-keyboard-response","82","295216","0.0-4.0-100.0-0.0","69ff8f6c58779f2e9509c9ea","not_provided","0.5","desktop","0","0","3","","","","","","luck_game","","null","<div id=""score-counter"">TOTAL SCORE: &pound;0.10</div><div class=""experiment-container""><div class=""center-zone""><div class=""cross""></div></div></div>","null","","","","","","","","","","","","","","","","","","","","","","","","","","","","","","","","","","","","",""
"html-keyboard-response","83","296137","0.0-4.0-103.0","69ff8f6c58779f2e9509c9ea","not_provided","0.5","desktop","0","0","3","","","","","","luck_game","","919","<div id=""score-counter"">TOTAL SCORE: &pound;0.10</div><div class=""experiment-container""><div class=""center-zone""><div class=""cross""></div><div class=""triangle-grid""><div class=""machine top-center blue-outline""></div><div class=""machine bottom-left green""></div><div class=""machine bottom-right red-outline""></div></div></div></div>","arrowleft","","","","gambling_choice","1","11","arrowleft","bottom-left","green","arrowup","top-center","blue","[""arrowup"",""arrowright""]","[""top-center"",""bottom-right""]","[""blue"",""red""]","null","null","[""arrowright"",""arrowleft""]","[""bottom-right"",""bottom-left""]","[""red"",""green""]","1","1","0.15","0.1","0.05","0.05","true","false","","","","","","","","",""
"html-keyboard-response","84","296242","0.0-4.0-104.0-0.0","69ff8f6c58779f2e9509c9ea","not_provided","0.5","desktop","0","0","3","","","","","","luck_game","","null","<div id=""score-counter"">TOTAL SCORE: &pound;0.10</div><div class=""experiment-container""><div class=""center-zone""><div class=""cross""></div><div class=""triangle-grid""><div class=""machine top-center blue-outline""></div><div class=""machine bottom-left green""></div><div class=""machine bottom-right red-outline""></div></div></div></div>","null","","","","","","","","","","","","","","","","","","","","","","","","","","","","","","","","","","","","",""
"html-keyboard-response","85","296755","0.0-4.0-105.0-0.0","69ff8f6c58779f2e9509c9ea","not_provided","0.5","desktop","0","0","3","","","","","","luck_game","","null","<div id=""score-counter"">TOTAL SCORE: &pound;0.10</div><div class=""experiment-container""><div class=""center-zone""><div class=""cross""></div></div></div>","null","","","","","","","","","","","","","","","","","","","","","","","","","","","","","","","","","","","","",""
"html-keyboard-response","86","297766","0.0-4.0-106.0-0.0","69ff8f6c58779f2e9509c9ea","not_provided","0.5","desktop","0","0","3","","","","","","luck_game","","null","<div id=""score-counter"">TOTAL SCORE: &pound;0.15</div><div class=""experiment-container""><div class=""center-zone""><div class=""cross""></div>
                <div style=""position: absolute; z-index: 10; display: flex; flex-direction: column; align-items: center; justify-content: center;"">
                    <div class=""win-text"" style=""font-size: 48px; font-weight: bold; margin-bottom: 20px; text-shadow: 2px 2px 4px #000;"">WIN</div>
                    <img src=""images/coin_reward.png"" class=""reward-img"" style=""background-color: black; border-radius: 50%;"">
                    <div class=""win-text"" style=""font-size: 48px; font-weight: bold; margin-top: 20px; text-shadow: 2px 2px 4px #000;"">+0.05&pound;</div>
                </div></div></div>","null","","","","","","","","","","","","","","","","","","","","","","","","","","","","","","","","","","","","",""
"html-keyboard-response","87","298784","0.0-4.0-107.0-0.0","69ff8f6c58779f2e9509c9ea","not_provided","0.5","desktop","0","0","3","","","","","","luck_game","","null","<div id=""score-counter"">TOTAL SCORE: &pound;0.15</div><div class=""experiment-container""><div class=""center-zone""><div class=""cross""></div></div></div>","null","","","","","","","","","","","","","","","","","","","","","","","","","","","","","","","","","","","","",""
"html-keyboard-response","88","299621","0.0-4.0-110.0","69ff8f6c58779f2e9509c9ea","not_provided","0.5","desktop","0","0","3","","","","","","luck_game","","836","<div id=""score-counter"">TOTAL SCORE: &pound;0.15</div><div class=""experiment-container""><div class=""center-zone""><div class=""cross""></div><div class=""triangle-grid""><div class=""machine top-center blue-outline""></div><div class=""machine bottom-left green-outline""></div><div class=""machine bottom-right red""></div></div></div></div>","arrowright","","","","gambling_choice","1","12","arrowright","bottom-right","red","arrowleft","bottom-left","green","[""arrowleft"",""arrowup""]","[""bottom-left"",""top-center""]","[""green"",""blue""]","null","null","[""arrowup"",""arrowright""]","[""top-center"",""bottom-right""]","[""blue"",""red""]","1","1","0.2","0.15","0.05","0.05","true","false","","","","","","","","",""
"html-keyboard-response","89","299731","0.0-4.0-111.0-0.0","69ff8f6c58779f2e9509c9ea","not_provided","0.5","desktop","0","0","3","","","","","","luck_game","","null","<div id=""score-counter"">TOTAL SCORE: &pound;0.15</div><div class=""experiment-container""><div class=""center-zone""><div class=""cross""></div><div class=""triangle-grid""><div class=""machine top-center blue-outline""></div><div class=""machine bottom-left green-outline""></div><div class=""machine bottom-right red""></div></div></div></div>","null","","","","","","","","","","","","","","","","","","","","","","","","","","","","","","","","","","","","",""
"html-keyboard-response","90","300243","0.0-4.0-112.0-0.0","69ff8f6c58779f2e9509c9ea","not_provided","0.5","desktop","0","0","3","","","","","","luck_game","","null","<div id=""score-counter"">TOTAL SCORE: &pound;0.15</div><div class=""experiment-container""><div class=""center-zone""><div class=""cross""></div></div></div>","null","","","","","","","","","","","","","","","","","","","","","","","","","","","","","","","","","","","","",""
"html-keyboard-response","91","301257","0.0-4.0-113.0-0.0","69ff8f6c58779f2e9509c9ea","not_provided","0.5","desktop","0","0","3","","","","","","luck_game","","null","<div id=""score-counter"">TOTAL SCORE: &pound;0.20</div><div class=""experiment-container""><div class=""center-zone""><div class=""cross""></div>
                <div style=""position: absolute; z-index: 10; display: flex; flex-direction: column; align-items: center; justify-content: center;"">
                    <div class=""win-text"" style=""font-size: 48px; font-weight: bold; margin-bottom: 20px; text-shadow: 2px 2px 4px #000;"">WIN</div>
                    <img src=""images/coin_reward.png"" class=""reward-img"" style=""background-color: black; border-radius: 50%;"">
                    <div class=""win-text"" style=""font-size: 48px; font-weight: bold; margin-top: 20px; text-shadow: 2px 2px 4px #000;"">+0.05&pound;</div>
                </div></div></div>","null","","","","","","","","","","","","","","","","","","","","","","","","","","","","","","","","","","","","",""
"html-keyboard-response","92","302274","0.0-4.0-114.0-0.0","69ff8f6c58779f2e9509c9ea","not_provided","0.5","desktop","0","0","3","","","","","","luck_game","","null","<div id=""score-counter"">TOTAL SCORE: &pound;0.20</div><div class=""experiment-container""><div class=""center-zone""><div class=""cross""></div></div></div>","null","","","","","","","","","","","","","","","","","","","","","","","","","","","","","","","","","","","","",""
"html-keyboard-response","93","303181","0.0-4.0-117.0","69ff8f6c58779f2e9509c9ea","not_provided","0.5","desktop","0","0","3","","","","","","luck_game","","907","<div id=""score-counter"">TOTAL SCORE: &pound;0.20</div><div class=""experiment-container""><div class=""center-zone""><div class=""cross""></div><div class=""triangle-grid""><div class=""machine top-center blue-outline""></div><div class=""machine bottom-left green""></div><div class=""machine bottom-right red-outline""></div></div></div></div>","arrowleft","","","","gambling_choice","1","13","arrowleft","bottom-left","green","arrowright","bottom-right","red","[""arrowup"",""arrowright""]","[""top-center"",""bottom-right""]","[""blue"",""red""]","null","null","[""arrowleft"",""arrowup""]","[""bottom-left"",""top-center""]","[""green"",""blue""]","1","1","0.25","0.2","0.05","0.05","true","false","","","","","","","","",""
"html-keyboard-response","94","303298","0.0-4.0-118.0-0.0","69ff8f6c58779f2e9509c9ea","not_provided","0.5","desktop","0","0","3","","","","","","luck_game","","null","<div id=""score-counter"">TOTAL SCORE: &pound;0.20</div><div class=""experiment-container""><div class=""center-zone""><div class=""cross""></div><div class=""triangle-grid""><div class=""machine top-center blue-outline""></div><div class=""machine bottom-left green""></div><div class=""machine bottom-right red-outline""></div></div></div></div>","null","","","","","","","","","","","","","","","","","","","","","","","","","","","","","","","","","","","","",""
"html-keyboard-response","95","303811","0.0-4.0-119.0-0.0","69ff8f6c58779f2e9509c9ea","not_provided","0.5","desktop","0","0","3","","","","","","luck_game","","null","<div id=""score-counter"">TOTAL SCORE: &pound;0.20</div><div class=""experiment-container""><div class=""center-zone""><div class=""cross""></div></div></div>","null","","","","","","","","","","","","","","","","","","","","","","","","","","","","","","","","","","","","",""
"html-keyboard-response","96","304816","0.0-4.0-120.0-0.0","69ff8f6c58779f2e9509c9ea","not_provided","0.5","desktop","0","0","3","","","","","","luck_game","","null","<div id=""score-counter"">TOTAL SCORE: &pound;0.25</div><div class=""experiment-container""><div class=""center-zone""><div class=""cross""></div>
                <div style=""position: absolute; z-index: 10; display: flex; flex-direction: column; align-items: center; justify-content: center;"">
                    <div class=""win-text"" style=""font-size: 48px; font-weight: bold; margin-bottom: 20px; text-shadow: 2px 2px 4px #000;"">WIN</div>
                    <img src=""images/coin_reward.png"" class=""reward-img"" style=""background-color: black; border-radius: 50%;"">
                    <div class=""win-text"" style=""font-size: 48px; font-weight: bold; margin-top: 20px; text-shadow: 2px 2px 4px #000;"">+0.05&pound;</div>
                </div></div></div>","null","","","","","","","","","","","","","","","","","","","","","","","","","","","","","","","","","","","","",""
"html-keyboard-response","97","305830","0.0-4.0-121.0-0.0","69ff8f6c58779f2e9509c9ea","not_provided","0.5","desktop","0","0","3","","","","","","luck_game","","null","<div id=""score-counter"">TOTAL SCORE: &pound;0.25</div><div class=""experiment-container""><div class=""center-zone""><div class=""cross""></div></div></div>","null","","","","","","","","","","","","","","","","","","","","","","","","","","","","","","","","","","","","",""
"html-keyboard-response","98","306641","0.0-4.0-124.0","69ff8f6c58779f2e9509c9ea","not_provided","0.5","desktop","0","0","3","","","","","","luck_game","","810","<div id=""score-counter"">TOTAL SCORE: &pound;0.25</div><div class=""experiment-container""><div class=""center-zone""><div class=""cross""></div><div class=""triangle-grid""><div class=""machine top-center blue-outline""></div><div class=""machine bottom-left green""></div><div class=""machine bottom-right red-outline""></div></div></div></div>","arrowleft","","","","gambling_choice","1","14","arrowleft","bottom-left","green","arrowleft","bottom-left","green","[""arrowright"",""arrowup""]","[""bottom-right"",""top-center""]","[""red"",""blue""]","null","null","[""arrowup"",""arrowright""]","[""top-center"",""bottom-right""]","[""blue"",""red""]","1","0","0.2","0.25","-0.05","0.05","true","false","","","","","","","","",""
"html-keyboard-response","99","306754","0.0-4.0-125.0-0.0","69ff8f6c58779f2e9509c9ea","not_provided","0.5","desktop","0","0","3","","","","","","luck_game","","null","<div id=""score-counter"">TOTAL SCORE: &pound;0.25</div><div class=""experiment-container""><div class=""center-zone""><div class=""cross""></div><div class=""triangle-grid""><div class=""machine top-center blue-outline""></div><div class=""machine bottom-left green""></div><div class=""machine bottom-right red-outline""></div></div></div></div>","null","","","","","","","","","","","","","","","","","","","","","","","","","","","","","","","","","","","","",""
"html-keyboard-response","100","307270","0.0-4.0-126.0-0.0","69ff8f6c58779f2e9509c9ea","not_provided","0.5","desktop","0","0","3","","","","","","luck_game","","null","<div id=""score-counter"">TOTAL SCORE: &pound;0.25</div><div class=""experiment-container""><div class=""center-zone""><div class=""cross""></div></div></div>","null","","","","","","","","","","","","","","","","","","","","","","","","","","","","","","","","","","","","",""
"html-keyboard-response","101","308275","0.0-4.0-127.0-0.0","69ff8f6c58779f2e9509c9ea","not_provided","0.5","desktop","0","0","3","","","","","","luck_game","","null","<div id=""score-counter"">TOTAL SCORE: &pound;0.20</div><div class=""experiment-container""><div class=""center-zone""><div class=""cross""></div>
                <div style=""position: absolute; z-index: 10; display: flex; flex-direction: column; align-items: center; justify-content: center;"">
                    <div class=""lose-text"" style=""font-size: 48px; font-weight: bold; margin-bottom: 20px; text-shadow: 2px 2px 4px #000;"">LOSE</div>
                    <img src=""images/coin_no_reward.png"" class=""reward-img"" style=""background-color: black; border-radius: 50%;"">
                    <div class=""lose-text"" style=""font-size: 48px; font-weight: bold; margin-top: 20px; text-shadow: 2px 2px 4px #000;"">-0.05&pound;</div>
                </div></div></div>","null","","","","","","","","","","","","","","","","","","","","","","","","","","","","","","","","","","","","",""
"html-keyboard-response","102","309288","0.0-4.0-128.0-0.0","69ff8f6c58779f2e9509c9ea","not_provided","0.5","desktop","0","0","3","","","","","","luck_game","","null","<div id=""score-counter"">TOTAL SCORE: &pound;0.20</div><div class=""experiment-container""><div class=""center-zone""><div class=""cross""></div></div></div>","null","","","","","","","","","","","","","","","","","","","","","","","","","","","","","","","","","","","","",""
"html-keyboard-response","103","309983","0.0-4.0-131.0","69ff8f6c58779f2e9509c9ea","not_provided","0.5","desktop","0","0","3","","","","","","luck_game","","694","<div id=""score-counter"">TOTAL SCORE: &pound;0.20</div><div class=""experiment-container""><div class=""center-zone""><div class=""cross""></div><div class=""triangle-grid""><div class=""machine top-center blue-outline""></div><div class=""machine bottom-left green-outline""></div><div class=""machine bottom-right red""></div></div></div></div>","arrowright","","","","gambling_choice","1","15","arrowright","bottom-right","red","arrowleft","bottom-left","green","[""arrowup"",""arrowleft""]","[""top-center"",""bottom-left""]","[""blue"",""green""]","null","null","[""arrowright"",""arrowup""]","[""bottom-right"",""top-center""]","[""red"",""blue""]","0","1","0.25","0.2","0.05","-0.05","true","false","","","","","","","","",""
"html-keyboard-response","104","310098","0.0-4.0-132.0-0.0","69ff8f6c58779f2e9509c9ea","not_provided","0.5","desktop","0","0","3","","","","","","luck_game","","null","<div id=""score-counter"">TOTAL SCORE: &pound;0.20</div><div class=""experiment-container""><div class=""center-zone""><div class=""cross""></div><div class=""triangle-grid""><div class=""machine top-center blue-outline""></div><div class=""machine bottom-left green-outline""></div><div class=""machine bottom-right red""></div></div></div></div>","null","","","","","","","","","","","","","","","","","","","","","","","","","","","","","","","","","","","","",""
"html-keyboard-response","105","310602","0.0-4.0-133.0-0.0","69ff8f6c58779f2e9509c9ea","not_provided","0.5","desktop","0","0","3","","","","","","luck_game","","null","<div id=""score-counter"">TOTAL SCORE: &pound;0.20</div><div class=""experiment-container""><div class=""center-zone""><div class=""cross""></div></div></div>","null","","","","","","","","","","","","","","","","","","","","","","","","","","","","","","","","","","","","",""
"html-keyboard-response","106","311614","0.0-4.0-134.0-0.0","69ff8f6c58779f2e9509c9ea","not_provided","0.5","desktop","0","0","3","","","","","","luck_game","","null","<div id=""score-counter"">TOTAL SCORE: &pound;0.25</div><div class=""experiment-container""><div class=""center-zone""><div class=""cross""></div>
                <div style=""position: absolute; z-index: 10; display: flex; flex-direction: column; align-items: center; justify-content: center;"">
                    <div class=""win-text"" style=""font-size: 48px; font-weight: bold; margin-bottom: 20px; text-shadow: 2px 2px 4px #000;"">WIN</div>
                    <img src=""images/coin_reward.png"" class=""reward-img"" style=""background-color: black; border-radius: 50%;"">
                    <div class=""win-text"" style=""font-size: 48px; font-weight: bold; margin-top: 20px; text-shadow: 2px 2px 4px #000;"">+0.05&pound;</div>
                </div></div></div>","null","","","","","","","","","","","","","","","","","","","","","","","","","","","","","","","","","","","","",""
"html-keyboard-response","107","312622","0.0-4.0-135.0-0.0","69ff8f6c58779f2e9509c9ea","not_provided","0.5","desktop","0","0","3","","","","","","luck_game","","null","<div id=""score-counter"">TOTAL SCORE: &pound;0.25</div><div class=""experiment-container""><div class=""center-zone""><div class=""cross""></div></div></div>","null","","","","","","","","","","","","","","","","","","","","","","","","","","","","","","","","","","","","",""
"html-keyboard-response","108","313239","0.0-4.0-138.0","69ff8f6c58779f2e9509c9ea","not_provided","0.5","desktop","0","0","3","","","","","","luck_game","","616","<div id=""score-counter"">TOTAL SCORE: &pound;0.25</div><div class=""experiment-container""><div class=""center-zone""><div class=""cross""></div><div class=""triangle-grid""><div class=""machine top-center blue-outline""></div><div class=""machine bottom-left green""></div><div class=""machine bottom-right red-outline""></div></div></div></div>","arrowleft","","","","gambling_choice","1","16","arrowleft","bottom-left","green","arrowright","bottom-right","red","[""arrowright"",""arrowup""]","[""bottom-right"",""top-center""]","[""red"",""blue""]","null","null","[""arrowup"",""arrowleft""]","[""top-center"",""bottom-left""]","[""blue"",""green""]","1","0","0.2","0.25","-0.05","0.05","true","false","","","","","","","","",""
"html-keyboard-response","109","313342","0.0-4.0-139.0-0.0","69ff8f6c58779f2e9509c9ea","not_provided","0.5","desktop","0","0","3","","","","","","luck_game","","null","<div id=""score-counter"">TOTAL SCORE: &pound;0.25</div><div class=""experiment-container""><div class=""center-zone""><div class=""cross""></div><div class=""triangle-grid""><div class=""machine top-center blue-outline""></div><div class=""machine bottom-left green""></div><div class=""machine bottom-right red-outline""></div></div></div></div>","null","","","","","","","","","","","","","","","","","","","","","","","","","","","","","","","","","","","","",""
"html-keyboard-response","110","313857","0.0-4.0-140.0-0.0","69ff8f6c58779f2e9509c9ea","not_provided","0.5","desktop","0","0","3","","","","","","luck_game","","null","<div id=""score-counter"">TOTAL SCORE: &pound;0.25</div><div class=""experiment-container""><div class=""center-zone""><div class=""cross""></div></div></div>","null","","","","","","","","","","","","","","","","","","","","","","","","","","","","","","","","","","","","",""
"html-keyboard-response","111","314868","0.0-4.0-141.0-0.0","69ff8f6c58779f2e9509c9ea","not_provided","0.5","desktop","0","0","3","","","","","","luck_game","","null","<div id=""score-counter"">TOTAL SCORE: &pound;0.20</div><div class=""experiment-container""><div class=""center-zone""><div class=""cross""></div>
                <div style=""position: absolute; z-index: 10; display: flex; flex-direction: column; align-items: center; justify-content: center;"">
                    <div class=""lose-text"" style=""font-size: 48px; font-weight: bold; margin-bottom: 20px; text-shadow: 2px 2px 4px #000;"">LOSE</div>
                    <img src=""images/coin_no_reward.png"" class=""reward-img"" style=""background-color: black; border-radius: 50%;"">
                    <div class=""lose-text"" style=""font-size: 48px; font-weight: bold; margin-top: 20px; text-shadow: 2px 2px 4px #000;"">-0.05&pound;</div>
                </div></div></div>","null","","","","","","","","","","","","","","","","","","","","","","","","","","","","","","","","","","","","",""
"html-keyboard-response","112","315884","0.0-4.0-142.0-0.0","69ff8f6c58779f2e9509c9ea","not_provided","0.5","desktop","0","0","3","","","","","","luck_game","","null","<div id=""score-counter"">TOTAL SCORE: &pound;0.20</div><div class=""experiment-container""><div class=""center-zone""><div class=""cross""></div></div></div>","null","","","","","","","","","","","","","","","","","","","","","","","","","","","","","","","","","","","","",""
"html-keyboard-response","113","316492","0.0-4.0-145.0","69ff8f6c58779f2e9509c9ea","not_provided","0.5","desktop","0","0","3","","","","","","luck_game","","608","<div id=""score-counter"">TOTAL SCORE: &pound;0.20</div><div class=""experiment-container""><div class=""center-zone""><div class=""cross""></div><div class=""triangle-grid""><div class=""machine top-center blue-outline""></div><div class=""machine bottom-left green""></div><div class=""machine bottom-right red-outline""></div></div></div></div>","arrowleft","","","","gambling_choice","1","17","arrowleft","bottom-left","green","arrowleft","bottom-left","green","[""arrowright"",""arrowup""]","[""bottom-right"",""top-center""]","[""red"",""blue""]","null","null","[""arrowright"",""arrowup""]","[""bottom-right"",""top-center""]","[""red"",""blue""]","0","0","0.15","0.2","-0.05","-0.05","true","false","","","","","","","","",""
"html-keyboard-response","114","316602","0.0-4.0-146.0-0.0","69ff8f6c58779f2e9509c9ea","not_provided","0.5","desktop","0","0","3","","","","","","luck_game","","null","<div id=""score-counter"">TOTAL SCORE: &pound;0.20</div><div class=""experiment-container""><div class=""center-zone""><div class=""cross""></div><div class=""triangle-grid""><div class=""machine top-center blue-outline""></div><div class=""machine bottom-left green""></div><div class=""machine bottom-right red-outline""></div></div></div></div>","null","","","","","","","","","","","","","","","","","","","","","","","","","","","","","","","","","","","","",""
"html-keyboard-response","115","317117","0.0-4.0-147.0-0.0","69ff8f6c58779f2e9509c9ea","not_provided","0.5","desktop","0","0","3","","","","","","luck_game","","null","<div id=""score-counter"">TOTAL SCORE: &pound;0.20</div><div class=""experiment-container""><div class=""center-zone""><div class=""cross""></div></div></div>","null","","","","","","","","","","","","","","","","","","","","","","","","","","","","","","","","","","","","",""
"html-keyboard-response","116","318130","0.0-4.0-148.0-0.0","69ff8f6c58779f2e9509c9ea","not_provided","0.5","desktop","0","0","3","","","","","","luck_game","","null","<div id=""score-counter"">TOTAL SCORE: &pound;0.15</div><div class=""experiment-container""><div class=""center-zone""><div class=""cross""></div>
                <div style=""position: absolute; z-index: 10; display: flex; flex-direction: column; align-items: center; justify-content: center;"">
                    <div class=""lose-text"" style=""font-size: 48px; font-weight: bold; margin-bottom: 20px; text-shadow: 2px 2px 4px #000;"">LOSE</div>
                    <img src=""images/coin_no_reward.png"" class=""reward-img"" style=""background-color: black; border-radius: 50%;"">
                    <div class=""lose-text"" style=""font-size: 48px; font-weight: bold; margin-top: 20px; text-shadow: 2px 2px 4px #000;"">-0.05&pound;</div>
                </div></div></div>","null","","","","","","","","","","","","","","","","","","","","","","","","","","","","","","","","","","","","",""
"html-keyboard-response","117","319135","0.0-4.0-149.0-0.0","69ff8f6c58779f2e9509c9ea","not_provided","0.5","desktop","0","0","3","","","","","","luck_game","","null","<div id=""score-counter"">TOTAL SCORE: &pound;0.15</div><div class=""experiment-container""><div class=""center-zone""><div class=""cross""></div></div></div>","null","","","","","","","","","","","","","","","","","","","","","","","","","","","","","","","","","","","","",""
"html-keyboard-response","118","319919","0.0-4.0-152.0","69ff8f6c58779f2e9509c9ea","not_provided","0.5","desktop","0","0","3","","","","","","luck_game","","782","<div id=""score-counter"">TOTAL SCORE: &pound;0.15</div><div class=""experiment-container""><div class=""center-zone""><div class=""cross""></div><div class=""triangle-grid""><div class=""machine top-center blue""></div><div class=""machine bottom-left green-outline""></div><div class=""machine bottom-right red-outline""></div></div></div></div>","arrowup","","","","gambling_choice","1","18","arrowup","top-center","blue","arrowleft","bottom-left","green","[""arrowright"",""arrowleft""]","[""bottom-right"",""bottom-left""]","[""red"",""green""]","null","null","[""arrowright"",""arrowup""]","[""bottom-right"",""top-center""]","[""red"",""blue""]","0","1","0.2","0.15","0.05","-0.05","true","false","","","","","","","","",""
"html-keyboard-response","119","320026","0.0-4.0-153.0-0.0","69ff8f6c58779f2e9509c9ea","not_provided","0.5","desktop","0","0","3","","","","","","luck_game","","null","<div id=""score-counter"">TOTAL SCORE: &pound;0.15</div><div class=""experiment-container""><div class=""center-zone""><div class=""cross""></div><div class=""triangle-grid""><div class=""machine top-center blue""></div><div class=""machine bottom-left green-outline""></div><div class=""machine bottom-right red-outline""></div></div></div></div>","null","","","","","","","","","","","","","","","","","","","","","","","","","","","","","","","","","","","","",""
"html-keyboard-response","120","320532","0.0-4.0-154.0-0.0","69ff8f6c58779f2e9509c9ea","not_provided","0.5","desktop","0","0","3","","","","","","luck_game","","null","<div id=""score-counter"">TOTAL SCORE: &pound;0.15</div><div class=""experiment-container""><div class=""center-zone""><div class=""cross""></div></div></div>","null","","","","","","","","","","","","","","","","","","","","","","","","","","","","","","","","","","","","",""
"html-keyboard-response","121","321540","0.0-4.0-155.0-0.0","69ff8f6c58779f2e9509c9ea","not_provided","0.5","desktop","0","0","3","","","","","","luck_game","","null","<div id=""score-counter"">TOTAL SCORE: &pound;0.20</div><div class=""experiment-container""><div class=""center-zone""><div class=""cross""></div>
                <div style=""position: absolute; z-index: 10; display: flex; flex-direction: column; align-items: center; justify-content: center;"">
                    <div class=""win-text"" style=""font-size: 48px; font-weight: bold; margin-bottom: 20px; text-shadow: 2px 2px 4px #000;"">WIN</div>
                    <img src=""images/coin_reward.png"" class=""reward-img"" style=""background-color: black; border-radius: 50%;"">
                    <div class=""win-text"" style=""font-size: 48px; font-weight: bold; margin-top: 20px; text-shadow: 2px 2px 4px #000;"">+0.05&pound;</div>
                </div></div></div>","null","","","","","","","","","","","","","","","","","","","","","","","","","","","","","","","","","","","","",""
"html-keyboard-response","122","322547","0.0-4.0-156.0-0.0","69ff8f6c58779f2e9509c9ea","not_provided","0.5","desktop","0","0","3","","","","","","luck_game","","null","<div id=""score-counter"">TOTAL SCORE: &pound;0.20</div><div class=""experiment-container""><div class=""center-zone""><div class=""cross""></div></div></div>","null","","","","","","","","","","","","","","","","","","","","","","","","","","","","","","","","","","","","",""
"html-keyboard-response","123","322952","0.0-4.0-159.0","69ff8f6c58779f2e9509c9ea","not_provided","0.5","desktop","0","0","3","","","","","","luck_game","","402","<div id=""score-counter"">TOTAL SCORE: &pound;0.20</div><div class=""experiment-container""><div class=""center-zone""><div class=""cross""></div><div class=""triangle-grid""><div class=""machine top-center blue-outline""></div><div class=""machine bottom-left green""></div><div class=""machine bottom-right red-outline""></div></div></div></div>","arrowleft","","","","gambling_choice","1","19","arrowleft","bottom-left","green","arrowup","top-center","blue","[""arrowup"",""arrowright""]","[""top-center"",""bottom-right""]","[""blue"",""red""]","null","null","[""arrowright"",""arrowleft""]","[""bottom-right"",""bottom-left""]","[""red"",""green""]","1","1","0.25","0.2","0.05","0.05","true","false","","","","","","","","",""
"html-keyboard-response","124","323054","0.0-4.0-160.0-0.0","69ff8f6c58779f2e9509c9ea","not_provided","0.5","desktop","0","0","3","","","","","","luck_game","","null","<div id=""score-counter"">TOTAL SCORE: &pound;0.20</div><div class=""experiment-container""><div class=""center-zone""><div class=""cross""></div><div class=""triangle-grid""><div class=""machine top-center blue-outline""></div><div class=""machine bottom-left green""></div><div class=""machine bottom-right red-outline""></div></div></div></div>","null","","","","","","","","","","","","","","","","","","","","","","","","","","","","","","","","","","","","",""
"html-keyboard-response","125","323560","0.0-4.0-161.0-0.0","69ff8f6c58779f2e9509c9ea","not_provided","0.5","desktop","0","0","3","","","","","","luck_game","","null","<div id=""score-counter"">TOTAL SCORE: &pound;0.20</div><div class=""experiment-container""><div class=""center-zone""><div class=""cross""></div></div></div>","null","","","","","","","","","","","","","","","","","","","","","","","","","","","","","","","","","","","","",""
"html-keyboard-response","126","324573","0.0-4.0-162.0-0.0","69ff8f6c58779f2e9509c9ea","not_provided","0.5","desktop","0","0","3","","","","","","luck_game","","null","<div id=""score-counter"">TOTAL SCORE: &pound;0.25</div><div class=""experiment-container""><div class=""center-zone""><div class=""cross""></div>
                <div style=""position: absolute; z-index: 10; display: flex; flex-direction: column; align-items: center; justify-content: center;"">
                    <div class=""win-text"" style=""font-size: 48px; font-weight: bold; margin-bottom: 20px; text-shadow: 2px 2px 4px #000;"">WIN</div>
                    <img src=""images/coin_reward.png"" class=""reward-img"" style=""background-color: black; border-radius: 50%;"">
                    <div class=""win-text"" style=""font-size: 48px; font-weight: bold; margin-top: 20px; text-shadow: 2px 2px 4px #000;"">+0.05&pound;</div>
                </div></div></div>","null","","","","","","","","","","","","","","","","","","","","","","","","","","","","","","","","","","","","",""
"html-keyboard-response","127","325585","0.0-4.0-163.0-0.0","69ff8f6c58779f2e9509c9ea","not_provided","0.5","desktop","0","0","3","","","","","","luck_game","","null","<div id=""score-counter"">TOTAL SCORE: &pound;0.25</div><div class=""experiment-container""><div class=""center-zone""><div class=""cross""></div></div></div>","null","","","","","","","","","","","","","","","","","","","","","","","","","","","","","","","","","","","","",""
"html-keyboard-response","128","325962","0.0-4.0-166.0","69ff8f6c58779f2e9509c9ea","not_provided","0.5","desktop","0","0","3","","","","","","luck_game","","376","<div id=""score-counter"">TOTAL SCORE: &pound;0.25</div><div class=""experiment-container""><div class=""center-zone""><div class=""cross""></div><div class=""triangle-grid""><div class=""machine top-center blue""></div><div class=""machine bottom-left green-outline""></div><div class=""machine bottom-right red-outline""></div></div></div></div>","arrowup","","","","gambling_choice","1","20","arrowup","top-center","blue","arrowleft","bottom-left","green","[""arrowleft"",""arrowright""]","[""bottom-left"",""bottom-right""]","[""green"",""red""]","null","null","[""arrowup"",""arrowright""]","[""top-center"",""bottom-right""]","[""blue"",""red""]","1","1","0.3","0.25","0.05","0.05","true","false","","","","","","","","",""
"html-keyboard-response","129","326065","0.0-4.0-167.0-0.0","69ff8f6c58779f2e9509c9ea","not_provided","0.5","desktop","0","0","3","","","","","","luck_game","","null","<div id=""score-counter"">TOTAL SCORE: &pound;0.25</div><div class=""experiment-container""><div class=""center-zone""><div class=""cross""></div><div class=""triangle-grid""><div class=""machine top-center blue""></div><div class=""machine bottom-left green-outline""></div><div class=""machine bottom-right red-outline""></div></div></div></div>","null","","","","","","","","","","","","","","","","","","","","","","","","","","","","","","","","","","","","",""
"html-keyboard-response","130","326570","0.0-4.0-168.0-0.0","69ff8f6c58779f2e9509c9ea","not_provided","0.5","desktop","0","0","3","","","","","","luck_game","","null","<div id=""score-counter"">TOTAL SCORE: &pound;0.25</div><div class=""experiment-container""><div class=""center-zone""><div class=""cross""></div></div></div>","null","","","","","","","","","","","","","","","","","","","","","","","","","","","","","","","","","","","","",""
"html-keyboard-response","131","327582","0.0-4.0-169.0-0.0","69ff8f6c58779f2e9509c9ea","not_provided","0.5","desktop","0","0","3","","","","","","luck_game","","null","<div id=""score-counter"">TOTAL SCORE: &pound;0.30</div><div class=""experiment-container""><div class=""center-zone""><div class=""cross""></div>
                <div style=""position: absolute; z-index: 10; display: flex; flex-direction: column; align-items: center; justify-content: center;"">
                    <div class=""win-text"" style=""font-size: 48px; font-weight: bold; margin-bottom: 20px; text-shadow: 2px 2px 4px #000;"">WIN</div>
                    <img src=""images/coin_reward.png"" class=""reward-img"" style=""background-color: black; border-radius: 50%;"">
                    <div class=""win-text"" style=""font-size: 48px; font-weight: bold; margin-top: 20px; text-shadow: 2px 2px 4px #000;"">+0.05&pound;</div>
                </div></div></div>","null","","","","","","","","","","","","","","","","","","","","","","","","","","","","","","","","","","","","",""
"html-keyboard-response","132","328600","0.0-4.0-170.0-0.0","69ff8f6c58779f2e9509c9ea","not_provided","0.5","desktop","0","0","3","","","","","","luck_game","","null","<div id=""score-counter"">TOTAL SCORE: &pound;0.30</div><div class=""experiment-container""><div class=""center-zone""><div class=""cross""></div></div></div>","null","","","","","","","","","","","","","","","","","","","","","","","","","","","","","","","","","","","","",""
"html-keyboard-response","133","329038","0.0-4.0-173.0","69ff8f6c58779f2e9509c9ea","not_provided","0.5","desktop","0","0","3","","","","","","luck_game","","437","<div id=""score-counter"">TOTAL SCORE: &pound;0.30</div><div class=""experiment-container""><div class=""center-zone""><div class=""cross""></div><div class=""triangle-grid""><div class=""machine top-center blue-outline""></div><div class=""machine bottom-left green""></div><div class=""machine bottom-right red-outline""></div></div></div></div>","arrowleft","","","","gambling_choice","1","21","arrowleft","bottom-left","green","arrowup","top-center","blue","[""arrowup"",""arrowright""]","[""top-center"",""bottom-right""]","[""blue"",""red""]","null","null","[""arrowleft"",""arrowright""]","[""bottom-left"",""bottom-right""]","[""green"",""red""]","1","1","0.35","0.3","0.05","0.05","true","false","","","","","","","","",""
"html-keyboard-response","134","329145","0.0-4.0-174.0-0.0","69ff8f6c58779f2e9509c9ea","not_provided","0.5","desktop","0","0","3","","","","","","luck_game","","null","<div id=""score-counter"">TOTAL SCORE: &pound;0.30</div><div class=""experiment-container""><div class=""center-zone""><div class=""cross""></div><div class=""triangle-grid""><div class=""machine top-center blue-outline""></div><div class=""machine bottom-left green""></div><div class=""machine bottom-right red-outline""></div></div></div></div>","null","","","","","","","","","","","","","","","","","","","","","","","","","","","","","","","","","","","","",""
"html-keyboard-response","135","329657","0.0-4.0-175.0-0.0","69ff8f6c58779f2e9509c9ea","not_provided","0.5","desktop","0","0","3","","","","","","luck_game","","null","<div id=""score-counter"">TOTAL SCORE: &pound;0.30</div><div class=""experiment-container""><div class=""center-zone""><div class=""cross""></div></div></div>","null","","","","","","","","","","","","","","","","","","","","","","","","","","","","","","","","","","","","",""
"html-keyboard-response","136","330674","0.0-4.0-176.0-0.0","69ff8f6c58779f2e9509c9ea","not_provided","0.5","desktop","0","0","3","","","","","","luck_game","","null","<div id=""score-counter"">TOTAL SCORE: &pound;0.35</div><div class=""experiment-container""><div class=""center-zone""><div class=""cross""></div>
                <div style=""position: absolute; z-index: 10; display: flex; flex-direction: column; align-items: center; justify-content: center;"">
                    <div class=""win-text"" style=""font-size: 48px; font-weight: bold; margin-bottom: 20px; text-shadow: 2px 2px 4px #000;"">WIN</div>
                    <img src=""images/coin_reward.png"" class=""reward-img"" style=""background-color: black; border-radius: 50%;"">
                    <div class=""win-text"" style=""font-size: 48px; font-weight: bold; margin-top: 20px; text-shadow: 2px 2px 4px #000;"">+0.05&pound;</div>
                </div></div></div>","null","","","","","","","","","","","","","","","","","","","","","","","","","","","","","","","","","","","","",""
"html-keyboard-response","137","331686","0.0-4.0-177.0-0.0","69ff8f6c58779f2e9509c9ea","not_provided","0.5","desktop","0","0","3","","","","","","luck_game","","null","<div id=""score-counter"">TOTAL SCORE: &pound;0.35</div><div class=""experiment-container""><div class=""center-zone""><div class=""cross""></div></div></div>","null","","","","","","","","","","","","","","","","","","","","","","","","","","","","","","","","","","","","",""
"html-keyboard-response","138","332192","0.0-4.0-180.0","69ff8f6c58779f2e9509c9ea","not_provided","0.5","desktop","0","0","3","","","","","","luck_game","","504","<div id=""score-counter"">TOTAL SCORE: &pound;0.35</div><div class=""experiment-container""><div class=""center-zone""><div class=""cross""></div><div class=""triangle-grid""><div class=""machine top-center blue-outline""></div><div class=""machine bottom-left green-outline""></div><div class=""machine bottom-right red""></div></div></div></div>","arrowright","","","","gambling_choice","1","22","arrowright","bottom-right","red","arrowleft","bottom-left","green","[""arrowup"",""arrowleft""]","[""top-center"",""bottom-left""]","[""blue"",""green""]","null","null","[""arrowup"",""arrowright""]","[""top-center"",""bottom-right""]","[""blue"",""red""]","1","0","0.3","0.35","-0.05","0.05","true","false","","","","","","","","",""
"html-keyboard-response","139","332309","0.0-4.0-181.0-0.0","69ff8f6c58779f2e9509c9ea","not_provided","0.5","desktop","0","0","3","","","","","","luck_game","","null","<div id=""score-counter"">TOTAL SCORE: &pound;0.35</div><div class=""experiment-container""><div class=""center-zone""><div class=""cross""></div><div class=""triangle-grid""><div class=""machine top-center blue-outline""></div><div class=""machine bottom-left green-outline""></div><div class=""machine bottom-right red""></div></div></div></div>","null","","","","","","","","","","","","","","","","","","","","","","","","","","","","","","","","","","","","",""
"html-keyboard-response","140","332820","0.0-4.0-182.0-0.0","69ff8f6c58779f2e9509c9ea","not_provided","0.5","desktop","0","0","3","","","","","","luck_game","","null","<div id=""score-counter"">TOTAL SCORE: &pound;0.35</div><div class=""experiment-container""><div class=""center-zone""><div class=""cross""></div></div></div>","null","","","","","","","","","","","","","","","","","","","","","","","","","","","","","","","","","","","","",""
"html-keyboard-response","141","333831","0.0-4.0-183.0-0.0","69ff8f6c58779f2e9509c9ea","not_provided","0.5","desktop","0","0","3","","","","","","luck_game","","null","<div id=""score-counter"">TOTAL SCORE: &pound;0.30</div><div class=""experiment-container""><div class=""center-zone""><div class=""cross""></div>
                <div style=""position: absolute; z-index: 10; display: flex; flex-direction: column; align-items: center; justify-content: center;"">
                    <div class=""lose-text"" style=""font-size: 48px; font-weight: bold; margin-bottom: 20px; text-shadow: 2px 2px 4px #000;"">LOSE</div>
                    <img src=""images/coin_no_reward.png"" class=""reward-img"" style=""background-color: black; border-radius: 50%;"">
                    <div class=""lose-text"" style=""font-size: 48px; font-weight: bold; margin-top: 20px; text-shadow: 2px 2px 4px #000;"">-0.05&pound;</div>
                </div></div></div>","null","","","","","","","","","","","","","","","","","","","","","","","","","","","","","","","","","","","","",""
"html-keyboard-response","142","334842","0.0-4.0-184.0-0.0","69ff8f6c58779f2e9509c9ea","not_provided","0.5","desktop","0","0","3","","","","","","luck_game","","null","<div id=""score-counter"">TOTAL SCORE: &pound;0.30</div><div class=""experiment-container""><div class=""center-zone""><div class=""cross""></div></div></div>","null","","","","","","","","","","","","","","","","","","","","","","","","","","","","","","","","","","","","",""
