"trial_type","trial_index","time_elapsed","internal_node_id","subject_id","study_id","win_chance","device_type","blur_count","fullscreen_exit_count","failed_attention_checks","success","timeout","failed_images","failed_audio","failed_video","phase","view_history","rt","stimulus","response","question_order","trial_name","value","task","block_number","trial_number","choice_key","choice_location","choice_color","choice_key_oneback","choice_location_oneback","choice_color_oneback","unavailable_keys","unavailable_locations","unavailable_colors","unavailable_location","unavailable_color","unavailable_keys_oneback","unavailable_locations_oneback","unavailable_colors_oneback","reward_oneback","reward","total_score","total_score_oneback","coin_earned","coin_earned_oneback","is_choice_valid","is_timeout_reached","belief_blue","belief_green","belief_red","prompt","flipped","attention","expected_answer","category","question_index"
"pavlovia","0","876","0.0-0.0","699f4039ddf914372870c431","not_provided","0.5","desktop","0","0","1","","","","","","","","","","","","","","","","","","","","","","","","","","","","","","","","","","","","","","","","","","","","","","",""
"preload","1","1807","0.0-2.0","699f4039ddf914372870c431","not_provided","0.5","desktop","0","0","1","true","false","[]","[]","[]","","","","","","","","","","","","","","","","","","","","","","","","","","","","","","","","","","","","","","","","","",""
"fullscreen","2","11513","0.0-3.0","699f4039ddf914372870c431","not_provided","0.5","desktop","0","0","1","true","","","","","setup","","","","","","","","","","","","","","","","","","","","","","","","","","","","","","","","","","","","","","","","",""
"instructions","3","274966","0.0-4.0-0.0-0.0-0.0","699f4039ddf914372870c431","not_provided","0.5","desktop","0","0","1","","","","","","luck_game","[{""page_index"":0,""viewing_time"":27519},{""page_index"":1,""viewing_time"":24047},{""page_index"":2,""viewing_time"":22014},{""page_index"":3,""viewing_time"":14716},{""page_index"":4,""viewing_time"":25261},{""page_index"":5,""viewing_time"":45513},{""page_index"":6,""viewing_time"":11763},{""page_index"":7,""viewing_time"":45607},{""page_index"":8,""viewing_time"":17247},{""page_index"":9,""viewing_time"":15124},{""page_index"":10,""viewing_time"":14640}]","263451","","","","","","","","","","","","","","","","","","","","","","","","","","","","","","","","","","","","","","",""
"html-button-response","4","306943","0.0-4.0-0.0-1.0","699f4039ddf914372870c431","not_provided","0.5","desktop","0","0","1","","","","","","luck_game","","31973","<div style=""max-width:640px; margin:0 auto; text-align:left;
                               font-family:sans-serif; color:white; padding:10px;"">
            <h3 style=""color:white; text-align:center;"">Quick Reminder</h3>
            <ul style=""line-height:2.1; font-size:1.05em;"">
                <li>There are <strong>3 luck machines</strong>:
                    <span style=""color:#5599ff""><strong>Blue</strong></span> (&uarr; Up),
                    <span style=""color:#55cc55""><strong>Green</strong></span> (&larr; Left),
                    <span style=""color:#ff5555""><strong>Red</strong></span> (&rarr; Right)</li>
                <li>Each turn, <strong>1 machine is READY</strong> and 2 are
                    <strong>unavailable</strong> (shown as a colored outline)</li>
                <li>Press the corresponding arrow key to activate the READY machine</li>
                <li>Activating one of the <strong>unavailable machines</strong>: lose your turn + time penalty</li>
                <li>Activating the READY machine: <strong class=""win-text"">50% win +&pound;0.05</strong>
                    / <strong class=""lose-text"">50% lose &minus;&pound;0.05</strong></li>
                <li><strong>Time limit:</strong> 6 seconds per turn &mdash; don&rsquo;t miss your chance!</li>
                <li><strong>Goal:</strong> Quickly activate the READY machine, avoid the unavailable ones</li>
            </ul>
        </div>","0","","","","","","","","","","","","","","","","","","","","","","","","","","","","","","","","","","","","",""
"survey-multi-choice","5","399189","0.0-4.0-0.0-2.0","699f4039ddf914372870c431","not_provided","0.5","desktop","0","0","1","","","","","","luck_game","","92240","","{""q_total_machines"":""1"",""q_ready_machines"":""1"",""q_blue_key"":""↑ Up arrow key"",""q_red_key"":""→ Right arrow key"",""q_outcome"":""The red machine is one of the unavailable machines. I will lose my turn and chance to win coins, and get a time penalty."",""q_ready_outcome"":""I will either win a coin (+0.05£) or lose a coin (−0.05£)."",""q_goal"":""My goal is to quickly activate available luck machines, avoiding unavailable machines. If I am lucky, I will get rewarded."",""q_win_rates"":""Red: 50% win rate — Blue: 50% win rate — Green: 50% win rate""}","[0,1,2,3,4,5,6,7]","luck_game_quiz","","","","","","","","","","","","","","","","","","","","","","","","","","","","","","","","","","",""
"html-button-response","6","406545","0.0-4.0-0.0-3.0-0.0-0.0","699f4039ddf914372870c431","not_provided","0.5","desktop","0","0","1","","","","","","luck_game","","7353","<p>Sorry. You made a mistake.<br>
                       We will now briefly go again over the instructions.
                       Then, you could try and correct your mistake.<br>
                       Thank you for your patience!</p>","0","","","","","","","","","","","","","","","","","","","","","","","","","","","","","","","","","","","","",""
"html-button-response","7","438375","0.0-4.0-0.1-1.1","699f4039ddf914372870c431","not_provided","0.5","desktop","0","0","1","","","","","","luck_game","","31827","<div style=""max-width:640px; margin:0 auto; text-align:left;
                               font-family:sans-serif; color:white; padding:10px;"">
            <h3 style=""color:white; text-align:center;"">Quick Reminder</h3>
            <ul style=""line-height:2.1; font-size:1.05em;"">
                <li>There are <strong>3 luck machines</strong>:
                    <span style=""color:#5599ff""><strong>Blue</strong></span> (&uarr; Up),
                    <span style=""color:#55cc55""><strong>Green</strong></span> (&larr; Left),
                    <span style=""color:#ff5555""><strong>Red</strong></span> (&rarr; Right)</li>
                <li>Each turn, <strong>1 machine is READY</strong> and 2 are
                    <strong>unavailable</strong> (shown as a colored outline)</li>
                <li>Press the corresponding arrow key to activate the READY machine</li>
                <li>Activating one of the <strong>unavailable machines</strong>: lose your turn + time penalty</li>
                <li>Activating the READY machine: <strong class=""win-text"">50% win +&pound;0.05</strong>
                    / <strong class=""lose-text"">50% lose &minus;&pound;0.05</strong></li>
                <li><strong>Time limit:</strong> 6 seconds per turn &mdash; don&rsquo;t miss your chance!</li>
                <li><strong>Goal:</strong> Quickly activate the READY machine, avoid the unavailable ones</li>
            </ul>
        </div>","0","","","","","","","","","","","","","","","","","","","","","","","","","","","","","","","","","","","","",""
"survey-multi-choice","8","476648","0.0-4.0-0.1-2.1","699f4039ddf914372870c431","not_provided","0.5","desktop","0","0","1","","","","","","luck_game","","38268","","{""q_total_machines"":""3"",""q_ready_machines"":""1"",""q_blue_key"":""↑ Up arrow key"",""q_red_key"":""→ Right arrow key"",""q_outcome"":""The red machine is one of the unavailable machines. I will lose my turn and chance to win coins, and get a time penalty."",""q_ready_outcome"":""I will either win a coin (+0.05£) or lose a coin (−0.05£)."",""q_goal"":""My goal is to quickly activate available luck machines, avoiding unavailable machines. If I am lucky, I will get rewarded."",""q_win_rates"":""Red: 50% win rate — Blue: 50% win rate — Green: 50% win rate""}","[0,1,2,3,4,5,6,7]","luck_game_quiz","","","","","","","","","","","","","","","","","","","","","","","","","","","","","","","","","","",""
"html-keyboard-response","9","483771","0.0-4.0-1.0","699f4039ddf914372870c431","not_provided","0.5","desktop","0","0","1","","","","","","luck_game","","7119","
            <div style=""max-width: 600px; margin: 0 auto; text-align: center; font-family: sans-serif;"">
                <h2 style=""color: white;"">Good job, you learned the instructions!</h2>
                <p>We will now move to a short <strong>training phase</strong> to get you familiar with the game.</p>
                <p>Your score will <strong>not</strong> be counted during training.</p>
                <br>
                <p><strong>Press Space to start training.</strong></p>
            </div>"," ","","","","","","","","","","","","","","","","","","","","","","","","","","","","","","","","","","","","",""
"call-function","10","483772","0.0-4.0-2.0","699f4039ddf914372870c431","not_provided","0.5","desktop","0","0","1","","","","","","luck_game","","","","","","","","","","","","","","","","","","","","","","","","","","","","","","","","","","","","","","","","",""
"html-keyboard-response","11","484752","0.0-4.0-3.0","699f4039ddf914372870c431","not_provided","0.5","desktop","0","0","1","","","","","","luck_game","","979","<div class=""experiment-container""><div class=""center-zone""><div class=""cross""></div><div class=""triangle-grid""><div class=""machine top-center blue-outline""></div><div class=""machine bottom-left green""></div><div class=""machine bottom-right red-outline""></div></div></div></div>","arrowleft","","","","gambling_choice","training","1","arrowleft","bottom-left","green","null","null","null","[""arrowright"",""arrowup""]","[""bottom-right"",""top-center""]","[""red"",""blue""]","null","null","[]","[]","[]","null","0","0","0","-0.05","null","true","false","","","","","","","","",""
"html-keyboard-response","12","484864","0.0-4.0-4.0-0.0","699f4039ddf914372870c431","not_provided","0.5","desktop","0","0","1","","","","","","luck_game","","null","<div class=""experiment-container""><div class=""center-zone""><div class=""cross""></div><div class=""triangle-grid""><div class=""machine top-center blue-outline""></div><div class=""machine bottom-left green""></div><div class=""machine bottom-right red-outline""></div></div></div></div>","null","","","","","","","","","","","","","","","","","","","","","","","","","","","","","","","","","","","","",""
"html-keyboard-response","13","485376","0.0-4.0-5.0-0.0","699f4039ddf914372870c431","not_provided","0.5","desktop","0","0","1","","","","","","luck_game","","null","<div class=""experiment-container""><div class=""center-zone""><div class=""cross""></div></div></div>","null","","","","","","","","","","","","","","","","","","","","","","","","","","","","","","","","","","","","",""
"html-keyboard-response","14","486390","0.0-4.0-6.0-0.0","699f4039ddf914372870c431","not_provided","0.5","desktop","0","0","1","","","","","","luck_game","","null","<div class=""experiment-container""><div class=""center-zone""><div class=""cross""></div>
                <div style=""position: absolute; z-index: 10; display: flex; flex-direction: column; align-items: center; justify-content: center;"">
                    <div class=""lose-text"" style=""font-size: 48px; font-weight: bold; margin-bottom: 20px; text-shadow: 2px 2px 4px #000;"">LOSE</div>
                    <img src=""images/coin_no_reward.png"" class=""reward-img"" style=""background-color: black; border-radius: 50%;"">
                    <div class=""lose-text"" style=""font-size: 48px; font-weight: bold; margin-top: 20px; text-shadow: 2px 2px 4px #000;"">-0.05&pound;</div>
                </div></div></div>","null","","","","","","","","","","","","","","","","","","","","","","","","","","","","","","","","","","","","",""
"html-keyboard-response","15","487406","0.0-4.0-7.0-0.0","699f4039ddf914372870c431","not_provided","0.5","desktop","0","0","1","","","","","","luck_game","","null","<div class=""experiment-container""><div class=""center-zone""><div class=""cross""></div></div></div>","null","","","","","","","","","","","","","","","","","","","","","","","","","","","","","","","","","","","","",""
"html-keyboard-response","16","488150","0.0-4.0-10.0","699f4039ddf914372870c431","not_provided","0.5","desktop","0","0","1","","","","","","luck_game","","742","<div class=""experiment-container""><div class=""center-zone""><div class=""cross""></div><div class=""triangle-grid""><div class=""machine top-center blue-outline""></div><div class=""machine bottom-left green-outline""></div><div class=""machine bottom-right red""></div></div></div></div>","arrowright","","","","gambling_choice","training","2","arrowright","bottom-right","red","arrowleft","bottom-left","green","[""arrowup"",""arrowleft""]","[""top-center"",""bottom-left""]","[""blue"",""green""]","null","null","[""arrowright"",""arrowup""]","[""bottom-right"",""top-center""]","[""red"",""blue""]","0","1","0","0","0.05","-0.05","true","false","","","","","","","","",""
"html-keyboard-response","17","488262","0.0-4.0-11.0-0.0","699f4039ddf914372870c431","not_provided","0.5","desktop","0","0","1","","","","","","luck_game","","null","<div class=""experiment-container""><div class=""center-zone""><div class=""cross""></div><div class=""triangle-grid""><div class=""machine top-center blue-outline""></div><div class=""machine bottom-left green-outline""></div><div class=""machine bottom-right red""></div></div></div></div>","null","","","","","","","","","","","","","","","","","","","","","","","","","","","","","","","","","","","","",""
"html-keyboard-response","18","488769","0.0-4.0-12.0-0.0","699f4039ddf914372870c431","not_provided","0.5","desktop","0","0","1","","","","","","luck_game","","null","<div class=""experiment-container""><div class=""center-zone""><div class=""cross""></div></div></div>","null","","","","","","","","","","","","","","","","","","","","","","","","","","","","","","","","","","","","",""
"html-keyboard-response","19","489786","0.0-4.0-13.0-0.0","699f4039ddf914372870c431","not_provided","0.5","desktop","0","0","1","","","","","","luck_game","","null","<div class=""experiment-container""><div class=""center-zone""><div class=""cross""></div>
                <div style=""position: absolute; z-index: 10; display: flex; flex-direction: column; align-items: center; justify-content: center;"">
                    <div class=""win-text"" style=""font-size: 48px; font-weight: bold; margin-bottom: 20px; text-shadow: 2px 2px 4px #000;"">WIN</div>
                    <img src=""images/coin_reward.png"" class=""reward-img"" style=""background-color: black; border-radius: 50%;"">
                    <div class=""win-text"" style=""font-size: 48px; font-weight: bold; margin-top: 20px; text-shadow: 2px 2px 4px #000;"">+0.05&pound;</div>
                </div></div></div>","null","","","","","","","","","","","","","","","","","","","","","","","","","","","","","","","","","","","","",""
"html-keyboard-response","20","490799","0.0-4.0-14.0-0.0","699f4039ddf914372870c431","not_provided","0.5","desktop","0","0","1","","","","","","luck_game","","null","<div class=""experiment-container""><div class=""center-zone""><div class=""cross""></div></div></div>","null","","","","","","","","","","","","","","","","","","","","","","","","","","","","","","","","","","","","",""
"html-keyboard-response","21","491228","0.0-4.0-17.0","699f4039ddf914372870c431","not_provided","0.5","desktop","0","0","1","","","","","","luck_game","","428","<div class=""experiment-container""><div class=""center-zone""><div class=""cross""></div><div class=""triangle-grid""><div class=""machine top-center blue-outline""></div><div class=""machine bottom-left green-outline""></div><div class=""machine bottom-right red""></div></div></div></div>","arrowright","","","","gambling_choice","training","3","arrowright","bottom-right","red","arrowright","bottom-right","red","[""arrowleft"",""arrowup""]","[""bottom-left"",""top-center""]","[""green"",""blue""]","null","null","[""arrowup"",""arrowleft""]","[""top-center"",""bottom-left""]","[""blue"",""green""]","1","1","0","0","0.05","0.05","true","false","","","","","","","","",""
"html-keyboard-response","22","491329","0.0-4.0-18.0-0.0","699f4039ddf914372870c431","not_provided","0.5","desktop","0","0","1","","","","","","luck_game","","null","<div class=""experiment-container""><div class=""center-zone""><div class=""cross""></div><div class=""triangle-grid""><div class=""machine top-center blue-outline""></div><div class=""machine bottom-left green-outline""></div><div class=""machine bottom-right red""></div></div></div></div>","null","","","","","","","","","","","","","","","","","","","","","","","","","","","","","","","","","","","","",""
"html-keyboard-response","23","491833","0.0-4.0-19.0-0.0","699f4039ddf914372870c431","not_provided","0.5","desktop","0","0","1","","","","","","luck_game","","null","<div class=""experiment-container""><div class=""center-zone""><div class=""cross""></div></div></div>","null","","","","","","","","","","","","","","","","","","","","","","","","","","","","","","","","","","","","",""
"html-keyboard-response","24","492837","0.0-4.0-20.0-0.0","699f4039ddf914372870c431","not_provided","0.5","desktop","0","0","1","","","","","","luck_game","","null","<div class=""experiment-container""><div class=""center-zone""><div class=""cross""></div>
                <div style=""position: absolute; z-index: 10; display: flex; flex-direction: column; align-items: center; justify-content: center;"">
                    <div class=""win-text"" style=""font-size: 48px; font-weight: bold; margin-bottom: 20px; text-shadow: 2px 2px 4px #000;"">WIN</div>
                    <img src=""images/coin_reward.png"" class=""reward-img"" style=""background-color: black; border-radius: 50%;"">
                    <div class=""win-text"" style=""font-size: 48px; font-weight: bold; margin-top: 20px; text-shadow: 2px 2px 4px #000;"">+0.05&pound;</div>
                </div></div></div>","null","","","","","","","","","","","","","","","","","","","","","","","","","","","","","","","","","","","","",""
"html-keyboard-response","25","493841","0.0-4.0-21.0-0.0","699f4039ddf914372870c431","not_provided","0.5","desktop","0","0","1","","","","","","luck_game","","null","<div class=""experiment-container""><div class=""center-zone""><div class=""cross""></div></div></div>","null","","","","","","","","","","","","","","","","","","","","","","","","","","","","","","","","","","","","",""
"html-keyboard-response","26","494685","0.0-4.0-24.0","699f4039ddf914372870c431","not_provided","0.5","desktop","0","0","1","","","","","","luck_game","","843","<div class=""experiment-container""><div class=""center-zone""><div class=""cross""></div><div class=""triangle-grid""><div class=""machine top-center blue""></div><div class=""machine bottom-left green-outline""></div><div class=""machine bottom-right red-outline""></div></div></div></div>","arrowup","","","","gambling_choice","training","4","arrowup","top-center","blue","arrowright","bottom-right","red","[""arrowleft"",""arrowright""]","[""bottom-left"",""bottom-right""]","[""green"",""red""]","null","null","[""arrowleft"",""arrowup""]","[""bottom-left"",""top-center""]","[""green"",""blue""]","1","1","0","0","0.05","0.05","true","false","","","","","","","","",""
"html-keyboard-response","27","494786","0.0-4.0-25.0-0.0","699f4039ddf914372870c431","not_provided","0.5","desktop","0","0","1","","","","","","luck_game","","null","<div class=""experiment-container""><div class=""center-zone""><div class=""cross""></div><div class=""triangle-grid""><div class=""machine top-center blue""></div><div class=""machine bottom-left green-outline""></div><div class=""machine bottom-right red-outline""></div></div></div></div>","null","","","","","","","","","","","","","","","","","","","","","","","","","","","","","","","","","","","","",""
"html-keyboard-response","28","495290","0.0-4.0-26.0-0.0","699f4039ddf914372870c431","not_provided","0.5","desktop","0","0","1","","","","","","luck_game","","null","<div class=""experiment-container""><div class=""center-zone""><div class=""cross""></div></div></div>","null","","","","","","","","","","","","","","","","","","","","","","","","","","","","","","","","","","","","",""
"html-keyboard-response","29","496294","0.0-4.0-27.0-0.0","699f4039ddf914372870c431","not_provided","0.5","desktop","0","0","1","","","","","","luck_game","","null","<div class=""experiment-container""><div class=""center-zone""><div class=""cross""></div>
                <div style=""position: absolute; z-index: 10; display: flex; flex-direction: column; align-items: center; justify-content: center;"">
                    <div class=""win-text"" style=""font-size: 48px; font-weight: bold; margin-bottom: 20px; text-shadow: 2px 2px 4px #000;"">WIN</div>
                    <img src=""images/coin_reward.png"" class=""reward-img"" style=""background-color: black; border-radius: 50%;"">
                    <div class=""win-text"" style=""font-size: 48px; font-weight: bold; margin-top: 20px; text-shadow: 2px 2px 4px #000;"">+0.05&pound;</div>
                </div></div></div>","null","","","","","","","","","","","","","","","","","","","","","","","","","","","","","","","","","","","","",""
"html-keyboard-response","30","497309","0.0-4.0-28.0-0.0","699f4039ddf914372870c431","not_provided","0.5","desktop","0","0","1","","","","","","luck_game","","null","<div class=""experiment-container""><div class=""center-zone""><div class=""cross""></div></div></div>","null","","","","","","","","","","","","","","","","","","","","","","","","","","","","","","","","","","","","",""
"call-function","31","497310","0.0-4.0-31.0","699f4039ddf914372870c431","not_provided","0.5","desktop","0","0","1","","","","","","luck_game","","","","","","","","","","","","","","","","","","","","","","","","","","","","","","","","","","","","","","","","",""
"html-keyboard-response","32","499582","0.0-4.0-32.0","699f4039ddf914372870c431","not_provided","0.5","desktop","0","0","1","","","","","","luck_game","","2271","
            <div style=""max-width: 600px; margin: 0 auto; text-align: center; font-family: sans-serif;"">
                <h2 style=""color: white;"">Training Complete</h2>
                <p>You will now start the real game.</p>
                <br>
                <p><strong>Press Space to begin.</strong></p>
            </div>"," ","","","","","","","","","","","","","","","","","","","","","","","","","","","","","","","","","","","","",""
"html-keyboard-response","33","500337","0.0-4.0-33.0","699f4039ddf914372870c431","not_provided","0.5","desktop","0","0","1","","","","","","luck_game","","754","<div id=""score-counter"">TOTAL SCORE: &pound;0.00</div><div class=""experiment-container""><div class=""center-zone""><div class=""cross""></div><div class=""triangle-grid""><div class=""machine top-center blue-outline""></div><div class=""machine bottom-left green-outline""></div><div class=""machine bottom-right red""></div></div></div></div>","arrowright","","","","gambling_choice","1","1","arrowright","bottom-right","red","arrowup","top-center","blue","[""arrowup"",""arrowleft""]","[""top-center"",""bottom-left""]","[""blue"",""green""]","null","null","[""arrowleft"",""arrowright""]","[""bottom-left"",""bottom-right""]","[""green"",""red""]","1","0","0","0","-0.05","0.05","true","false","","","","","","","","",""
"html-keyboard-response","34","500452","0.0-4.0-34.0-0.0","699f4039ddf914372870c431","not_provided","0.5","desktop","0","0","1","","","","","","luck_game","","null","<div id=""score-counter"">TOTAL SCORE: &pound;0.00</div><div class=""experiment-container""><div class=""center-zone""><div class=""cross""></div><div class=""triangle-grid""><div class=""machine top-center blue-outline""></div><div class=""machine bottom-left green-outline""></div><div class=""machine bottom-right red""></div></div></div></div>","null","","","","","","","","","","","","","","","","","","","","","","","","","","","","","","","","","","","","",""
"html-keyboard-response","35","500956","0.0-4.0-35.0-0.0","699f4039ddf914372870c431","not_provided","0.5","desktop","0","0","1","","","","","","luck_game","","null","<div id=""score-counter"">TOTAL SCORE: &pound;0.00</div><div class=""experiment-container""><div class=""center-zone""><div class=""cross""></div></div></div>","null","","","","","","","","","","","","","","","","","","","","","","","","","","","","","","","","","","","","",""
"html-keyboard-response","36","501973","0.0-4.0-36.0-0.0","699f4039ddf914372870c431","not_provided","0.5","desktop","0","0","1","","","","","","luck_game","","null","<div id=""score-counter"">TOTAL SCORE: &pound;0.00</div><div class=""experiment-container""><div class=""center-zone""><div class=""cross""></div>
                <div style=""position: absolute; z-index: 10; display: flex; flex-direction: column; align-items: center; justify-content: center;"">
                    <div class=""lose-text"" style=""font-size: 48px; font-weight: bold; margin-bottom: 20px; text-shadow: 2px 2px 4px #000;"">LOSE</div>
                    <img src=""images/coin_no_reward.png"" class=""reward-img"" style=""background-color: black; border-radius: 50%;"">
                    <div class=""lose-text"" style=""font-size: 48px; font-weight: bold; margin-top: 20px; text-shadow: 2px 2px 4px #000;"">-0.05&pound;</div>
                </div></div></div>","null","","","","","","","","","","","","","","","","","","","","","","","","","","","","","","","","","","","","",""
"html-keyboard-response","37","502986","0.0-4.0-37.0-0.0","699f4039ddf914372870c431","not_provided","0.5","desktop","0","0","1","","","","","","luck_game","","null","<div id=""score-counter"">TOTAL SCORE: &pound;0.00</div><div class=""experiment-container""><div class=""center-zone""><div class=""cross""></div></div></div>","null","","","","","","","","","","","","","","","","","","","","","","","","","","","","","","","","","","","","",""
"html-keyboard-response","38","503788","0.0-4.0-40.0","699f4039ddf914372870c431","not_provided","0.5","desktop","0","0","1","","","","","","luck_game","","801","<div id=""score-counter"">TOTAL SCORE: &pound;0.00</div><div class=""experiment-container""><div class=""center-zone""><div class=""cross""></div><div class=""triangle-grid""><div class=""machine top-center blue""></div><div class=""machine bottom-left green-outline""></div><div class=""machine bottom-right red-outline""></div></div></div></div>","arrowup","","","","gambling_choice","1","2","arrowup","top-center","blue","arrowright","bottom-right","red","[""arrowleft"",""arrowright""]","[""bottom-left"",""bottom-right""]","[""green"",""red""]","null","null","[""arrowup"",""arrowleft""]","[""top-center"",""bottom-left""]","[""blue"",""green""]","0","0","0","0","-0.05","-0.05","true","false","","","","","","","","",""
"html-keyboard-response","39","503892","0.0-4.0-41.0-0.0","699f4039ddf914372870c431","not_provided","0.5","desktop","0","0","1","","","","","","luck_game","","null","<div id=""score-counter"">TOTAL SCORE: &pound;0.00</div><div class=""experiment-container""><div class=""center-zone""><div class=""cross""></div><div class=""triangle-grid""><div class=""machine top-center blue""></div><div class=""machine bottom-left green-outline""></div><div class=""machine bottom-right red-outline""></div></div></div></div>","null","","","","","","","","","","","","","","","","","","","","","","","","","","","","","","","","","","","","",""
"html-keyboard-response","40","504400","0.0-4.0-42.0-0.0","699f4039ddf914372870c431","not_provided","0.5","desktop","0","0","1","","","","","","luck_game","","null","<div id=""score-counter"">TOTAL SCORE: &pound;0.00</div><div class=""experiment-container""><div class=""center-zone""><div class=""cross""></div></div></div>","null","","","","","","","","","","","","","","","","","","","","","","","","","","","","","","","","","","","","",""
"html-keyboard-response","41","505417","0.0-4.0-43.0-0.0","699f4039ddf914372870c431","not_provided","0.5","desktop","0","0","1","","","","","","luck_game","","null","<div id=""score-counter"">TOTAL SCORE: &pound;0.00</div><div class=""experiment-container""><div class=""center-zone""><div class=""cross""></div>
                <div style=""position: absolute; z-index: 10; display: flex; flex-direction: column; align-items: center; justify-content: center;"">
                    <div class=""lose-text"" style=""font-size: 48px; font-weight: bold; margin-bottom: 20px; text-shadow: 2px 2px 4px #000;"">LOSE</div>
                    <img src=""images/coin_no_reward.png"" class=""reward-img"" style=""background-color: black; border-radius: 50%;"">
                    <div class=""lose-text"" style=""font-size: 48px; font-weight: bold; margin-top: 20px; text-shadow: 2px 2px 4px #000;"">-0.05&pound;</div>
                </div></div></div>","null","","","","","","","","","","","","","","","","","","","","","","","","","","","","","","","","","","","","",""
"html-keyboard-response","42","506431","0.0-4.0-44.0-0.0","699f4039ddf914372870c431","not_provided","0.5","desktop","0","0","1","","","","","","luck_game","","null","<div id=""score-counter"">TOTAL SCORE: &pound;0.00</div><div class=""experiment-container""><div class=""center-zone""><div class=""cross""></div></div></div>","null","","","","","","","","","","","","","","","","","","","","","","","","","","","","","","","","","","","","",""
"html-keyboard-response","43","507129","0.0-4.0-47.0","699f4039ddf914372870c431","not_provided","0.5","desktop","0","0","1","","","","","","luck_game","","696","<div id=""score-counter"">TOTAL SCORE: &pound;0.00</div><div class=""experiment-container""><div class=""center-zone""><div class=""cross""></div><div class=""triangle-grid""><div class=""machine top-center blue""></div><div class=""machine bottom-left green-outline""></div><div class=""machine bottom-right red-outline""></div></div></div></div>","arrowup","","","","gambling_choice","1","3","arrowup","top-center","blue","arrowup","top-center","blue","[""arrowleft"",""arrowright""]","[""bottom-left"",""bottom-right""]","[""green"",""red""]","null","null","[""arrowleft"",""arrowright""]","[""bottom-left"",""bottom-right""]","[""green"",""red""]","0","1","0.05","0","0.05","-0.05","true","false","","","","","","","","",""
"html-keyboard-response","44","507241","0.0-4.0-48.0-0.0","699f4039ddf914372870c431","not_provided","0.5","desktop","0","0","1","","","","","","luck_game","","null","<div id=""score-counter"">TOTAL SCORE: &pound;0.00</div><div class=""experiment-container""><div class=""center-zone""><div class=""cross""></div><div class=""triangle-grid""><div class=""machine top-center blue""></div><div class=""machine bottom-left green-outline""></div><div class=""machine bottom-right red-outline""></div></div></div></div>","null","","","","","","","","","","","","","","","","","","","","","","","","","","","","","","","","","","","","",""
"html-keyboard-response","45","507748","0.0-4.0-49.0-0.0","699f4039ddf914372870c431","not_provided","0.5","desktop","0","0","1","","","","","","luck_game","","null","<div id=""score-counter"">TOTAL SCORE: &pound;0.00</div><div class=""experiment-container""><div class=""center-zone""><div class=""cross""></div></div></div>","null","","","","","","","","","","","","","","","","","","","","","","","","","","","","","","","","","","","","",""
"html-keyboard-response","46","508752","0.0-4.0-50.0-0.0","699f4039ddf914372870c431","not_provided","0.5","desktop","0","0","1","","","","","","luck_game","","null","<div id=""score-counter"">TOTAL SCORE: &pound;0.05</div><div class=""experiment-container""><div class=""center-zone""><div class=""cross""></div>
                <div style=""position: absolute; z-index: 10; display: flex; flex-direction: column; align-items: center; justify-content: center;"">
                    <div class=""win-text"" style=""font-size: 48px; font-weight: bold; margin-bottom: 20px; text-shadow: 2px 2px 4px #000;"">WIN</div>
                    <img src=""images/coin_reward.png"" class=""reward-img"" style=""background-color: black; border-radius: 50%;"">
                    <div class=""win-text"" style=""font-size: 48px; font-weight: bold; margin-top: 20px; text-shadow: 2px 2px 4px #000;"">+0.05&pound;</div>
                </div></div></div>","null","","","","","","","","","","","","","","","","","","","","","","","","","","","","","","","","","","","","",""
"html-keyboard-response","47","509765","0.0-4.0-51.0-0.0","699f4039ddf914372870c431","not_provided","0.5","desktop","0","0","1","","","","","","luck_game","","null","<div id=""score-counter"">TOTAL SCORE: &pound;0.05</div><div class=""experiment-container""><div class=""center-zone""><div class=""cross""></div></div></div>","null","","","","","","","","","","","","","","","","","","","","","","","","","","","","","","","","","","","","",""
"html-keyboard-response","48","510307","0.0-4.0-54.0","699f4039ddf914372870c431","not_provided","0.5","desktop","0","0","1","","","","","","luck_game","","541","<div id=""score-counter"">TOTAL SCORE: &pound;0.05</div><div class=""experiment-container""><div class=""center-zone""><div class=""cross""></div><div class=""triangle-grid""><div class=""machine top-center blue-outline""></div><div class=""machine bottom-left green-outline""></div><div class=""machine bottom-right red""></div></div></div></div>","arrowright","","","","gambling_choice","1","4","arrowright","bottom-right","red","arrowup","top-center","blue","[""arrowleft"",""arrowup""]","[""bottom-left"",""top-center""]","[""green"",""blue""]","null","null","[""arrowleft"",""arrowright""]","[""bottom-left"",""bottom-right""]","[""green"",""red""]","1","1","0.1","0.05","0.05","0.05","true","false","","","","","","","","",""
"html-keyboard-response","49","510419","0.0-4.0-55.0-0.0","699f4039ddf914372870c431","not_provided","0.5","desktop","0","0","1","","","","","","luck_game","","null","<div id=""score-counter"">TOTAL SCORE: &pound;0.05</div><div class=""experiment-container""><div class=""center-zone""><div class=""cross""></div><div class=""triangle-grid""><div class=""machine top-center blue-outline""></div><div class=""machine bottom-left green-outline""></div><div class=""machine bottom-right red""></div></div></div></div>","null","","","","","","","","","","","","","","","","","","","","","","","","","","","","","","","","","","","","",""
"html-keyboard-response","50","510927","0.0-4.0-56.0-0.0","699f4039ddf914372870c431","not_provided","0.5","desktop","0","0","1","","","","","","luck_game","","null","<div id=""score-counter"">TOTAL SCORE: &pound;0.05</div><div class=""experiment-container""><div class=""center-zone""><div class=""cross""></div></div></div>","null","","","","","","","","","","","","","","","","","","","","","","","","","","","","","","","","","","","","",""
"html-keyboard-response","51","511930","0.0-4.0-57.0-0.0","699f4039ddf914372870c431","not_provided","0.5","desktop","0","0","1","","","","","","luck_game","","null","<div id=""score-counter"">TOTAL SCORE: &pound;0.10</div><div class=""experiment-container""><div class=""center-zone""><div class=""cross""></div>
                <div style=""position: absolute; z-index: 10; display: flex; flex-direction: column; align-items: center; justify-content: center;"">
                    <div class=""win-text"" style=""font-size: 48px; font-weight: bold; margin-bottom: 20px; text-shadow: 2px 2px 4px #000;"">WIN</div>
                    <img src=""images/coin_reward.png"" class=""reward-img"" style=""background-color: black; border-radius: 50%;"">
                    <div class=""win-text"" style=""font-size: 48px; font-weight: bold; margin-top: 20px; text-shadow: 2px 2px 4px #000;"">+0.05&pound;</div>
                </div></div></div>","null","","","","","","","","","","","","","","","","","","","","","","","","","","","","","","","","","","","","",""
"html-keyboard-response","52","512944","0.0-4.0-58.0-0.0","699f4039ddf914372870c431","not_provided","0.5","desktop","0","0","1","","","","","","luck_game","","null","<div id=""score-counter"">TOTAL SCORE: &pound;0.10</div><div class=""experiment-container""><div class=""center-zone""><div class=""cross""></div></div></div>","null","","","","","","","","","","","","","","","","","","","","","","","","","","","","","","","","","","","","",""
"html-keyboard-response","53","513574","0.0-4.0-61.0","699f4039ddf914372870c431","not_provided","0.5","desktop","0","0","1","","","","","","luck_game","","629","<div id=""score-counter"">TOTAL SCORE: &pound;0.10</div><div class=""experiment-container""><div class=""center-zone""><div class=""cross""></div><div class=""triangle-grid""><div class=""machine top-center blue""></div><div class=""machine bottom-left green-outline""></div><div class=""machine bottom-right red-outline""></div></div></div></div>","arrowup","","","","gambling_choice","1","5","arrowup","top-center","blue","arrowright","bottom-right","red","[""arrowright"",""arrowleft""]","[""bottom-right"",""bottom-left""]","[""red"",""green""]","null","null","[""arrowleft"",""arrowup""]","[""bottom-left"",""top-center""]","[""green"",""blue""]","1","1","0.15","0.1","0.05","0.05","true","false","","","","","","","","",""
"html-keyboard-response","54","513691","0.0-4.0-62.0-0.0","699f4039ddf914372870c431","not_provided","0.5","desktop","0","0","1","","","","","","luck_game","","null","<div id=""score-counter"">TOTAL SCORE: &pound;0.10</div><div class=""experiment-container""><div class=""center-zone""><div class=""cross""></div><div class=""triangle-grid""><div class=""machine top-center blue""></div><div class=""machine bottom-left green-outline""></div><div class=""machine bottom-right red-outline""></div></div></div></div>","null","","","","","","","","","","","","","","","","","","","","","","","","","","","","","","","","","","","","",""
"html-keyboard-response","55","514196","0.0-4.0-63.0-0.0","699f4039ddf914372870c431","not_provided","0.5","desktop","0","0","1","","","","","","luck_game","","null","<div id=""score-counter"">TOTAL SCORE: &pound;0.10</div><div class=""experiment-container""><div class=""center-zone""><div class=""cross""></div></div></div>","null","","","","","","","","","","","","","","","","","","","","","","","","","","","","","","","","","","","","",""
"html-keyboard-response","56","515198","0.0-4.0-64.0-0.0","699f4039ddf914372870c431","not_provided","0.5","desktop","0","0","1","","","","","","luck_game","","null","<div id=""score-counter"">TOTAL SCORE: &pound;0.15</div><div class=""experiment-container""><div class=""center-zone""><div class=""cross""></div>
                <div style=""position: absolute; z-index: 10; display: flex; flex-direction: column; align-items: center; justify-content: center;"">
                    <div class=""win-text"" style=""font-size: 48px; font-weight: bold; margin-bottom: 20px; text-shadow: 2px 2px 4px #000;"">WIN</div>
                    <img src=""images/coin_reward.png"" class=""reward-img"" style=""background-color: black; border-radius: 50%;"">
                    <div class=""win-text"" style=""font-size: 48px; font-weight: bold; margin-top: 20px; text-shadow: 2px 2px 4px #000;"">+0.05&pound;</div>
                </div></div></div>","null","","","","","","","","","","","","","","","","","","","","","","","","","","","","","","","","","","","","",""
"html-keyboard-response","57","516212","0.0-4.0-65.0-0.0","699f4039ddf914372870c431","not_provided","0.5","desktop","0","0","1","","","","","","luck_game","","null","<div id=""score-counter"">TOTAL SCORE: &pound;0.15</div><div class=""experiment-container""><div class=""center-zone""><div class=""cross""></div></div></div>","null","","","","","","","","","","","","","","","","","","","","","","","","","","","","","","","","","","","","",""
"html-keyboard-response","58","516707","0.0-4.0-68.0","699f4039ddf914372870c431","not_provided","0.5","desktop","0","0","1","","","","","","luck_game","","494","<div id=""score-counter"">TOTAL SCORE: &pound;0.15</div><div class=""experiment-container""><div class=""center-zone""><div class=""cross""></div><div class=""triangle-grid""><div class=""machine top-center blue-outline""></div><div class=""machine bottom-left green-outline""></div><div class=""machine bottom-right red""></div></div></div></div>","arrowright","","","","gambling_choice","1","6","arrowright","bottom-right","red","arrowup","top-center","blue","[""arrowup"",""arrowleft""]","[""top-center"",""bottom-left""]","[""blue"",""green""]","null","null","[""arrowright"",""arrowleft""]","[""bottom-right"",""bottom-left""]","[""red"",""green""]","1","1","0.2","0.15","0.05","0.05","true","false","","","","","","","","",""
"html-keyboard-response","59","516811","0.0-4.0-69.0-0.0","699f4039ddf914372870c431","not_provided","0.5","desktop","0","0","1","","","","","","luck_game","","null","<div id=""score-counter"">TOTAL SCORE: &pound;0.15</div><div class=""experiment-container""><div class=""center-zone""><div class=""cross""></div><div class=""triangle-grid""><div class=""machine top-center blue-outline""></div><div class=""machine bottom-left green-outline""></div><div class=""machine bottom-right red""></div></div></div></div>","null","","","","","","","","","","","","","","","","","","","","","","","","","","","","","","","","","","","","",""
"html-keyboard-response","60","517321","0.0-4.0-70.0-0.0","699f4039ddf914372870c431","not_provided","0.5","desktop","0","0","1","","","","","","luck_game","","null","<div id=""score-counter"">TOTAL SCORE: &pound;0.15</div><div class=""experiment-container""><div class=""center-zone""><div class=""cross""></div></div></div>","null","","","","","","","","","","","","","","","","","","","","","","","","","","","","","","","","","","","","",""
"html-keyboard-response","61","518335","0.0-4.0-71.0-0.0","699f4039ddf914372870c431","not_provided","0.5","desktop","0","0","1","","","","","","luck_game","","null","<div id=""score-counter"">TOTAL SCORE: &pound;0.20</div><div class=""experiment-container""><div class=""center-zone""><div class=""cross""></div>
                <div style=""position: absolute; z-index: 10; display: flex; flex-direction: column; align-items: center; justify-content: center;"">
                    <div class=""win-text"" style=""font-size: 48px; font-weight: bold; margin-bottom: 20px; text-shadow: 2px 2px 4px #000;"">WIN</div>
                    <img src=""images/coin_reward.png"" class=""reward-img"" style=""background-color: black; border-radius: 50%;"">
                    <div class=""win-text"" style=""font-size: 48px; font-weight: bold; margin-top: 20px; text-shadow: 2px 2px 4px #000;"">+0.05&pound;</div>
                </div></div></div>","null","","","","","","","","","","","","","","","","","","","","","","","","","","","","","","","","","","","","",""
"html-keyboard-response","62","519346","0.0-4.0-72.0-0.0","699f4039ddf914372870c431","not_provided","0.5","desktop","0","0","1","","","","","","luck_game","","null","<div id=""score-counter"">TOTAL SCORE: &pound;0.20</div><div class=""experiment-container""><div class=""center-zone""><div class=""cross""></div></div></div>","null","","","","","","","","","","","","","","","","","","","","","","","","","","","","","","","","","","","","",""
"html-keyboard-response","63","519849","0.0-4.0-75.0","699f4039ddf914372870c431","not_provided","0.5","desktop","0","0","1","","","","","","luck_game","","502","<div id=""score-counter"">TOTAL SCORE: &pound;0.20</div><div class=""experiment-container""><div class=""center-zone""><div class=""cross""></div><div class=""triangle-grid""><div class=""machine top-center blue-outline""></div><div class=""machine bottom-left green-outline""></div><div class=""machine bottom-right red""></div></div></div></div>","arrowright","","","","gambling_choice","1","7","arrowright","bottom-right","red","arrowright","bottom-right","red","[""arrowleft"",""arrowup""]","[""bottom-left"",""top-center""]","[""green"",""blue""]","null","null","[""arrowup"",""arrowleft""]","[""top-center"",""bottom-left""]","[""blue"",""green""]","1","0","0.15","0.2","-0.05","0.05","true","false","","","","","","","","",""
"html-keyboard-response","64","519966","0.0-4.0-76.0-0.0","699f4039ddf914372870c431","not_provided","0.5","desktop","0","0","1","","","","","","luck_game","","null","<div id=""score-counter"">TOTAL SCORE: &pound;0.20</div><div class=""experiment-container""><div class=""center-zone""><div class=""cross""></div><div class=""triangle-grid""><div class=""machine top-center blue-outline""></div><div class=""machine bottom-left green-outline""></div><div class=""machine bottom-right red""></div></div></div></div>","null","","","","","","","","","","","","","","","","","","","","","","","","","","","","","","","","","","","","",""
"html-keyboard-response","65","520471","0.0-4.0-77.0-0.0","699f4039ddf914372870c431","not_provided","0.5","desktop","0","0","1","","","","","","luck_game","","null","<div id=""score-counter"">TOTAL SCORE: &pound;0.20</div><div class=""experiment-container""><div class=""center-zone""><div class=""cross""></div></div></div>","null","","","","","","","","","","","","","","","","","","","","","","","","","","","","","","","","","","","","",""
"html-keyboard-response","66","521472","0.0-4.0-78.0-0.0","699f4039ddf914372870c431","not_provided","0.5","desktop","0","0","1","","","","","","luck_game","","null","<div id=""score-counter"">TOTAL SCORE: &pound;0.15</div><div class=""experiment-container""><div class=""center-zone""><div class=""cross""></div>
                <div style=""position: absolute; z-index: 10; display: flex; flex-direction: column; align-items: center; justify-content: center;"">
                    <div class=""lose-text"" style=""font-size: 48px; font-weight: bold; margin-bottom: 20px; text-shadow: 2px 2px 4px #000;"">LOSE</div>
                    <img src=""images/coin_no_reward.png"" class=""reward-img"" style=""background-color: black; border-radius: 50%;"">
                    <div class=""lose-text"" style=""font-size: 48px; font-weight: bold; margin-top: 20px; text-shadow: 2px 2px 4px #000;"">-0.05&pound;</div>
                </div></div></div>","null","","","","","","","","","","","","","","","","","","","","","","","","","","","","","","","","","","","","",""
"html-keyboard-response","67","522475","0.0-4.0-79.0-0.0","699f4039ddf914372870c431","not_provided","0.5","desktop","0","0","1","","","","","","luck_game","","null","<div id=""score-counter"">TOTAL SCORE: &pound;0.15</div><div class=""experiment-container""><div class=""center-zone""><div class=""cross""></div></div></div>","null","","","","","","","","","","","","","","","","","","","","","","","","","","","","","","","","","","","","",""
"html-keyboard-response","68","523067","0.0-4.0-82.0","699f4039ddf914372870c431","not_provided","0.5","desktop","0","0","1","","","","","","luck_game","","591","<div id=""score-counter"">TOTAL SCORE: &pound;0.15</div><div class=""experiment-container""><div class=""center-zone""><div class=""cross""></div><div class=""triangle-grid""><div class=""machine top-center blue""></div><div class=""machine bottom-left green-outline""></div><div class=""machine bottom-right red-outline""></div></div></div></div>","arrowup","","","","gambling_choice","1","8","arrowup","top-center","blue","arrowright","bottom-right","red","[""arrowright"",""arrowleft""]","[""bottom-right"",""bottom-left""]","[""red"",""green""]","null","null","[""arrowleft"",""arrowup""]","[""bottom-left"",""top-center""]","[""green"",""blue""]","0","0","0.1","0.15","-0.05","-0.05","true","false","","","","","","","","",""
"html-keyboard-response","69","523170","0.0-4.0-83.0-0.0","699f4039ddf914372870c431","not_provided","0.5","desktop","0","0","1","","","","","","luck_game","","null","<div id=""score-counter"">TOTAL SCORE: &pound;0.15</div><div class=""experiment-container""><div class=""center-zone""><div class=""cross""></div><div class=""triangle-grid""><div class=""machine top-center blue""></div><div class=""machine bottom-left green-outline""></div><div class=""machine bottom-right red-outline""></div></div></div></div>","null","","","","","","","","","","","","","","","","","","","","","","","","","","","","","","","","","","","","",""
"html-keyboard-response","70","523678","0.0-4.0-84.0-0.0","699f4039ddf914372870c431","not_provided","0.5","desktop","0","0","1","","","","","","luck_game","","null","<div id=""score-counter"">TOTAL SCORE: &pound;0.15</div><div class=""experiment-container""><div class=""center-zone""><div class=""cross""></div></div></div>","null","","","","","","","","","","","","","","","","","","","","","","","","","","","","","","","","","","","","",""
"html-keyboard-response","71","524685","0.0-4.0-85.0-0.0","699f4039ddf914372870c431","not_provided","0.5","desktop","0","0","1","","","","","","luck_game","","null","<div id=""score-counter"">TOTAL SCORE: &pound;0.10</div><div class=""experiment-container""><div class=""center-zone""><div class=""cross""></div>
                <div style=""position: absolute; z-index: 10; display: flex; flex-direction: column; align-items: center; justify-content: center;"">
                    <div class=""lose-text"" style=""font-size: 48px; font-weight: bold; margin-bottom: 20px; text-shadow: 2px 2px 4px #000;"">LOSE</div>
                    <img src=""images/coin_no_reward.png"" class=""reward-img"" style=""background-color: black; border-radius: 50%;"">
                    <div class=""lose-text"" style=""font-size: 48px; font-weight: bold; margin-top: 20px; text-shadow: 2px 2px 4px #000;"">-0.05&pound;</div>
                </div></div></div>","null","","","","","","","","","","","","","","","","","","","","","","","","","","","","","","","","","","","","",""
"html-keyboard-response","72","525701","0.0-4.0-86.0-0.0","699f4039ddf914372870c431","not_provided","0.5","desktop","0","0","1","","","","","","luck_game","","null","<div id=""score-counter"">TOTAL SCORE: &pound;0.10</div><div class=""experiment-container""><div class=""center-zone""><div class=""cross""></div></div></div>","null","","","","","","","","","","","","","","","","","","","","","","","","","","","","","","","","","","","","",""
"html-keyboard-response","73","526195","0.0-4.0-89.0","699f4039ddf914372870c431","not_provided","0.5","desktop","0","0","1","","","","","","luck_game","","493","<div id=""score-counter"">TOTAL SCORE: &pound;0.10</div><div class=""experiment-container""><div class=""center-zone""><div class=""cross""></div><div class=""triangle-grid""><div class=""machine top-center blue-outline""></div><div class=""machine bottom-left green-outline""></div><div class=""machine bottom-right red""></div></div></div></div>","arrowright","","","","gambling_choice","1","9","arrowright","bottom-right","red","arrowup","top-center","blue","[""arrowup"",""arrowleft""]","[""top-center"",""bottom-left""]","[""blue"",""green""]","null","null","[""arrowright"",""arrowleft""]","[""bottom-right"",""bottom-left""]","[""red"",""green""]","0","0","0.05","0.1","-0.05","-0.05","true","false","","","","","","","","",""
"html-keyboard-response","74","526304","0.0-4.0-90.0-0.0","699f4039ddf914372870c431","not_provided","0.5","desktop","0","0","1","","","","","","luck_game","","null","<div id=""score-counter"">TOTAL SCORE: &pound;0.10</div><div class=""experiment-container""><div class=""center-zone""><div class=""cross""></div><div class=""triangle-grid""><div class=""machine top-center blue-outline""></div><div class=""machine bottom-left green-outline""></div><div class=""machine bottom-right red""></div></div></div></div>","null","","","","","","","","","","","","","","","","","","","","","","","","","","","","","","","","","","","","",""
"html-keyboard-response","75","526812","0.0-4.0-91.0-0.0","699f4039ddf914372870c431","not_provided","0.5","desktop","0","0","1","","","","","","luck_game","","null","<div id=""score-counter"">TOTAL SCORE: &pound;0.10</div><div class=""experiment-container""><div class=""center-zone""><div class=""cross""></div></div></div>","null","","","","","","","","","","","","","","","","","","","","","","","","","","","","","","","","","","","","",""
"html-keyboard-response","76","527823","0.0-4.0-92.0-0.0","699f4039ddf914372870c431","not_provided","0.5","desktop","0","0","1","","","","","","luck_game","","null","<div id=""score-counter"">TOTAL SCORE: &pound;0.05</div><div class=""experiment-container""><div class=""center-zone""><div class=""cross""></div>
                <div style=""position: absolute; z-index: 10; display: flex; flex-direction: column; align-items: center; justify-content: center;"">
                    <div class=""lose-text"" style=""font-size: 48px; font-weight: bold; margin-bottom: 20px; text-shadow: 2px 2px 4px #000;"">LOSE</div>
                    <img src=""images/coin_no_reward.png"" class=""reward-img"" style=""background-color: black; border-radius: 50%;"">
                    <div class=""lose-text"" style=""font-size: 48px; font-weight: bold; margin-top: 20px; text-shadow: 2px 2px 4px #000;"">-0.05&pound;</div>
                </div></div></div>","null","","","","","","","","","","","","","","","","","","","","","","","","","","","","","","","","","","","","",""
"html-keyboard-response","77","528833","0.0-4.0-93.0-0.0","699f4039ddf914372870c431","not_provided","0.5","desktop","0","0","1","","","","","","luck_game","","null","<div id=""score-counter"">TOTAL SCORE: &pound;0.05</div><div class=""experiment-container""><div class=""center-zone""><div class=""cross""></div></div></div>","null","","","","","","","","","","","","","","","","","","","","","","","","","","","","","","","","","","","","",""
"html-keyboard-response","78","529283","0.0-4.0-96.0","699f4039ddf914372870c431","not_provided","0.5","desktop","0","0","1","","","","","","luck_game","","448","<div id=""score-counter"">TOTAL SCORE: &pound;0.05</div><div class=""experiment-container""><div class=""center-zone""><div class=""cross""></div><div class=""triangle-grid""><div class=""machine top-center blue-outline""></div><div class=""machine bottom-left green-outline""></div><div class=""machine bottom-right red""></div></div></div></div>","arrowright","","","","gambling_choice","1","10","arrowright","bottom-right","red","arrowright","bottom-right","red","[""arrowleft"",""arrowup""]","[""bottom-left"",""top-center""]","[""green"",""blue""]","null","null","[""arrowup"",""arrowleft""]","[""top-center"",""bottom-left""]","[""blue"",""green""]","0","0","0","0.05","-0.05","-0.05","true","false","","","","","","","","",""
"html-keyboard-response","79","529387","0.0-4.0-97.0-0.0","699f4039ddf914372870c431","not_provided","0.5","desktop","0","0","1","","","","","","luck_game","","null","<div id=""score-counter"">TOTAL SCORE: &pound;0.05</div><div class=""experiment-container""><div class=""center-zone""><div class=""cross""></div><div class=""triangle-grid""><div class=""machine top-center blue-outline""></div><div class=""machine bottom-left green-outline""></div><div class=""machine bottom-right red""></div></div></div></div>","null","","","","","","","","","","","","","","","","","","","","","","","","","","","","","","","","","","","","",""
"html-keyboard-response","80","529895","0.0-4.0-98.0-0.0","699f4039ddf914372870c431","not_provided","0.5","desktop","0","0","1","","","","","","luck_game","","null","<div id=""score-counter"">TOTAL SCORE: &pound;0.05</div><div class=""experiment-container""><div class=""center-zone""><div class=""cross""></div></div></div>","null","","","","","","","","","","","","","","","","","","","","","","","","","","","","","","","","","","","","",""
"html-keyboard-response","81","530904","0.0-4.0-99.0-0.0","699f4039ddf914372870c431","not_provided","0.5","desktop","0","0","1","","","","","","luck_game","","null","<div id=""score-counter"">TOTAL SCORE: &pound;0.00</div><div class=""experiment-container""><div class=""center-zone""><div class=""cross""></div>
                <div style=""position: absolute; z-index: 10; display: flex; flex-direction: column; align-items: center; justify-content: center;"">
                    <div class=""lose-text"" style=""font-size: 48px; font-weight: bold; margin-bottom: 20px; text-shadow: 2px 2px 4px #000;"">LOSE</div>
                    <img src=""images/coin_no_reward.png"" class=""reward-img"" style=""background-color: black; border-radius: 50%;"">
                    <div class=""lose-text"" style=""font-size: 48px; font-weight: bold; margin-top: 20px; text-shadow: 2px 2px 4px #000;"">-0.05&pound;</div>
                </div></div></div>","null","","","","","","","","","","","","","","","","","","","","","","","","","","","","","","","","","","","","",""
"html-keyboard-response","82","531907","0.0-4.0-100.0-0.0","699f4039ddf914372870c431","not_provided","0.5","desktop","0","0","1","","","","","","luck_game","","null","<div id=""score-counter"">TOTAL SCORE: &pound;0.00</div><div class=""experiment-container""><div class=""center-zone""><div class=""cross""></div></div></div>","null","","","","","","","","","","","","","","","","","","","","","","","","","","","","","","","","","","","","",""
"html-keyboard-response","83","532358","0.0-4.0-103.0","699f4039ddf914372870c431","not_provided","0.5","desktop","0","0","1","","","","","","luck_game","","450","<div id=""score-counter"">TOTAL SCORE: &pound;0.00</div><div class=""experiment-container""><div class=""center-zone""><div class=""cross""></div><div class=""triangle-grid""><div class=""machine top-center blue-outline""></div><div class=""machine bottom-left green-outline""></div><div class=""machine bottom-right red""></div></div></div></div>","arrowright","","","","gambling_choice","1","11","arrowright","bottom-right","red","arrowright","bottom-right","red","[""arrowup"",""arrowleft""]","[""top-center"",""bottom-left""]","[""blue"",""green""]","null","null","[""arrowleft"",""arrowup""]","[""bottom-left"",""top-center""]","[""green"",""blue""]","0","1","0.05","0","0.05","-0.05","true","false","","","","","","","","",""
"html-keyboard-response","84","532463","0.0-4.0-104.0-0.0","699f4039ddf914372870c431","not_provided","0.5","desktop","0","0","1","","","","","","luck_game","","null","<div id=""score-counter"">TOTAL SCORE: &pound;0.00</div><div class=""experiment-container""><div class=""center-zone""><div class=""cross""></div><div class=""triangle-grid""><div class=""machine top-center blue-outline""></div><div class=""machine bottom-left green-outline""></div><div class=""machine bottom-right red""></div></div></div></div>","null","","","","","","","","","","","","","","","","","","","","","","","","","","","","","","","","","","","","",""
"html-keyboard-response","85","532968","0.0-4.0-105.0-0.0","699f4039ddf914372870c431","not_provided","0.5","desktop","0","0","1","","","","","","luck_game","","null","<div id=""score-counter"">TOTAL SCORE: &pound;0.00</div><div class=""experiment-container""><div class=""center-zone""><div class=""cross""></div></div></div>","null","","","","","","","","","","","","","","","","","","","","","","","","","","","","","","","","","","","","",""
"html-keyboard-response","86","533972","0.0-4.0-106.0-0.0","699f4039ddf914372870c431","not_provided","0.5","desktop","0","0","1","","","","","","luck_game","","null","<div id=""score-counter"">TOTAL SCORE: &pound;0.05</div><div class=""experiment-container""><div class=""center-zone""><div class=""cross""></div>
                <div style=""position: absolute; z-index: 10; display: flex; flex-direction: column; align-items: center; justify-content: center;"">
                    <div class=""win-text"" style=""font-size: 48px; font-weight: bold; margin-bottom: 20px; text-shadow: 2px 2px 4px #000;"">WIN</div>
                    <img src=""images/coin_reward.png"" class=""reward-img"" style=""background-color: black; border-radius: 50%;"">
                    <div class=""win-text"" style=""font-size: 48px; font-weight: bold; margin-top: 20px; text-shadow: 2px 2px 4px #000;"">+0.05&pound;</div>
                </div></div></div>","null","","","","","","","","","","","","","","","","","","","","","","","","","","","","","","","","","","","","",""
"html-keyboard-response","87","534975","0.0-4.0-107.0-0.0","699f4039ddf914372870c431","not_provided","0.5","desktop","0","0","1","","","","","","luck_game","","null","<div id=""score-counter"">TOTAL SCORE: &pound;0.05</div><div class=""experiment-container""><div class=""center-zone""><div class=""cross""></div></div></div>","null","","","","","","","","","","","","","","","","","","","","","","","","","","","","","","","","","","","","",""
"html-keyboard-response","88","535749","0.0-4.0-110.0","699f4039ddf914372870c431","not_provided","0.5","desktop","0","0","1","","","","","","luck_game","","772","<div id=""score-counter"">TOTAL SCORE: &pound;0.05</div><div class=""experiment-container""><div class=""center-zone""><div class=""cross""></div><div class=""triangle-grid""><div class=""machine top-center blue""></div><div class=""machine bottom-left green-outline""></div><div class=""machine bottom-right red-outline""></div></div></div></div>","arrowup","","","","gambling_choice","1","12","arrowup","top-center","blue","arrowright","bottom-right","red","[""arrowleft"",""arrowright""]","[""bottom-left"",""bottom-right""]","[""green"",""red""]","null","null","[""arrowup"",""arrowleft""]","[""top-center"",""bottom-left""]","[""blue"",""green""]","1","0","0","0.05","-0.05","0.05","true","false","","","","","","","","",""
"html-keyboard-response","89","535864","0.0-4.0-111.0-0.0","699f4039ddf914372870c431","not_provided","0.5","desktop","0","0","1","","","","","","luck_game","","null","<div id=""score-counter"">TOTAL SCORE: &pound;0.05</div><div class=""experiment-container""><div class=""center-zone""><div class=""cross""></div><div class=""triangle-grid""><div class=""machine top-center blue""></div><div class=""machine bottom-left green-outline""></div><div class=""machine bottom-right red-outline""></div></div></div></div>","null","","","","","","","","","","","","","","","","","","","","","","","","","","","","","","","","","","","","",""
"html-keyboard-response","90","536371","0.0-4.0-112.0-0.0","699f4039ddf914372870c431","not_provided","0.5","desktop","0","0","1","","","","","","luck_game","","null","<div id=""score-counter"">TOTAL SCORE: &pound;0.05</div><div class=""experiment-container""><div class=""center-zone""><div class=""cross""></div></div></div>","null","","","","","","","","","","","","","","","","","","","","","","","","","","","","","","","","","","","","",""
"html-keyboard-response","91","537378","0.0-4.0-113.0-0.0","699f4039ddf914372870c431","not_provided","0.5","desktop","0","0","1","","","","","","luck_game","","null","<div id=""score-counter"">TOTAL SCORE: &pound;0.00</div><div class=""experiment-container""><div class=""center-zone""><div class=""cross""></div>
                <div style=""position: absolute; z-index: 10; display: flex; flex-direction: column; align-items: center; justify-content: center;"">
                    <div class=""lose-text"" style=""font-size: 48px; font-weight: bold; margin-bottom: 20px; text-shadow: 2px 2px 4px #000;"">LOSE</div>
                    <img src=""images/coin_no_reward.png"" class=""reward-img"" style=""background-color: black; border-radius: 50%;"">
                    <div class=""lose-text"" style=""font-size: 48px; font-weight: bold; margin-top: 20px; text-shadow: 2px 2px 4px #000;"">-0.05&pound;</div>
                </div></div></div>","null","","","","","","","","","","","","","","","","","","","","","","","","","","","","","","","","","","","","",""
"html-keyboard-response","92","538380","0.0-4.0-114.0-0.0","699f4039ddf914372870c431","not_provided","0.5","desktop","0","0","1","","","","","","luck_game","","null","<div id=""score-counter"">TOTAL SCORE: &pound;0.00</div><div class=""experiment-container""><div class=""center-zone""><div class=""cross""></div></div></div>","null","","","","","","","","","","","","","","","","","","","","","","","","","","","","","","","","","","","","",""
"html-keyboard-response","93","538998","0.0-4.0-117.0","699f4039ddf914372870c431","not_provided","0.5","desktop","0","0","1","","","","","","luck_game","","616","<div id=""score-counter"">TOTAL SCORE: &pound;0.00</div><div class=""experiment-container""><div class=""center-zone""><div class=""cross""></div><div class=""triangle-grid""><div class=""machine top-center blue""></div><div class=""machine bottom-left green-outline""></div><div class=""machine bottom-right red-outline""></div></div></div></div>","arrowup","","","","gambling_choice","1","13","arrowup","top-center","blue","arrowup","top-center","blue","[""arrowright"",""arrowleft""]","[""bottom-right"",""bottom-left""]","[""red"",""green""]","null","null","[""arrowleft"",""arrowright""]","[""bottom-left"",""bottom-right""]","[""green"",""red""]","0","1","0.05","0","0.05","-0.05","true","false","","","","","","","","",""
"html-keyboard-response","94","539099","0.0-4.0-118.0-0.0","699f4039ddf914372870c431","not_provided","0.5","desktop","0","0","1","","","","","","luck_game","","null","<div id=""score-counter"">TOTAL SCORE: &pound;0.00</div><div class=""experiment-container""><div class=""center-zone""><div class=""cross""></div><div class=""triangle-grid""><div class=""machine top-center blue""></div><div class=""machine bottom-left green-outline""></div><div class=""machine bottom-right red-outline""></div></div></div></div>","null","","","","","","","","","","","","","","","","","","","","","","","","","","","","","","","","","","","","",""
"html-keyboard-response","95","539601","0.0-4.0-119.0-0.0","699f4039ddf914372870c431","not_provided","0.5","desktop","0","0","1","","","","","","luck_game","","null","<div id=""score-counter"">TOTAL SCORE: &pound;0.00</div><div class=""experiment-container""><div class=""center-zone""><div class=""cross""></div></div></div>","null","","","","","","","","","","","","","","","","","","","","","","","","","","","","","","","","","","","","",""
"html-keyboard-response","96","540617","0.0-4.0-120.0-0.0","699f4039ddf914372870c431","not_provided","0.5","desktop","0","0","1","","","","","","luck_game","","null","<div id=""score-counter"">TOTAL SCORE: &pound;0.05</div><div class=""experiment-container""><div class=""center-zone""><div class=""cross""></div>
                <div style=""position: absolute; z-index: 10; display: flex; flex-direction: column; align-items: center; justify-content: center;"">
                    <div class=""win-text"" style=""font-size: 48px; font-weight: bold; margin-bottom: 20px; text-shadow: 2px 2px 4px #000;"">WIN</div>
                    <img src=""images/coin_reward.png"" class=""reward-img"" style=""background-color: black; border-radius: 50%;"">
                    <div class=""win-text"" style=""font-size: 48px; font-weight: bold; margin-top: 20px; text-shadow: 2px 2px 4px #000;"">+0.05&pound;</div>
                </div></div></div>","null","","","","","","","","","","","","","","","","","","","","","","","","","","","","","","","","","","","","",""
"html-keyboard-response","97","541620","0.0-4.0-121.0-0.0","699f4039ddf914372870c431","not_provided","0.5","desktop","0","0","1","","","","","","luck_game","","null","<div id=""score-counter"">TOTAL SCORE: &pound;0.05</div><div class=""experiment-container""><div class=""center-zone""><div class=""cross""></div></div></div>","null","","","","","","","","","","","","","","","","","","","","","","","","","","","","","","","","","","","","",""
"html-keyboard-response","98","542237","0.0-4.0-124.0","699f4039ddf914372870c431","not_provided","0.5","desktop","0","0","1","","","","","","luck_game","","615","<div id=""score-counter"">TOTAL SCORE: &pound;0.05</div><div class=""experiment-container""><div class=""center-zone""><div class=""cross""></div><div class=""triangle-grid""><div class=""machine top-center blue""></div><div class=""machine bottom-left green-outline""></div><div class=""machine bottom-right red-outline""></div></div></div></div>","arrowup","","","","gambling_choice","1","14","arrowup","top-center","blue","arrowup","top-center","blue","[""arrowright"",""arrowleft""]","[""bottom-right"",""bottom-left""]","[""red"",""green""]","null","null","[""arrowright"",""arrowleft""]","[""bottom-right"",""bottom-left""]","[""red"",""green""]","1","1","0.1","0.05","0.05","0.05","true","false","","","","","","","","",""
"html-keyboard-response","99","542353","0.0-4.0-125.0-0.0","699f4039ddf914372870c431","not_provided","0.5","desktop","0","0","1","","","","","","luck_game","","null","<div id=""score-counter"">TOTAL SCORE: &pound;0.05</div><div class=""experiment-container""><div class=""center-zone""><div class=""cross""></div><div class=""triangle-grid""><div class=""machine top-center blue""></div><div class=""machine bottom-left green-outline""></div><div class=""machine bottom-right red-outline""></div></div></div></div>","null","","","","","","","","","","","","","","","","","","","","","","","","","","","","","","","","","","","","",""
"html-keyboard-response","100","542859","0.0-4.0-126.0-0.0","699f4039ddf914372870c431","not_provided","0.5","desktop","0","0","1","","","","","","luck_game","","null","<div id=""score-counter"">TOTAL SCORE: &pound;0.05</div><div class=""experiment-container""><div class=""center-zone""><div class=""cross""></div></div></div>","null","","","","","","","","","","","","","","","","","","","","","","","","","","","","","","","","","","","","",""
"html-keyboard-response","101","543875","0.0-4.0-127.0-0.0","699f4039ddf914372870c431","not_provided","0.5","desktop","0","0","1","","","","","","luck_game","","null","<div id=""score-counter"">TOTAL SCORE: &pound;0.10</div><div class=""experiment-container""><div class=""center-zone""><div class=""cross""></div>
                <div style=""position: absolute; z-index: 10; display: flex; flex-direction: column; align-items: center; justify-content: center;"">
                    <div class=""win-text"" style=""font-size: 48px; font-weight: bold; margin-bottom: 20px; text-shadow: 2px 2px 4px #000;"">WIN</div>
                    <img src=""images/coin_reward.png"" class=""reward-img"" style=""background-color: black; border-radius: 50%;"">
                    <div class=""win-text"" style=""font-size: 48px; font-weight: bold; margin-top: 20px; text-shadow: 2px 2px 4px #000;"">+0.05&pound;</div>
                </div></div></div>","null","","","","","","","","","","","","","","","","","","","","","","","","","","","","","","","","","","","","",""
"html-keyboard-response","102","544889","0.0-4.0-128.0-0.0","699f4039ddf914372870c431","not_provided","0.5","desktop","0","0","1","","","","","","luck_game","","null","<div id=""score-counter"">TOTAL SCORE: &pound;0.10</div><div class=""experiment-container""><div class=""center-zone""><div class=""cross""></div></div></div>","null","","","","","","","","","","","","","","","","","","","","","","","","","","","","","","","","","","","","",""
"html-keyboard-response","103","545510","0.0-4.0-131.0","699f4039ddf914372870c431","not_provided","0.5","desktop","0","0","1","","","","","","luck_game","","620","<div id=""score-counter"">TOTAL SCORE: &pound;0.10</div><div class=""experiment-container""><div class=""center-zone""><div class=""cross""></div><div class=""triangle-grid""><div class=""machine top-center blue-outline""></div><div class=""machine bottom-left green""></div><div class=""machine bottom-right red-outline""></div></div></div></div>","arrowleft","","","","gambling_choice","1","15","arrowleft","bottom-left","green","arrowup","top-center","blue","[""arrowright"",""arrowup""]","[""bottom-right"",""top-center""]","[""red"",""blue""]","null","null","[""arrowright"",""arrowleft""]","[""bottom-right"",""bottom-left""]","[""red"",""green""]","1","1","0.15","0.1","0.05","0.05","true","false","","","","","","","","",""
"html-keyboard-response","104","545620","0.0-4.0-132.0-0.0","699f4039ddf914372870c431","not_provided","0.5","desktop","0","0","1","","","","","","luck_game","","null","<div id=""score-counter"">TOTAL SCORE: &pound;0.10</div><div class=""experiment-container""><div class=""center-zone""><div class=""cross""></div><div class=""triangle-grid""><div class=""machine top-center blue-outline""></div><div class=""machine bottom-left green""></div><div class=""machine bottom-right red-outline""></div></div></div></div>","null","","","","","","","","","","","","","","","","","","","","","","","","","","","","","","","","","","","","",""
"html-keyboard-response","105","546129","0.0-4.0-133.0-0.0","699f4039ddf914372870c431","not_provided","0.5","desktop","0","0","1","","","","","","luck_game","","null","<div id=""score-counter"">TOTAL SCORE: &pound;0.10</div><div class=""experiment-container""><div class=""center-zone""><div class=""cross""></div></div></div>","null","","","","","","","","","","","","","","","","","","","","","","","","","","","","","","","","","","","","",""
"html-keyboard-response","106","547132","0.0-4.0-134.0-0.0","699f4039ddf914372870c431","not_provided","0.5","desktop","0","0","1","","","","","","luck_game","","null","<div id=""score-counter"">TOTAL SCORE: &pound;0.15</div><div class=""experiment-container""><div class=""center-zone""><div class=""cross""></div>
                <div style=""position: absolute; z-index: 10; display: flex; flex-direction: column; align-items: center; justify-content: center;"">
                    <div class=""win-text"" style=""font-size: 48px; font-weight: bold; margin-bottom: 20px; text-shadow: 2px 2px 4px #000;"">WIN</div>
                    <img src=""images/coin_reward.png"" class=""reward-img"" style=""background-color: black; border-radius: 50%;"">
                    <div class=""win-text"" style=""font-size: 48px; font-weight: bold; margin-top: 20px; text-shadow: 2px 2px 4px #000;"">+0.05&pound;</div>
                </div></div></div>","null","","","","","","","","","","","","","","","","","","","","","","","","","","","","","","","","","","","","",""
"html-keyboard-response","107","548147","0.0-4.0-135.0-0.0","699f4039ddf914372870c431","not_provided","0.5","desktop","0","0","1","","","","","","luck_game","","null","<div id=""score-counter"">TOTAL SCORE: &pound;0.15</div><div class=""experiment-container""><div class=""center-zone""><div class=""cross""></div></div></div>","null","","","","","","","","","","","","","","","","","","","","","","","","","","","","","","","","","","","","",""
"html-keyboard-response","108","548766","0.0-4.0-138.0","699f4039ddf914372870c431","not_provided","0.5","desktop","0","0","1","","","","","","luck_game","","618","<div id=""score-counter"">TOTAL SCORE: &pound;0.15</div><div class=""experiment-container""><div class=""center-zone""><div class=""cross""></div><div class=""triangle-grid""><div class=""machine top-center blue""></div><div class=""machine bottom-left green-outline""></div><div class=""machine bottom-right red-outline""></div></div></div></div>","arrowup","","","","gambling_choice","1","16","arrowup","top-center","blue","arrowleft","bottom-left","green","[""arrowleft"",""arrowright""]","[""bottom-left"",""bottom-right""]","[""green"",""red""]","null","null","[""arrowright"",""arrowup""]","[""bottom-right"",""top-center""]","[""red"",""blue""]","1","1","0.2","0.15","0.05","0.05","true","false","","","","","","","","",""
"html-keyboard-response","109","548870","0.0-4.0-139.0-0.0","699f4039ddf914372870c431","not_provided","0.5","desktop","0","0","1","","","","","","luck_game","","null","<div id=""score-counter"">TOTAL SCORE: &pound;0.15</div><div class=""experiment-container""><div class=""center-zone""><div class=""cross""></div><div class=""triangle-grid""><div class=""machine top-center blue""></div><div class=""machine bottom-left green-outline""></div><div class=""machine bottom-right red-outline""></div></div></div></div>","null","","","","","","","","","","","","","","","","","","","","","","","","","","","","","","","","","","","","",""
"html-keyboard-response","110","549374","0.0-4.0-140.0-0.0","699f4039ddf914372870c431","not_provided","0.5","desktop","0","0","1","","","","","","luck_game","","null","<div id=""score-counter"">TOTAL SCORE: &pound;0.15</div><div class=""experiment-container""><div class=""center-zone""><div class=""cross""></div></div></div>","null","","","","","","","","","","","","","","","","","","","","","","","","","","","","","","","","","","","","",""
"html-keyboard-response","111","550389","0.0-4.0-141.0-0.0","699f4039ddf914372870c431","not_provided","0.5","desktop","0","0","1","","","","","","luck_game","","null","<div id=""score-counter"">TOTAL SCORE: &pound;0.20</div><div class=""experiment-container""><div class=""center-zone""><div class=""cross""></div>
                <div style=""position: absolute; z-index: 10; display: flex; flex-direction: column; align-items: center; justify-content: center;"">
                    <div class=""win-text"" style=""font-size: 48px; font-weight: bold; margin-bottom: 20px; text-shadow: 2px 2px 4px #000;"">WIN</div>
                    <img src=""images/coin_reward.png"" class=""reward-img"" style=""background-color: black; border-radius: 50%;"">
                    <div class=""win-text"" style=""font-size: 48px; font-weight: bold; margin-top: 20px; text-shadow: 2px 2px 4px #000;"">+0.05&pound;</div>
                </div></div></div>","null","","","","","","","","","","","","","","","","","","","","","","","","","","","","","","","","","","","","",""
"html-keyboard-response","112","551403","0.0-4.0-142.0-0.0","699f4039ddf914372870c431","not_provided","0.5","desktop","0","0","1","","","","","","luck_game","","null","<div id=""score-counter"">TOTAL SCORE: &pound;0.20</div><div class=""experiment-container""><div class=""center-zone""><div class=""cross""></div></div></div>","null","","","","","","","","","","","","","","","","","","","","","","","","","","","","","","","","","","","","",""
"html-keyboard-response","113","551905","0.0-4.0-145.0","699f4039ddf914372870c431","not_provided","0.5","desktop","0","0","1","","","","","","luck_game","","501","<div id=""score-counter"">TOTAL SCORE: &pound;0.20</div><div class=""experiment-container""><div class=""center-zone""><div class=""cross""></div><div class=""triangle-grid""><div class=""machine top-center blue-outline""></div><div class=""machine bottom-left green-outline""></div><div class=""machine bottom-right red""></div></div></div></div>","arrowright","","","","gambling_choice","1","17","arrowright","bottom-right","red","arrowup","top-center","blue","[""arrowup"",""arrowleft""]","[""top-center"",""bottom-left""]","[""blue"",""green""]","null","null","[""arrowleft"",""arrowright""]","[""bottom-left"",""bottom-right""]","[""green"",""red""]","1","1","0.25","0.2","0.05","0.05","true","false","","","","","","","","",""
"html-keyboard-response","114","552007","0.0-4.0-146.0-0.0","699f4039ddf914372870c431","not_provided","0.5","desktop","0","0","1","","","","","","luck_game","","null","<div id=""score-counter"">TOTAL SCORE: &pound;0.20</div><div class=""experiment-container""><div class=""center-zone""><div class=""cross""></div><div class=""triangle-grid""><div class=""machine top-center blue-outline""></div><div class=""machine bottom-left green-outline""></div><div class=""machine bottom-right red""></div></div></div></div>","null","","","","","","","","","","","","","","","","","","","","","","","","","","","","","","","","","","","","",""
"html-keyboard-response","115","552514","0.0-4.0-147.0-0.0","699f4039ddf914372870c431","not_provided","0.5","desktop","0","0","1","","","","","","luck_game","","null","<div id=""score-counter"">TOTAL SCORE: &pound;0.20</div><div class=""experiment-container""><div class=""center-zone""><div class=""cross""></div></div></div>","null","","","","","","","","","","","","","","","","","","","","","","","","","","","","","","","","","","","","",""
"html-keyboard-response","116","553517","0.0-4.0-148.0-0.0","699f4039ddf914372870c431","not_provided","0.5","desktop","0","0","1","","","","","","luck_game","","null","<div id=""score-counter"">TOTAL SCORE: &pound;0.25</div><div class=""experiment-container""><div class=""center-zone""><div class=""cross""></div>
                <div style=""position: absolute; z-index: 10; display: flex; flex-direction: column; align-items: center; justify-content: center;"">
                    <div class=""win-text"" style=""font-size: 48px; font-weight: bold; margin-bottom: 20px; text-shadow: 2px 2px 4px #000;"">WIN</div>
                    <img src=""images/coin_reward.png"" class=""reward-img"" style=""background-color: black; border-radius: 50%;"">
                    <div class=""win-text"" style=""font-size: 48px; font-weight: bold; margin-top: 20px; text-shadow: 2px 2px 4px #000;"">+0.05&pound;</div>
                </div></div></div>","null","","","","","","","","","","","","","","","","","","","","","","","","","","","","","","","","","","","","",""
"html-keyboard-response","117","554519","0.0-4.0-149.0-0.0","699f4039ddf914372870c431","not_provided","0.5","desktop","0","0","1","","","","","","luck_game","","null","<div id=""score-counter"">TOTAL SCORE: &pound;0.25</div><div class=""experiment-container""><div class=""center-zone""><div class=""cross""></div></div></div>","null","","","","","","","","","","","","","","","","","","","","","","","","","","","","","","","","","","","","",""
"html-keyboard-response","118","554971","0.0-4.0-152.0","699f4039ddf914372870c431","not_provided","0.5","desktop","0","0","1","","","","","","luck_game","","451","<div id=""score-counter"">TOTAL SCORE: &pound;0.25</div><div class=""experiment-container""><div class=""center-zone""><div class=""cross""></div><div class=""triangle-grid""><div class=""machine top-center blue-outline""></div><div class=""machine bottom-left green-outline""></div><div class=""machine bottom-right red""></div></div></div></div>","arrowright","","","","gambling_choice","1","18","arrowright","bottom-right","red","arrowright","bottom-right","red","[""arrowup"",""arrowleft""]","[""top-center"",""bottom-left""]","[""blue"",""green""]","null","null","[""arrowup"",""arrowleft""]","[""top-center"",""bottom-left""]","[""blue"",""green""]","1","1","0.3","0.25","0.05","0.05","true","false","","","","","","","","",""
"html-keyboard-response","119","555074","0.0-4.0-153.0-0.0","699f4039ddf914372870c431","not_provided","0.5","desktop","0","0","1","","","","","","luck_game","","null","<div id=""score-counter"">TOTAL SCORE: &pound;0.25</div><div class=""experiment-container""><div class=""center-zone""><div class=""cross""></div><div class=""triangle-grid""><div class=""machine top-center blue-outline""></div><div class=""machine bottom-left green-outline""></div><div class=""machine bottom-right red""></div></div></div></div>","null","","","","","","","","","","","","","","","","","","","","","","","","","","","","","","","","","","","","",""
"html-keyboard-response","120","555582","0.0-4.0-154.0-0.0","699f4039ddf914372870c431","not_provided","0.5","desktop","0","0","1","","","","","","luck_game","","null","<div id=""score-counter"">TOTAL SCORE: &pound;0.25</div><div class=""experiment-container""><div class=""center-zone""><div class=""cross""></div></div></div>","null","","","","","","","","","","","","","","","","","","","","","","","","","","","","","","","","","","","","",""
"html-keyboard-response","121","556598","0.0-4.0-155.0-0.0","699f4039ddf914372870c431","not_provided","0.5","desktop","0","0","1","","","","","","luck_game","","null","<div id=""score-counter"">TOTAL SCORE: &pound;0.30</div><div class=""experiment-container""><div class=""center-zone""><div class=""cross""></div>
                <div style=""position: absolute; z-index: 10; display: flex; flex-direction: column; align-items: center; justify-content: center;"">
                    <div class=""win-text"" style=""font-size: 48px; font-weight: bold; margin-bottom: 20px; text-shadow: 2px 2px 4px #000;"">WIN</div>
                    <img src=""images/coin_reward.png"" class=""reward-img"" style=""background-color: black; border-radius: 50%;"">
                    <div class=""win-text"" style=""font-size: 48px; font-weight: bold; margin-top: 20px; text-shadow: 2px 2px 4px #000;"">+0.05&pound;</div>
                </div></div></div>","null","","","","","","","","","","","","","","","","","","","","","","","","","","","","","","","","","","","","",""
"html-keyboard-response","122","557615","0.0-4.0-156.0-0.0","699f4039ddf914372870c431","not_provided","0.5","desktop","0","0","1","","","","","","luck_game","","null","<div id=""score-counter"">TOTAL SCORE: &pound;0.30</div><div class=""experiment-container""><div class=""center-zone""><div class=""cross""></div></div></div>","null","","","","","","","","","","","","","","","","","","","","","","","","","","","","","","","","","","","","",""
"html-keyboard-response","123","558277","0.0-4.0-159.0","699f4039ddf914372870c431","not_provided","0.5","desktop","0","0","1","","","","","","luck_game","","661","<div id=""score-counter"">TOTAL SCORE: &pound;0.30</div><div class=""experiment-container""><div class=""center-zone""><div class=""cross""></div><div class=""triangle-grid""><div class=""machine top-center blue""></div><div class=""machine bottom-left green-outline""></div><div class=""machine bottom-right red-outline""></div></div></div></div>","arrowup","","","","gambling_choice","1","19","arrowup","top-center","blue","arrowright","bottom-right","red","[""arrowleft"",""arrowright""]","[""bottom-left"",""bottom-right""]","[""green"",""red""]","null","null","[""arrowup"",""arrowleft""]","[""top-center"",""bottom-left""]","[""blue"",""green""]","1","0","0.25","0.3","-0.05","0.05","true","false","","","","","","","","",""
"html-keyboard-response","124","558391","0.0-4.0-160.0-0.0","699f4039ddf914372870c431","not_provided","0.5","desktop","0","0","1","","","","","","luck_game","","null","<div id=""score-counter"">TOTAL SCORE: &pound;0.30</div><div class=""experiment-container""><div class=""center-zone""><div class=""cross""></div><div class=""triangle-grid""><div class=""machine top-center blue""></div><div class=""machine bottom-left green-outline""></div><div class=""machine bottom-right red-outline""></div></div></div></div>","null","","","","","","","","","","","","","","","","","","","","","","","","","","","","","","","","","","","","",""
"html-keyboard-response","125","558901","0.0-4.0-161.0-0.0","699f4039ddf914372870c431","not_provided","0.5","desktop","0","0","1","","","","","","luck_game","","null","<div id=""score-counter"">TOTAL SCORE: &pound;0.30</div><div class=""experiment-container""><div class=""center-zone""><div class=""cross""></div></div></div>","null","","","","","","","","","","","","","","","","","","","","","","","","","","","","","","","","","","","","",""
"html-keyboard-response","126","559913","0.0-4.0-162.0-0.0","699f4039ddf914372870c431","not_provided","0.5","desktop","0","0","1","","","","","","luck_game","","null","<div id=""score-counter"">TOTAL SCORE: &pound;0.25</div><div class=""experiment-container""><div class=""center-zone""><div class=""cross""></div>
                <div style=""position: absolute; z-index: 10; display: flex; flex-direction: column; align-items: center; justify-content: center;"">
                    <div class=""lose-text"" style=""font-size: 48px; font-weight: bold; margin-bottom: 20px; text-shadow: 2px 2px 4px #000;"">LOSE</div>
                    <img src=""images/coin_no_reward.png"" class=""reward-img"" style=""background-color: black; border-radius: 50%;"">
                    <div class=""lose-text"" style=""font-size: 48px; font-weight: bold; margin-top: 20px; text-shadow: 2px 2px 4px #000;"">-0.05&pound;</div>
                </div></div></div>","null","","","","","","","","","","","","","","","","","","","","","","","","","","","","","","","","","","","","",""
"html-keyboard-response","127","560927","0.0-4.0-163.0-0.0","699f4039ddf914372870c431","not_provided","0.5","desktop","0","0","1","","","","","","luck_game","","null","<div id=""score-counter"">TOTAL SCORE: &pound;0.25</div><div class=""experiment-container""><div class=""center-zone""><div class=""cross""></div></div></div>","null","","","","","","","","","","","","","","","","","","","","","","","","","","","","","","","","","","","","",""
"html-keyboard-response","128","561629","0.0-4.0-166.0","699f4039ddf914372870c431","not_provided","0.5","desktop","0","0","1","","","","","","luck_game","","700","<div id=""score-counter"">TOTAL SCORE: &pound;0.25</div><div class=""experiment-container""><div class=""center-zone""><div class=""cross""></div><div class=""triangle-grid""><div class=""machine top-center blue""></div><div class=""machine bottom-left green-outline""></div><div class=""machine bottom-right red-outline""></div></div></div></div>","arrowup","","","","gambling_choice","1","20","arrowup","top-center","blue","arrowup","top-center","blue","[""arrowright"",""arrowleft""]","[""bottom-right"",""bottom-left""]","[""red"",""green""]","null","null","[""arrowleft"",""arrowright""]","[""bottom-left"",""bottom-right""]","[""green"",""red""]","0","0","0.2","0.25","-0.05","-0.05","true","false","","","","","","","","",""
"html-keyboard-response","129","561734","0.0-4.0-167.0-0.0","699f4039ddf914372870c431","not_provided","0.5","desktop","0","0","1","","","","","","luck_game","","null","<div id=""score-counter"">TOTAL SCORE: &pound;0.25</div><div class=""experiment-container""><div class=""center-zone""><div class=""cross""></div><div class=""triangle-grid""><div class=""machine top-center blue""></div><div class=""machine bottom-left green-outline""></div><div class=""machine bottom-right red-outline""></div></div></div></div>","null","","","","","","","","","","","","","","","","","","","","","","","","","","","","","","","","","","","","",""
"html-keyboard-response","130","562242","0.0-4.0-168.0-0.0","699f4039ddf914372870c431","not_provided","0.5","desktop","0","0","1","","","","","","luck_game","","null","<div id=""score-counter"">TOTAL SCORE: &pound;0.25</div><div class=""experiment-container""><div class=""center-zone""><div class=""cross""></div></div></div>","null","","","","","","","","","","","","","","","","","","","","","","","","","","","","","","","","","","","","",""
"html-keyboard-response","131","563259","0.0-4.0-169.0-0.0","699f4039ddf914372870c431","not_provided","0.5","desktop","0","0","1","","","","","","luck_game","","null","<div id=""score-counter"">TOTAL SCORE: &pound;0.20</div><div class=""experiment-container""><div class=""center-zone""><div class=""cross""></div>
                <div style=""position: absolute; z-index: 10; display: flex; flex-direction: column; align-items: center; justify-content: center;"">
                    <div class=""lose-text"" style=""font-size: 48px; font-weight: bold; margin-bottom: 20px; text-shadow: 2px 2px 4px #000;"">LOSE</div>
                    <img src=""images/coin_no_reward.png"" class=""reward-img"" style=""background-color: black; border-radius: 50%;"">
                    <div class=""lose-text"" style=""font-size: 48px; font-weight: bold; margin-top: 20px; text-shadow: 2px 2px 4px #000;"">-0.05&pound;</div>
                </div></div></div>","null","","","","","","","","","","","","","","","","","","","","","","","","","","","","","","","","","","","","",""
"html-keyboard-response","132","564263","0.0-4.0-170.0-0.0","699f4039ddf914372870c431","not_provided","0.5","desktop","0","0","1","","","","","","luck_game","","null","<div id=""score-counter"">TOTAL SCORE: &pound;0.20</div><div class=""experiment-container""><div class=""center-zone""><div class=""cross""></div></div></div>","null","","","","","","","","","","","","","","","","","","","","","","","","","","","","","","","","","","","","",""
"html-keyboard-response","133","564662","0.0-4.0-173.0","699f4039ddf914372870c431","not_provided","0.5","desktop","0","0","1","","","","","","luck_game","","398","<div id=""score-counter"">TOTAL SCORE: &pound;0.20</div><div class=""experiment-container""><div class=""center-zone""><div class=""cross""></div><div class=""triangle-grid""><div class=""machine top-center blue-outline""></div><div class=""machine bottom-left green-outline""></div><div class=""machine bottom-right red""></div></div></div></div>","arrowright","","","","gambling_choice","1","21","arrowright","bottom-right","red","arrowup","top-center","blue","[""arrowup"",""arrowleft""]","[""top-center"",""bottom-left""]","[""blue"",""green""]","null","null","[""arrowright"",""arrowleft""]","[""bottom-right"",""bottom-left""]","[""red"",""green""]","0","1","0.25","0.2","0.05","-0.05","true","false","","","","","","","","",""
"html-keyboard-response","134","564774","0.0-4.0-174.0-0.0","699f4039ddf914372870c431","not_provided","0.5","desktop","0","0","1","","","","","","luck_game","","null","<div id=""score-counter"">TOTAL SCORE: &pound;0.20</div><div class=""experiment-container""><div class=""center-zone""><div class=""cross""></div><div class=""triangle-grid""><div class=""machine top-center blue-outline""></div><div class=""machine bottom-left green-outline""></div><div class=""machine bottom-right red""></div></div></div></div>","null","","","","","","","","","","","","","","","","","","","","","","","","","","","","","","","","","","","","",""
"html-keyboard-response","135","565282","0.0-4.0-175.0-0.0","699f4039ddf914372870c431","not_provided","0.5","desktop","0","0","1","","","","","","luck_game","","null","<div id=""score-counter"">TOTAL SCORE: &pound;0.20</div><div class=""experiment-container""><div class=""center-zone""><div class=""cross""></div></div></div>","null","","","","","","","","","","","","","","","","","","","","","","","","","","","","","","","","","","","","",""
"html-keyboard-response","136","566297","0.0-4.0-176.0-0.0","699f4039ddf914372870c431","not_provided","0.5","desktop","0","0","1","","","","","","luck_game","","null","<div id=""score-counter"">TOTAL SCORE: &pound;0.25</div><div class=""experiment-container""><div class=""center-zone""><div class=""cross""></div>
                <div style=""position: absolute; z-index: 10; display: flex; flex-direction: column; align-items: center; justify-content: center;"">
                    <div class=""win-text"" style=""font-size: 48px; font-weight: bold; margin-bottom: 20px; text-shadow: 2px 2px 4px #000;"">WIN</div>
                    <img src=""images/coin_reward.png"" class=""reward-img"" style=""background-color: black; border-radius: 50%;"">
                    <div class=""win-text"" style=""font-size: 48px; font-weight: bold; margin-top: 20px; text-shadow: 2px 2px 4px #000;"">+0.05&pound;</div>
                </div></div></div>","null","","","","","","","","","","","","","","","","","","","","","","","","","","","","","","","","","","","","",""
"html-keyboard-response","137","567310","0.0-4.0-177.0-0.0","699f4039ddf914372870c431","not_provided","0.5","desktop","0","0","1","","","","","","luck_game","","null","<div id=""score-counter"">TOTAL SCORE: &pound;0.25</div><div class=""experiment-container""><div class=""center-zone""><div class=""cross""></div></div></div>","null","","","","","","","","","","","","","","","","","","","","","","","","","","","","","","","","","","","","",""
"html-keyboard-response","138","567930","0.0-4.0-180.0","699f4039ddf914372870c431","not_provided","0.5","desktop","0","0","1","","","","","","luck_game","","619","<div id=""score-counter"">TOTAL SCORE: &pound;0.25</div><div class=""experiment-container""><div class=""center-zone""><div class=""cross""></div><div class=""triangle-grid""><div class=""machine top-center blue-outline""></div><div class=""machine bottom-left green""></div><div class=""machine bottom-right red-outline""></div></div></div></div>","arrowleft","","","","gambling_choice","1","22","arrowleft","bottom-left","green","arrowright","bottom-right","red","[""arrowup"",""arrowright""]","[""top-center"",""bottom-right""]","[""blue"",""red""]","null","null","[""arrowup"",""arrowleft""]","[""top-center"",""bottom-left""]","[""blue"",""green""]","1","0","0.2","0.25","-0.05","0.05","true","false","","","","","","","","",""
"html-keyboard-response","139","568042","0.0-4.0-181.0-0.0","699f4039ddf914372870c431","not_provided","0.5","desktop","0","0","1","","","","","","luck_game","","null","<div id=""score-counter"">TOTAL SCORE: &pound;0.25</div><div class=""experiment-container""><div class=""center-zone""><div class=""cross""></div><div class=""triangle-grid""><div class=""machine top-center blue-outline""></div><div class=""machine bottom-left green""></div><div class=""machine bottom-right red-outline""></div></div></div></div>","null","","","","","","","","","","","","","","","","","","","","","","","","","","","","","","","","","","","","",""
"html-keyboard-response","140","568552","0.0-4.0-182.0-0.0","699f4039ddf914372870c431","not_provided","0.5","desktop","0","0","1","","","","","","luck_game","","null","<div id=""score-counter"">TOTAL SCORE: &pound;0.25</div><div class=""experiment-container""><div class=""center-zone""><div class=""cross""></div></div></div>","null","","","","","","","","","","","","","","","","","","","","","","","","","","","","","","","","","","","","",""
"html-keyboard-response","141","569569","0.0-4.0-183.0-0.0","699f4039ddf914372870c431","not_provided","0.5","desktop","0","0","1","","","","","","luck_game","","null","<div id=""score-counter"">TOTAL SCORE: &pound;0.20</div><div class=""experiment-container""><div class=""center-zone""><div class=""cross""></div>
                <div style=""position: absolute; z-index: 10; display: flex; flex-direction: column; align-items: center; justify-content: center;"">
                    <div class=""lose-text"" style=""font-size: 48px; font-weight: bold; margin-bottom: 20px; text-shadow: 2px 2px 4px #000;"">LOSE</div>
                    <img src=""images/coin_no_reward.png"" class=""reward-img"" style=""background-color: black; border-radius: 50%;"">
                    <div class=""lose-text"" style=""font-size: 48px; font-weight: bold; margin-top: 20px; text-shadow: 2px 2px 4px #000;"">-0.05&pound;</div>
                </div></div></div>","null","","","","","","","","","","","","","","","","","","","","","","","","","","","","","","","","","","","","",""
"html-keyboard-response","142","570586","0.0-4.0-184.0-0.0","699f4039ddf914372870c431","not_provided","0.5","desktop","0","0","1","","","","","","luck_game","","null","<div id=""score-counter"">TOTAL SCORE: &pound;0.20</div><div class=""experiment-container""><div class=""center-zone""><div class=""cross""></div></div></div>","null","","","","","","","","","","","","","","","","","","","","","","","","","","","","","","","","","","","","",""
