"trial_type","trial_index","time_elapsed","internal_node_id","subject_id","study_id","win_chance","device_type","blur_count","fullscreen_exit_count","failed_attention_checks","success","timeout","failed_images","failed_audio","failed_video","phase","view_history","rt","stimulus","response","question_order","trial_name","value","task","block_number","trial_number","choice_key","choice_location","choice_color","choice_key_oneback","choice_location_oneback","choice_color_oneback","unavailable_key","unavailable_location","unavailable_color","unavailable_key_oneback","unavailable_location_oneback","unavailable_color_oneback","reward_oneback","reward","total_score","total_score_oneback","coin_earned","coin_earned_oneback","is_choice_valid","is_timeout_reached","prompt","flipped","attention","expected_answer","category","question_index"
"pavlovia","0","1519","0.0-0.0","69d5525ec7afcfce08d8608b","69f10c5d5c1b9b3130e33fee","0.5","desktop","0","0","1","","","","","","","","","","","","","","","","","","","","","","","","","","","","","","","","","","","","","","","","","",""
"preload","1","5635","0.0-2.0","69d5525ec7afcfce08d8608b","69f10c5d5c1b9b3130e33fee","0.5","desktop","0","0","1","true","false","[]","[]","[]","","","","","","","","","","","","","","","","","","","","","","","","","","","","","","","","","","","","",""
"html-keyboard-response","2","39900","0.0-3.0-0.0","69d5525ec7afcfce08d8608b","69f10c5d5c1b9b3130e33fee","0.5","desktop","0","0","1","","","","","","captcha","","","","","","","","","","","","","","","","","","","","","","","","","","","","","","","","","","","",""
"fullscreen","3","46858","0.0-4.0","69d5525ec7afcfce08d8608b","69f10c5d5c1b9b3130e33fee","0.5","desktop","0","0","1","true","","","","","setup","","","","","","","","","","","","","","","","","","","","","","","","","","","","","","","","","","","",""
"instructions","4","361410","0.0-5.0-0.0-0.0-0.0","69d5525ec7afcfce08d8608b","69f10c5d5c1b9b3130e33fee","0.5","desktop","0","0","1","","","","","","luck_game","[{""page_index"":0,""viewing_time"":24223},{""page_index"":1,""viewing_time"":147308},{""page_index"":2,""viewing_time"":19258},{""page_index"":3,""viewing_time"":12403},{""page_index"":4,""viewing_time"":12850},{""page_index"":5,""viewing_time"":21611},{""page_index"":6,""viewing_time"":12965},{""page_index"":7,""viewing_time"":11453},{""page_index"":8,""viewing_time"":28932},{""page_index"":9,""viewing_time"":13486},{""page_index"":10,""viewing_time"":10062}]","314550","","","","","","","","","","","","","","","","","","","","","","","","","","","","","","","","","",""
"html-button-response","5","385214","0.0-5.0-0.0-1.0","69d5525ec7afcfce08d8608b","69f10c5d5c1b9b3130e33fee","0.5","desktop","0","0","1","","","","","","luck_game","","23802","<div style=""max-width:640px; margin:0 auto; text-align:left;
                               font-family:sans-serif; color:white; padding:10px;"">
            <h3 style=""color:white; text-align:center;"">Quick Reminder</h3>
            <ul style=""line-height:2.1; font-size:1.05em;"">
                <li>There are <strong>3 luck machines</strong>:
                    <span style=""color:#5599ff""><strong>Blue</strong></span> (&uarr; Up),
                    <span style=""color:#55cc55""><strong>Green</strong></span> (&larr; Left),
                    <span style=""color:#ff5555""><strong>Red</strong></span> (&rarr; Right)</li>
                <li>Each turn, <strong>2 machines are READY</strong> and 1 is
                    <strong>unavailable</strong> (shown as a colored outline)</li>
                <li>Press the corresponding arrow key to activate a READY machine</li>
                <li>Activating an <strong>unavailable</strong> machine: lose your turn + time penalty</li>
                <li>Activating a READY machine: <strong class=""win-text"">50% win +&pound;0.05</strong>
                    / <strong class=""lose-text"">50% lose &minus;&pound;0.05</strong></li>
                <li><strong>Time limit:</strong> 6 seconds per turn &mdash; don&rsquo;t miss your chance!</li>
                <li><strong>Goal:</strong> Quickly activate READY machines, avoid unavailable ones</li>
            </ul>
        </div>","0","","","","","","","","","","","","","","","","","","","","","","","","","","","","","","","",""
"survey-multi-choice","6","1511173","0.0-5.0-0.0-2.0","69d5525ec7afcfce08d8608b","69f10c5d5c1b9b3130e33fee","0.5","desktop","0","0","1","","","","","","luck_game","","1125954","","{""q_total_machines"":""3"",""q_ready_machines"":""2"",""q_blue_key"":""↑ Up arrow key"",""q_red_key"":""→ Right arrow key"",""q_outcome"":""The red machine is unavailable. I will lose my turn and chance to win coins, and get a time penalty."",""q_ready_outcome"":""I will either win a coin (+0.05£) or lose a coin (−0.05£)."",""q_goal"":""My goal is to quickly activate available luck machines, avoiding unavailable machines. If I am lucky, I will get rewarded."",""q_win_rates"":""Red: 50% win rate — Blue: 50% win rate — Green: 50% win rate""}","[0,1,2,3,4,5,6,7]","luck_game_quiz","","","","","","","","","","","","","","","","","","","","","","","","","","","","","",""
"html-keyboard-response","7","1514548","0.0-5.0-1.0","69d5525ec7afcfce08d8608b","69f10c5d5c1b9b3130e33fee","0.5","desktop","0","0","1","","","","","","luck_game","","3372","
            <div style=""max-width: 600px; margin: 0 auto; text-align: center; font-family: sans-serif;"">
                <h2 style=""color: white;"">Good job, you learned the instructions!</h2>
                <p>We will now move to a short <strong>training phase</strong> to get you familiar with the game.</p>
                <p>Your score will <strong>not</strong> be counted during training.</p>
                <br>
                <p><strong>Press Space to start training.</strong></p>
            </div>"," ","","","","","","","","","","","","","","","","","","","","","","","","","","","","","","","",""
"call-function","8","1514549","0.0-5.0-2.0","69d5525ec7afcfce08d8608b","69f10c5d5c1b9b3130e33fee","0.5","desktop","0","0","1","","","","","","luck_game","","","","","","","","","","","","","","","","","","","","","","","","","","","","","","","","","","","",""
"html-keyboard-response","9","1520555","0.0-5.0-3.0","69d5525ec7afcfce08d8608b","69f10c5d5c1b9b3130e33fee","0.5","desktop","0","0","1","","","","","","luck_game","","null","<div class=""experiment-container""><div class=""center-zone""><div class=""cross""></div><div class=""triangle-grid""><div class=""machine top-center blue""></div><div class=""machine bottom-left green-outline""></div><div class=""machine bottom-right red""></div></div></div></div>","null","","","","gambling_choice","training","1","null","null","null","null","null","null","arrowleft","bottom-left","green","null","null","null","null","0","0","0","0","null","false","true","","","","","",""
"html-keyboard-response","10","1521570","0.0-5.0-7.0-0.0","69d5525ec7afcfce08d8608b","69f10c5d5c1b9b3130e33fee","0.5","desktop","0","0","1","","","","","","luck_game","","null","
            <div id=""score-counter""></div>
            <div class=""experiment-container"">
                <div class=""center-zone"">
                    <p class=""feedback-text"" style=""margin: 0;"">Too late!</p>
                </div>
            </div>","null","","","","","","","","","","","","","","","","","","","","","","","","","","","","","","","",""
"html-keyboard-response","11","1527578","0.0-5.0-9.0","69d5525ec7afcfce08d8608b","69f10c5d5c1b9b3130e33fee","0.5","desktop","0","0","1","","","","","","luck_game","","null","<div class=""experiment-container""><div class=""center-zone""><div class=""cross""></div><div class=""triangle-grid""><div class=""machine top-center blue""></div><div class=""machine bottom-left green""></div><div class=""machine bottom-right red-outline""></div></div></div></div>","null","","","","gambling_choice","training","2","null","null","null","null","null","null","arrowright","bottom-right","red","arrowleft","bottom-left","green","0","0","0","0","0","0","false","true","","","","","",""
"html-keyboard-response","12","1528588","0.0-5.0-13.0-0.0","69d5525ec7afcfce08d8608b","69f10c5d5c1b9b3130e33fee","0.5","desktop","0","0","1","","","","","","luck_game","","null","
            <div id=""score-counter""></div>
            <div class=""experiment-container"">
                <div class=""center-zone"">
                    <p class=""feedback-text"" style=""margin: 0;"">Too late!</p>
                </div>
            </div>","null","","","","","","","","","","","","","","","","","","","","","","","","","","","","","","","",""
"html-keyboard-response","13","1534601","0.0-5.0-15.0","69d5525ec7afcfce08d8608b","69f10c5d5c1b9b3130e33fee","0.5","desktop","0","0","1","","","","","","luck_game","","null","<div class=""experiment-container""><div class=""center-zone""><div class=""cross""></div><div class=""triangle-grid""><div class=""machine top-center blue""></div><div class=""machine bottom-left green""></div><div class=""machine bottom-right red-outline""></div></div></div></div>","null","","","","gambling_choice","training","3","null","null","null","null","null","null","arrowright","bottom-right","red","arrowright","bottom-right","red","0","0","0","0","0","0","false","true","","","","","",""
"html-keyboard-response","14","1535606","0.0-5.0-19.0-0.0","69d5525ec7afcfce08d8608b","69f10c5d5c1b9b3130e33fee","0.5","desktop","0","0","1","","","","","","luck_game","","null","
            <div id=""score-counter""></div>
            <div class=""experiment-container"">
                <div class=""center-zone"">
                    <p class=""feedback-text"" style=""margin: 0;"">Too late!</p>
                </div>
            </div>","null","","","","","","","","","","","","","","","","","","","","","","","","","","","","","","","",""
"html-keyboard-response","15","1541620","0.0-5.0-21.0","69d5525ec7afcfce08d8608b","69f10c5d5c1b9b3130e33fee","0.5","desktop","0","0","1","","","","","","luck_game","","null","<div class=""experiment-container""><div class=""center-zone""><div class=""cross""></div><div class=""triangle-grid""><div class=""machine top-center blue-outline""></div><div class=""machine bottom-left green""></div><div class=""machine bottom-right red""></div></div></div></div>","null","","","","gambling_choice","training","4","null","null","null","null","null","null","arrowup","top-center","blue","arrowright","bottom-right","red","0","0","0","0","0","0","false","true","","","","","",""
"html-keyboard-response","16","1542636","0.0-5.0-25.0-0.0","69d5525ec7afcfce08d8608b","69f10c5d5c1b9b3130e33fee","0.5","desktop","0","0","1","","","","","","luck_game","","null","
            <div id=""score-counter""></div>
            <div class=""experiment-container"">
                <div class=""center-zone"">
                    <p class=""feedback-text"" style=""margin: 0;"">Too late!</p>
                </div>
            </div>","null","","","","","","","","","","","","","","","","","","","","","","","","","","","","","","","",""
"call-function","17","1542637","0.0-5.0-27.0","69d5525ec7afcfce08d8608b","69f10c5d5c1b9b3130e33fee","0.5","desktop","0","0","1","","","","","","luck_game","","","","","","","","","","","","","","","","","","","","","","","","","","","","","","","","","","","",""
"html-keyboard-response","18","1589366","0.0-5.0-28.0","69d5525ec7afcfce08d8608b","69f10c5d5c1b9b3130e33fee","0.5","desktop","0","0","1","","","","","","luck_game","","46727","
            <div style=""max-width: 600px; margin: 0 auto; text-align: center; font-family: sans-serif;"">
                <h2 style=""color: white;"">Training Complete</h2>
                <p>You will now start the real game.</p>
                <br>
                <p><strong>Press Space to begin.</strong></p>
            </div>"," ","","","","","","","","","","","","","","","","","","","","","","","","","","","","","","","",""
"html-keyboard-response","19","1590602","0.0-5.0-29.0","69d5525ec7afcfce08d8608b","69f10c5d5c1b9b3130e33fee","0.5","desktop","0","0","1","","","","","","luck_game","","1235","<div id=""score-counter"">TOTAL SCORE: &pound;0.00</div><div class=""experiment-container""><div class=""center-zone""><div class=""cross""></div><div class=""triangle-grid""><div class=""machine top-center blue""></div><div class=""machine bottom-left green""></div><div class=""machine bottom-right red-outline""></div></div></div></div>","arrowup","","","","gambling_choice","1","1","arrowup","top-center","blue","null","null","null","arrowright","bottom-right","red","arrowup","top-center","blue","0","1","0.05","0","0.05","0","true","false","","","","","",""
"html-keyboard-response","20","1590705","0.0-5.0-30.0-0.0","69d5525ec7afcfce08d8608b","69f10c5d5c1b9b3130e33fee","0.5","desktop","0","0","1","","","","","","luck_game","","null","<div id=""score-counter"">TOTAL SCORE: &pound;0.00</div><div class=""experiment-container""><div class=""center-zone""><div class=""cross""></div><div class=""triangle-grid""><div class=""machine top-center blue""></div><div class=""machine bottom-left green""></div><div class=""machine bottom-right red-outline""></div></div></div></div>","null","","","","","","","","","","","","","","","","","","","","","","","","","","","","","","","",""
"html-keyboard-response","21","1591210","0.0-5.0-31.0-0.0","69d5525ec7afcfce08d8608b","69f10c5d5c1b9b3130e33fee","0.5","desktop","0","0","1","","","","","","luck_game","","null","<div id=""score-counter"">TOTAL SCORE: &pound;0.00</div><div class=""experiment-container""><div class=""center-zone""><div class=""cross""></div></div></div>","null","","","","","","","","","","","","","","","","","","","","","","","","","","","","","","","",""
"html-keyboard-response","22","1592228","0.0-5.0-32.0-0.0","69d5525ec7afcfce08d8608b","69f10c5d5c1b9b3130e33fee","0.5","desktop","0","0","1","","","","","","luck_game","","null","<div id=""score-counter"">TOTAL SCORE: &pound;0.05</div><div class=""experiment-container""><div class=""center-zone""><div class=""cross""></div>
                <div style=""position: absolute; z-index: 10; display: flex; flex-direction: column; align-items: center; justify-content: center;"">
                    <div class=""win-text"" style=""font-size: 48px; font-weight: bold; margin-bottom: 20px; text-shadow: 2px 2px 4px #000;"">WIN</div>
                    <img src=""images/coin_reward.png"" class=""reward-img"" style=""background-color: black; border-radius: 50%;"">
                    <div class=""win-text"" style=""font-size: 48px; font-weight: bold; margin-top: 20px; text-shadow: 2px 2px 4px #000;"">+0.05&pound;</div>
                </div></div></div>","null","","","","","","","","","","","","","","","","","","","","","","","","","","","","","","","",""
"html-keyboard-response","23","1592456","0.0-5.0-35.0","69d5525ec7afcfce08d8608b","69f10c5d5c1b9b3130e33fee","0.5","desktop","0","0","1","","","","","","luck_game","","227","<div id=""score-counter"">TOTAL SCORE: &pound;0.05</div><div class=""experiment-container""><div class=""center-zone""><div class=""cross""></div><div class=""triangle-grid""><div class=""machine top-center blue""></div><div class=""machine bottom-left green-outline""></div><div class=""machine bottom-right red""></div></div></div></div>","arrowup","","","","gambling_choice","1","2","arrowup","top-center","blue","arrowup","top-center","blue","arrowleft","bottom-left","green","arrowright","bottom-right","red","1","0","0","0.05","-0.05","0.05","true","false","","","","","",""
"html-keyboard-response","24","1592569","0.0-5.0-36.0-0.0","69d5525ec7afcfce08d8608b","69f10c5d5c1b9b3130e33fee","0.5","desktop","0","0","1","","","","","","luck_game","","null","<div id=""score-counter"">TOTAL SCORE: &pound;0.05</div><div class=""experiment-container""><div class=""center-zone""><div class=""cross""></div><div class=""triangle-grid""><div class=""machine top-center blue""></div><div class=""machine bottom-left green-outline""></div><div class=""machine bottom-right red""></div></div></div></div>","null","","","","","","","","","","","","","","","","","","","","","","","","","","","","","","","",""
"html-keyboard-response","25","1593077","0.0-5.0-37.0-0.0","69d5525ec7afcfce08d8608b","69f10c5d5c1b9b3130e33fee","0.5","desktop","0","0","1","","","","","","luck_game","","null","<div id=""score-counter"">TOTAL SCORE: &pound;0.05</div><div class=""experiment-container""><div class=""center-zone""><div class=""cross""></div></div></div>","null","","","","","","","","","","","","","","","","","","","","","","","","","","","","","","","",""
"html-keyboard-response","26","1594093","0.0-5.0-38.0-0.0","69d5525ec7afcfce08d8608b","69f10c5d5c1b9b3130e33fee","0.5","desktop","0","0","1","","","","","","luck_game","","null","<div id=""score-counter"">TOTAL SCORE: &pound;0.00</div><div class=""experiment-container""><div class=""center-zone""><div class=""cross""></div>
                <div style=""position: absolute; z-index: 10; display: flex; flex-direction: column; align-items: center; justify-content: center;"">
                    <div class=""lose-text"" style=""font-size: 48px; font-weight: bold; margin-bottom: 20px; text-shadow: 2px 2px 4px #000;"">LOSE</div>
                    <img src=""images/coin_no_reward.png"" class=""reward-img"" style=""background-color: black; border-radius: 50%;"">
                    <div class=""lose-text"" style=""font-size: 48px; font-weight: bold; margin-top: 20px; text-shadow: 2px 2px 4px #000;"">-0.05&pound;</div>
                </div></div></div>","null","","","","","","","","","","","","","","","","","","","","","","","","","","","","","","","",""
"html-keyboard-response","27","1596025","0.0-5.0-41.0","69d5525ec7afcfce08d8608b","69f10c5d5c1b9b3130e33fee","0.5","desktop","0","0","1","","","","","","luck_game","","1930","<div id=""score-counter"">TOTAL SCORE: &pound;0.00</div><div class=""experiment-container""><div class=""center-zone""><div class=""cross""></div><div class=""triangle-grid""><div class=""machine top-center blue""></div><div class=""machine bottom-left green""></div><div class=""machine bottom-right red-outline""></div></div></div></div>","arrowup","","","","gambling_choice","1","3","arrowup","top-center","blue","arrowup","top-center","blue","arrowright","bottom-right","red","arrowleft","bottom-left","green","0","1","0.05","0","0.05","-0.05","true","false","","","","","",""
"html-keyboard-response","28","1596135","0.0-5.0-42.0-0.0","69d5525ec7afcfce08d8608b","69f10c5d5c1b9b3130e33fee","0.5","desktop","0","0","1","","","","","","luck_game","","null","<div id=""score-counter"">TOTAL SCORE: &pound;0.00</div><div class=""experiment-container""><div class=""center-zone""><div class=""cross""></div><div class=""triangle-grid""><div class=""machine top-center blue""></div><div class=""machine bottom-left green""></div><div class=""machine bottom-right red-outline""></div></div></div></div>","null","","","","","","","","","","","","","","","","","","","","","","","","","","","","","","","",""
"html-keyboard-response","29","1596640","0.0-5.0-43.0-0.0","69d5525ec7afcfce08d8608b","69f10c5d5c1b9b3130e33fee","0.5","desktop","0","0","1","","","","","","luck_game","","null","<div id=""score-counter"">TOTAL SCORE: &pound;0.00</div><div class=""experiment-container""><div class=""center-zone""><div class=""cross""></div></div></div>","null","","","","","","","","","","","","","","","","","","","","","","","","","","","","","","","",""
"html-keyboard-response","30","1597652","0.0-5.0-44.0-0.0","69d5525ec7afcfce08d8608b","69f10c5d5c1b9b3130e33fee","0.5","desktop","0","0","1","","","","","","luck_game","","null","<div id=""score-counter"">TOTAL SCORE: &pound;0.05</div><div class=""experiment-container""><div class=""center-zone""><div class=""cross""></div>
                <div style=""position: absolute; z-index: 10; display: flex; flex-direction: column; align-items: center; justify-content: center;"">
                    <div class=""win-text"" style=""font-size: 48px; font-weight: bold; margin-bottom: 20px; text-shadow: 2px 2px 4px #000;"">WIN</div>
                    <img src=""images/coin_reward.png"" class=""reward-img"" style=""background-color: black; border-radius: 50%;"">
                    <div class=""win-text"" style=""font-size: 48px; font-weight: bold; margin-top: 20px; text-shadow: 2px 2px 4px #000;"">+0.05&pound;</div>
                </div></div></div>","null","","","","","","","","","","","","","","","","","","","","","","","","","","","","","","","",""
"html-keyboard-response","31","1598193","0.0-5.0-47.0","69d5525ec7afcfce08d8608b","69f10c5d5c1b9b3130e33fee","0.5","desktop","0","0","1","","","","","","luck_game","","540","<div id=""score-counter"">TOTAL SCORE: &pound;0.05</div><div class=""experiment-container""><div class=""center-zone""><div class=""cross""></div><div class=""triangle-grid""><div class=""machine top-center blue""></div><div class=""machine bottom-left green-outline""></div><div class=""machine bottom-right red""></div></div></div></div>","arrowup","","","","gambling_choice","1","4","arrowup","top-center","blue","arrowup","top-center","blue","arrowleft","bottom-left","green","arrowright","bottom-right","red","1","1","0.1","0.05","0.05","0.05","true","false","","","","","",""
"html-keyboard-response","32","1598301","0.0-5.0-48.0-0.0","69d5525ec7afcfce08d8608b","69f10c5d5c1b9b3130e33fee","0.5","desktop","0","0","1","","","","","","luck_game","","null","<div id=""score-counter"">TOTAL SCORE: &pound;0.05</div><div class=""experiment-container""><div class=""center-zone""><div class=""cross""></div><div class=""triangle-grid""><div class=""machine top-center blue""></div><div class=""machine bottom-left green-outline""></div><div class=""machine bottom-right red""></div></div></div></div>","null","","","","","","","","","","","","","","","","","","","","","","","","","","","","","","","",""
"html-keyboard-response","33","1598808","0.0-5.0-49.0-0.0","69d5525ec7afcfce08d8608b","69f10c5d5c1b9b3130e33fee","0.5","desktop","0","0","1","","","","","","luck_game","","null","<div id=""score-counter"">TOTAL SCORE: &pound;0.05</div><div class=""experiment-container""><div class=""center-zone""><div class=""cross""></div></div></div>","null","","","","","","","","","","","","","","","","","","","","","","","","","","","","","","","",""
"html-keyboard-response","34","1599824","0.0-5.0-50.0-0.0","69d5525ec7afcfce08d8608b","69f10c5d5c1b9b3130e33fee","0.5","desktop","0","0","1","","","","","","luck_game","","null","<div id=""score-counter"">TOTAL SCORE: &pound;0.10</div><div class=""experiment-container""><div class=""center-zone""><div class=""cross""></div>
                <div style=""position: absolute; z-index: 10; display: flex; flex-direction: column; align-items: center; justify-content: center;"">
                    <div class=""win-text"" style=""font-size: 48px; font-weight: bold; margin-bottom: 20px; text-shadow: 2px 2px 4px #000;"">WIN</div>
                    <img src=""images/coin_reward.png"" class=""reward-img"" style=""background-color: black; border-radius: 50%;"">
                    <div class=""win-text"" style=""font-size: 48px; font-weight: bold; margin-top: 20px; text-shadow: 2px 2px 4px #000;"">+0.05&pound;</div>
                </div></div></div>","null","","","","","","","","","","","","","","","","","","","","","","","","","","","","","","","",""
"html-keyboard-response","35","1601446","0.0-5.0-53.0","69d5525ec7afcfce08d8608b","69f10c5d5c1b9b3130e33fee","0.5","desktop","0","0","1","","","","","","luck_game","","1621","<div id=""score-counter"">TOTAL SCORE: &pound;0.10</div><div class=""experiment-container""><div class=""center-zone""><div class=""cross""></div><div class=""triangle-grid""><div class=""machine top-center blue""></div><div class=""machine bottom-left green-outline""></div><div class=""machine bottom-right red""></div></div></div></div>","arrowup","","","","gambling_choice","1","5","arrowup","top-center","blue","arrowup","top-center","blue","arrowleft","bottom-left","green","arrowleft","bottom-left","green","1","0","0.05","0.1","-0.05","0.05","true","false","","","","","",""
"html-keyboard-response","36","1601551","0.0-5.0-54.0-0.0","69d5525ec7afcfce08d8608b","69f10c5d5c1b9b3130e33fee","0.5","desktop","0","0","1","","","","","","luck_game","","null","<div id=""score-counter"">TOTAL SCORE: &pound;0.10</div><div class=""experiment-container""><div class=""center-zone""><div class=""cross""></div><div class=""triangle-grid""><div class=""machine top-center blue""></div><div class=""machine bottom-left green-outline""></div><div class=""machine bottom-right red""></div></div></div></div>","null","","","","","","","","","","","","","","","","","","","","","","","","","","","","","","","",""
"html-keyboard-response","37","1602058","0.0-5.0-55.0-0.0","69d5525ec7afcfce08d8608b","69f10c5d5c1b9b3130e33fee","0.5","desktop","0","0","1","","","","","","luck_game","","null","<div id=""score-counter"">TOTAL SCORE: &pound;0.10</div><div class=""experiment-container""><div class=""center-zone""><div class=""cross""></div></div></div>","null","","","","","","","","","","","","","","","","","","","","","","","","","","","","","","","",""
"html-keyboard-response","38","1603068","0.0-5.0-56.0-0.0","69d5525ec7afcfce08d8608b","69f10c5d5c1b9b3130e33fee","0.5","desktop","0","0","1","","","","","","luck_game","","null","<div id=""score-counter"">TOTAL SCORE: &pound;0.05</div><div class=""experiment-container""><div class=""center-zone""><div class=""cross""></div>
                <div style=""position: absolute; z-index: 10; display: flex; flex-direction: column; align-items: center; justify-content: center;"">
                    <div class=""lose-text"" style=""font-size: 48px; font-weight: bold; margin-bottom: 20px; text-shadow: 2px 2px 4px #000;"">LOSE</div>
                    <img src=""images/coin_no_reward.png"" class=""reward-img"" style=""background-color: black; border-radius: 50%;"">
                    <div class=""lose-text"" style=""font-size: 48px; font-weight: bold; margin-top: 20px; text-shadow: 2px 2px 4px #000;"">-0.05&pound;</div>
                </div></div></div>","null","","","","","","","","","","","","","","","","","","","","","","","","","","","","","","","",""
"html-keyboard-response","39","1604239","0.0-5.0-59.0","69d5525ec7afcfce08d8608b","69f10c5d5c1b9b3130e33fee","0.5","desktop","0","0","1","","","","","","luck_game","","1169","<div id=""score-counter"">TOTAL SCORE: &pound;0.05</div><div class=""experiment-container""><div class=""center-zone""><div class=""cross""></div><div class=""triangle-grid""><div class=""machine top-center blue""></div><div class=""machine bottom-left green-outline""></div><div class=""machine bottom-right red""></div></div></div></div>","arrowup","","","","gambling_choice","1","6","arrowup","top-center","blue","arrowup","top-center","blue","arrowleft","bottom-left","green","arrowleft","bottom-left","green","0","1","0.1","0.05","0.05","-0.05","true","false","","","","","",""
"html-keyboard-response","40","1604350","0.0-5.0-60.0-0.0","69d5525ec7afcfce08d8608b","69f10c5d5c1b9b3130e33fee","0.5","desktop","0","0","1","","","","","","luck_game","","null","<div id=""score-counter"">TOTAL SCORE: &pound;0.05</div><div class=""experiment-container""><div class=""center-zone""><div class=""cross""></div><div class=""triangle-grid""><div class=""machine top-center blue""></div><div class=""machine bottom-left green-outline""></div><div class=""machine bottom-right red""></div></div></div></div>","null","","","","","","","","","","","","","","","","","","","","","","","","","","","","","","","",""
"html-keyboard-response","41","1604857","0.0-5.0-61.0-0.0","69d5525ec7afcfce08d8608b","69f10c5d5c1b9b3130e33fee","0.5","desktop","0","0","1","","","","","","luck_game","","null","<div id=""score-counter"">TOTAL SCORE: &pound;0.05</div><div class=""experiment-container""><div class=""center-zone""><div class=""cross""></div></div></div>","null","","","","","","","","","","","","","","","","","","","","","","","","","","","","","","","",""
"html-keyboard-response","42","1605872","0.0-5.0-62.0-0.0","69d5525ec7afcfce08d8608b","69f10c5d5c1b9b3130e33fee","0.5","desktop","0","0","1","","","","","","luck_game","","null","<div id=""score-counter"">TOTAL SCORE: &pound;0.10</div><div class=""experiment-container""><div class=""center-zone""><div class=""cross""></div>
                <div style=""position: absolute; z-index: 10; display: flex; flex-direction: column; align-items: center; justify-content: center;"">
                    <div class=""win-text"" style=""font-size: 48px; font-weight: bold; margin-bottom: 20px; text-shadow: 2px 2px 4px #000;"">WIN</div>
                    <img src=""images/coin_reward.png"" class=""reward-img"" style=""background-color: black; border-radius: 50%;"">
                    <div class=""win-text"" style=""font-size: 48px; font-weight: bold; margin-top: 20px; text-shadow: 2px 2px 4px #000;"">+0.05&pound;</div>
                </div></div></div>","null","","","","","","","","","","","","","","","","","","","","","","","","","","","","","","","",""
"html-keyboard-response","43","1607489","0.0-5.0-65.0","69d5525ec7afcfce08d8608b","69f10c5d5c1b9b3130e33fee","0.5","desktop","0","0","1","","","","","","luck_game","","1615","<div id=""score-counter"">TOTAL SCORE: &pound;0.10</div><div class=""experiment-container""><div class=""center-zone""><div class=""cross""></div><div class=""triangle-grid""><div class=""machine top-center blue""></div><div class=""machine bottom-left green-outline""></div><div class=""machine bottom-right red""></div></div></div></div>","arrowup","","","","gambling_choice","1","7","arrowup","top-center","blue","arrowup","top-center","blue","arrowleft","bottom-left","green","arrowleft","bottom-left","green","1","0","0.05","0.1","-0.05","0.05","true","false","","","","","",""
"html-keyboard-response","44","1607599","0.0-5.0-66.0-0.0","69d5525ec7afcfce08d8608b","69f10c5d5c1b9b3130e33fee","0.5","desktop","0","0","1","","","","","","luck_game","","null","<div id=""score-counter"">TOTAL SCORE: &pound;0.10</div><div class=""experiment-container""><div class=""center-zone""><div class=""cross""></div><div class=""triangle-grid""><div class=""machine top-center blue""></div><div class=""machine bottom-left green-outline""></div><div class=""machine bottom-right red""></div></div></div></div>","null","","","","","","","","","","","","","","","","","","","","","","","","","","","","","","","",""
"html-keyboard-response","45","1608106","0.0-5.0-67.0-0.0","69d5525ec7afcfce08d8608b","69f10c5d5c1b9b3130e33fee","0.5","desktop","0","0","1","","","","","","luck_game","","null","<div id=""score-counter"">TOTAL SCORE: &pound;0.10</div><div class=""experiment-container""><div class=""center-zone""><div class=""cross""></div></div></div>","null","","","","","","","","","","","","","","","","","","","","","","","","","","","","","","","",""
"html-keyboard-response","46","1609122","0.0-5.0-68.0-0.0","69d5525ec7afcfce08d8608b","69f10c5d5c1b9b3130e33fee","0.5","desktop","0","0","1","","","","","","luck_game","","null","<div id=""score-counter"">TOTAL SCORE: &pound;0.05</div><div class=""experiment-container""><div class=""center-zone""><div class=""cross""></div>
                <div style=""position: absolute; z-index: 10; display: flex; flex-direction: column; align-items: center; justify-content: center;"">
                    <div class=""lose-text"" style=""font-size: 48px; font-weight: bold; margin-bottom: 20px; text-shadow: 2px 2px 4px #000;"">LOSE</div>
                    <img src=""images/coin_no_reward.png"" class=""reward-img"" style=""background-color: black; border-radius: 50%;"">
                    <div class=""lose-text"" style=""font-size: 48px; font-weight: bold; margin-top: 20px; text-shadow: 2px 2px 4px #000;"">-0.05&pound;</div>
                </div></div></div>","null","","","","","","","","","","","","","","","","","","","","","","","","","","","","","","","",""
"html-keyboard-response","47","1609547","0.0-5.0-71.0","69d5525ec7afcfce08d8608b","69f10c5d5c1b9b3130e33fee","0.5","desktop","0","0","1","","","","","","luck_game","","424","<div id=""score-counter"">TOTAL SCORE: &pound;0.05</div><div class=""experiment-container""><div class=""center-zone""><div class=""cross""></div><div class=""triangle-grid""><div class=""machine top-center blue""></div><div class=""machine bottom-left green-outline""></div><div class=""machine bottom-right red""></div></div></div></div>","arrowup","","","","gambling_choice","1","8","arrowup","top-center","blue","arrowup","top-center","blue","arrowleft","bottom-left","green","arrowleft","bottom-left","green","0","1","0.1","0.05","0.05","-0.05","true","false","","","","","",""
"html-keyboard-response","48","1609651","0.0-5.0-72.0-0.0","69d5525ec7afcfce08d8608b","69f10c5d5c1b9b3130e33fee","0.5","desktop","0","0","1","","","","","","luck_game","","null","<div id=""score-counter"">TOTAL SCORE: &pound;0.05</div><div class=""experiment-container""><div class=""center-zone""><div class=""cross""></div><div class=""triangle-grid""><div class=""machine top-center blue""></div><div class=""machine bottom-left green-outline""></div><div class=""machine bottom-right red""></div></div></div></div>","null","","","","","","","","","","","","","","","","","","","","","","","","","","","","","","","",""
"html-keyboard-response","49","1610156","0.0-5.0-73.0-0.0","69d5525ec7afcfce08d8608b","69f10c5d5c1b9b3130e33fee","0.5","desktop","0","0","1","","","","","","luck_game","","null","<div id=""score-counter"">TOTAL SCORE: &pound;0.05</div><div class=""experiment-container""><div class=""center-zone""><div class=""cross""></div></div></div>","null","","","","","","","","","","","","","","","","","","","","","","","","","","","","","","","",""
"html-keyboard-response","50","1611172","0.0-5.0-74.0-0.0","69d5525ec7afcfce08d8608b","69f10c5d5c1b9b3130e33fee","0.5","desktop","0","0","1","","","","","","luck_game","","null","<div id=""score-counter"">TOTAL SCORE: &pound;0.10</div><div class=""experiment-container""><div class=""center-zone""><div class=""cross""></div>
                <div style=""position: absolute; z-index: 10; display: flex; flex-direction: column; align-items: center; justify-content: center;"">
                    <div class=""win-text"" style=""font-size: 48px; font-weight: bold; margin-bottom: 20px; text-shadow: 2px 2px 4px #000;"">WIN</div>
                    <img src=""images/coin_reward.png"" class=""reward-img"" style=""background-color: black; border-radius: 50%;"">
                    <div class=""win-text"" style=""font-size: 48px; font-weight: bold; margin-top: 20px; text-shadow: 2px 2px 4px #000;"">+0.05&pound;</div>
                </div></div></div>","null","","","","","","","","","","","","","","","","","","","","","","","","","","","","","","","",""
"html-keyboard-response","51","1611191","0.0-5.0-77.0","69d5525ec7afcfce08d8608b","69f10c5d5c1b9b3130e33fee","0.5","desktop","0","0","1","","","","","","luck_game","","18","<div id=""score-counter"">TOTAL SCORE: &pound;0.10</div><div class=""experiment-container""><div class=""center-zone""><div class=""cross""></div><div class=""triangle-grid""><div class=""machine top-center blue""></div><div class=""machine bottom-left green-outline""></div><div class=""machine bottom-right red""></div></div></div></div>","arrowup","","","","gambling_choice","1","9","arrowup","top-center","blue","arrowup","top-center","blue","arrowleft","bottom-left","green","arrowleft","bottom-left","green","1","0","0.05","0.1","-0.05","0.05","true","false","","","","","",""
"html-keyboard-response","52","1611298","0.0-5.0-78.0-0.0","69d5525ec7afcfce08d8608b","69f10c5d5c1b9b3130e33fee","0.5","desktop","0","0","1","","","","","","luck_game","","null","<div id=""score-counter"">TOTAL SCORE: &pound;0.10</div><div class=""experiment-container""><div class=""center-zone""><div class=""cross""></div><div class=""triangle-grid""><div class=""machine top-center blue""></div><div class=""machine bottom-left green-outline""></div><div class=""machine bottom-right red""></div></div></div></div>","null","","","","","","","","","","","","","","","","","","","","","","","","","","","","","","","",""
"html-keyboard-response","53","1611807","0.0-5.0-79.0-0.0","69d5525ec7afcfce08d8608b","69f10c5d5c1b9b3130e33fee","0.5","desktop","0","0","1","","","","","","luck_game","","null","<div id=""score-counter"">TOTAL SCORE: &pound;0.10</div><div class=""experiment-container""><div class=""center-zone""><div class=""cross""></div></div></div>","null","","","","","","","","","","","","","","","","","","","","","","","","","","","","","","","",""
"html-keyboard-response","54","1612821","0.0-5.0-80.0-0.0","69d5525ec7afcfce08d8608b","69f10c5d5c1b9b3130e33fee","0.5","desktop","0","0","1","","","","","","luck_game","","null","<div id=""score-counter"">TOTAL SCORE: &pound;0.05</div><div class=""experiment-container""><div class=""center-zone""><div class=""cross""></div>
                <div style=""position: absolute; z-index: 10; display: flex; flex-direction: column; align-items: center; justify-content: center;"">
                    <div class=""lose-text"" style=""font-size: 48px; font-weight: bold; margin-bottom: 20px; text-shadow: 2px 2px 4px #000;"">LOSE</div>
                    <img src=""images/coin_no_reward.png"" class=""reward-img"" style=""background-color: black; border-radius: 50%;"">
                    <div class=""lose-text"" style=""font-size: 48px; font-weight: bold; margin-top: 20px; text-shadow: 2px 2px 4px #000;"">-0.05&pound;</div>
                </div></div></div>","null","","","","","","","","","","","","","","","","","","","","","","","","","","","","","","","",""
"html-keyboard-response","55","1613483","0.0-5.0-83.0","69d5525ec7afcfce08d8608b","69f10c5d5c1b9b3130e33fee","0.5","desktop","0","0","1","","","","","","luck_game","","660","<div id=""score-counter"">TOTAL SCORE: &pound;0.05</div><div class=""experiment-container""><div class=""center-zone""><div class=""cross""></div><div class=""triangle-grid""><div class=""machine top-center blue-outline""></div><div class=""machine bottom-left green""></div><div class=""machine bottom-right red""></div></div></div></div>","arrowup","","","","gambling_choice","1","10","arrowup","top-center","blue","arrowup","top-center","blue","arrowup","top-center","blue","arrowleft","bottom-left","green","0","0","0.05","0.05","0","-0.05","false","false","","","","","",""
"html-keyboard-response","56","1616489","0.0-5.0-88.0-0.0","69d5525ec7afcfce08d8608b","69f10c5d5c1b9b3130e33fee","0.5","desktop","0","0","1","","","","","","luck_game","","null","
            <div id=""score-counter"">TOTAL SCORE: &pound;0.05</div>
            <div class=""experiment-container"">
                <div class=""center-zone"">
                    <p class=""feedback-text"" style=""margin: 0;"">Not available!</p>
                </div>
            </div>","null","","","","","","","","","","","","","","","","","","","","","","","","","","","","","","","",""
"html-keyboard-response","57","1618112","0.0-5.0-89.0","69d5525ec7afcfce08d8608b","69f10c5d5c1b9b3130e33fee","0.5","desktop","0","0","1","","","","","","luck_game","","1621","<div id=""score-counter"">TOTAL SCORE: &pound;0.05</div><div class=""experiment-container""><div class=""center-zone""><div class=""cross""></div><div class=""triangle-grid""><div class=""machine top-center blue-outline""></div><div class=""machine bottom-left green""></div><div class=""machine bottom-right red""></div></div></div></div>","arrowleft","","","","gambling_choice","1","11","arrowleft","bottom-left","green","arrowup","top-center","blue","arrowup","top-center","blue","arrowup","top-center","blue","0","0","0","0.05","-0.05","0","true","false","","","","","",""
"html-keyboard-response","58","1618215","0.0-5.0-90.0-0.0","69d5525ec7afcfce08d8608b","69f10c5d5c1b9b3130e33fee","0.5","desktop","0","0","1","","","","","","luck_game","","null","<div id=""score-counter"">TOTAL SCORE: &pound;0.05</div><div class=""experiment-container""><div class=""center-zone""><div class=""cross""></div><div class=""triangle-grid""><div class=""machine top-center blue-outline""></div><div class=""machine bottom-left green""></div><div class=""machine bottom-right red""></div></div></div></div>","null","","","","","","","","","","","","","","","","","","","","","","","","","","","","","","","",""
"html-keyboard-response","59","1618723","0.0-5.0-91.0-0.0","69d5525ec7afcfce08d8608b","69f10c5d5c1b9b3130e33fee","0.5","desktop","0","0","1","","","","","","luck_game","","null","<div id=""score-counter"">TOTAL SCORE: &pound;0.05</div><div class=""experiment-container""><div class=""center-zone""><div class=""cross""></div></div></div>","null","","","","","","","","","","","","","","","","","","","","","","","","","","","","","","","",""
"html-keyboard-response","60","1619733","0.0-5.0-92.0-0.0","69d5525ec7afcfce08d8608b","69f10c5d5c1b9b3130e33fee","0.5","desktop","0","0","1","","","","","","luck_game","","null","<div id=""score-counter"">TOTAL SCORE: &pound;0.00</div><div class=""experiment-container""><div class=""center-zone""><div class=""cross""></div>
                <div style=""position: absolute; z-index: 10; display: flex; flex-direction: column; align-items: center; justify-content: center;"">
                    <div class=""lose-text"" style=""font-size: 48px; font-weight: bold; margin-bottom: 20px; text-shadow: 2px 2px 4px #000;"">LOSE</div>
                    <img src=""images/coin_no_reward.png"" class=""reward-img"" style=""background-color: black; border-radius: 50%;"">
                    <div class=""lose-text"" style=""font-size: 48px; font-weight: bold; margin-top: 20px; text-shadow: 2px 2px 4px #000;"">-0.05&pound;</div>
                </div></div></div>","null","","","","","","","","","","","","","","","","","","","","","","","","","","","","","","","",""
"html-keyboard-response","61","1620617","0.0-5.0-95.0","69d5525ec7afcfce08d8608b","69f10c5d5c1b9b3130e33fee","0.5","desktop","0","0","1","","","","","","luck_game","","883","<div id=""score-counter"">TOTAL SCORE: &pound;0.00</div><div class=""experiment-container""><div class=""center-zone""><div class=""cross""></div><div class=""triangle-grid""><div class=""machine top-center blue""></div><div class=""machine bottom-left green""></div><div class=""machine bottom-right red-outline""></div></div></div></div>","arrowleft","","","","gambling_choice","1","12","arrowleft","bottom-left","green","arrowleft","bottom-left","green","arrowright","bottom-right","red","arrowup","top-center","blue","0","0","0","0","-0.05","-0.05","true","false","","","","","",""
"html-keyboard-response","62","1620730","0.0-5.0-96.0-0.0","69d5525ec7afcfce08d8608b","69f10c5d5c1b9b3130e33fee","0.5","desktop","0","0","1","","","","","","luck_game","","null","<div id=""score-counter"">TOTAL SCORE: &pound;0.00</div><div class=""experiment-container""><div class=""center-zone""><div class=""cross""></div><div class=""triangle-grid""><div class=""machine top-center blue""></div><div class=""machine bottom-left green""></div><div class=""machine bottom-right red-outline""></div></div></div></div>","null","","","","","","","","","","","","","","","","","","","","","","","","","","","","","","","",""
"html-keyboard-response","63","1621232","0.0-5.0-97.0-0.0","69d5525ec7afcfce08d8608b","69f10c5d5c1b9b3130e33fee","0.5","desktop","0","0","1","","","","","","luck_game","","null","<div id=""score-counter"">TOTAL SCORE: &pound;0.00</div><div class=""experiment-container""><div class=""center-zone""><div class=""cross""></div></div></div>","null","","","","","","","","","","","","","","","","","","","","","","","","","","","","","","","",""
"html-keyboard-response","64","1622240","0.0-5.0-98.0-0.0","69d5525ec7afcfce08d8608b","69f10c5d5c1b9b3130e33fee","0.5","desktop","0","0","1","","","","","","luck_game","","null","<div id=""score-counter"">TOTAL SCORE: &pound;0.00</div><div class=""experiment-container""><div class=""center-zone""><div class=""cross""></div>
                <div style=""position: absolute; z-index: 10; display: flex; flex-direction: column; align-items: center; justify-content: center;"">
                    <div class=""lose-text"" style=""font-size: 48px; font-weight: bold; margin-bottom: 20px; text-shadow: 2px 2px 4px #000;"">LOSE</div>
                    <img src=""images/coin_no_reward.png"" class=""reward-img"" style=""background-color: black; border-radius: 50%;"">
                    <div class=""lose-text"" style=""font-size: 48px; font-weight: bold; margin-top: 20px; text-shadow: 2px 2px 4px #000;"">-0.05&pound;</div>
                </div></div></div>","null","","","","","","","","","","","","","","","","","","","","","","","","","","","","","","","",""
"html-keyboard-response","65","1623193","0.0-5.0-101.0","69d5525ec7afcfce08d8608b","69f10c5d5c1b9b3130e33fee","0.5","desktop","0","0","1","","","","","","luck_game","","951","<div id=""score-counter"">TOTAL SCORE: &pound;0.00</div><div class=""experiment-container""><div class=""center-zone""><div class=""cross""></div><div class=""triangle-grid""><div class=""machine top-center blue""></div><div class=""machine bottom-left green-outline""></div><div class=""machine bottom-right red""></div></div></div></div>","arrowup","","","","gambling_choice","1","13","arrowup","top-center","blue","arrowleft","bottom-left","green","arrowleft","bottom-left","green","arrowright","bottom-right","red","0","0","0","0","-0.05","-0.05","true","false","","","","","",""
"html-keyboard-response","66","1623297","0.0-5.0-102.0-0.0","69d5525ec7afcfce08d8608b","69f10c5d5c1b9b3130e33fee","0.5","desktop","0","0","1","","","","","","luck_game","","null","<div id=""score-counter"">TOTAL SCORE: &pound;0.00</div><div class=""experiment-container""><div class=""center-zone""><div class=""cross""></div><div class=""triangle-grid""><div class=""machine top-center blue""></div><div class=""machine bottom-left green-outline""></div><div class=""machine bottom-right red""></div></div></div></div>","null","","","","","","","","","","","","","","","","","","","","","","","","","","","","","","","",""
"html-keyboard-response","67","1623803","0.0-5.0-103.0-0.0","69d5525ec7afcfce08d8608b","69f10c5d5c1b9b3130e33fee","0.5","desktop","0","0","1","","","","","","luck_game","","null","<div id=""score-counter"">TOTAL SCORE: &pound;0.00</div><div class=""experiment-container""><div class=""center-zone""><div class=""cross""></div></div></div>","null","","","","","","","","","","","","","","","","","","","","","","","","","","","","","","","",""
"html-keyboard-response","68","1624816","0.0-5.0-104.0-0.0","69d5525ec7afcfce08d8608b","69f10c5d5c1b9b3130e33fee","0.5","desktop","0","0","1","","","","","","luck_game","","null","<div id=""score-counter"">TOTAL SCORE: &pound;0.00</div><div class=""experiment-container""><div class=""center-zone""><div class=""cross""></div>
                <div style=""position: absolute; z-index: 10; display: flex; flex-direction: column; align-items: center; justify-content: center;"">
                    <div class=""lose-text"" style=""font-size: 48px; font-weight: bold; margin-bottom: 20px; text-shadow: 2px 2px 4px #000;"">LOSE</div>
                    <img src=""images/coin_no_reward.png"" class=""reward-img"" style=""background-color: black; border-radius: 50%;"">
                    <div class=""lose-text"" style=""font-size: 48px; font-weight: bold; margin-top: 20px; text-shadow: 2px 2px 4px #000;"">-0.05&pound;</div>
                </div></div></div>","null","","","","","","","","","","","","","","","","","","","","","","","","","","","","","","","",""
"html-keyboard-response","69","1625733","0.0-5.0-107.0","69d5525ec7afcfce08d8608b","69f10c5d5c1b9b3130e33fee","0.5","desktop","0","0","1","","","","","","luck_game","","915","<div id=""score-counter"">TOTAL SCORE: &pound;0.00</div><div class=""experiment-container""><div class=""center-zone""><div class=""cross""></div><div class=""triangle-grid""><div class=""machine top-center blue""></div><div class=""machine bottom-left green""></div><div class=""machine bottom-right red-outline""></div></div></div></div>","arrowleft","","","","gambling_choice","1","14","arrowleft","bottom-left","green","arrowup","top-center","blue","arrowright","bottom-right","red","arrowleft","bottom-left","green","0","0","0","0","-0.05","-0.05","true","false","","","","","",""
"html-keyboard-response","70","1625846","0.0-5.0-108.0-0.0","69d5525ec7afcfce08d8608b","69f10c5d5c1b9b3130e33fee","0.5","desktop","0","0","1","","","","","","luck_game","","null","<div id=""score-counter"">TOTAL SCORE: &pound;0.00</div><div class=""experiment-container""><div class=""center-zone""><div class=""cross""></div><div class=""triangle-grid""><div class=""machine top-center blue""></div><div class=""machine bottom-left green""></div><div class=""machine bottom-right red-outline""></div></div></div></div>","null","","","","","","","","","","","","","","","","","","","","","","","","","","","","","","","",""
"html-keyboard-response","71","1626353","0.0-5.0-109.0-0.0","69d5525ec7afcfce08d8608b","69f10c5d5c1b9b3130e33fee","0.5","desktop","0","0","1","","","","","","luck_game","","null","<div id=""score-counter"">TOTAL SCORE: &pound;0.00</div><div class=""experiment-container""><div class=""center-zone""><div class=""cross""></div></div></div>","null","","","","","","","","","","","","","","","","","","","","","","","","","","","","","","","",""
"html-keyboard-response","72","1627363","0.0-5.0-110.0-0.0","69d5525ec7afcfce08d8608b","69f10c5d5c1b9b3130e33fee","0.5","desktop","0","0","1","","","","","","luck_game","","null","<div id=""score-counter"">TOTAL SCORE: &pound;0.00</div><div class=""experiment-container""><div class=""center-zone""><div class=""cross""></div>
                <div style=""position: absolute; z-index: 10; display: flex; flex-direction: column; align-items: center; justify-content: center;"">
                    <div class=""lose-text"" style=""font-size: 48px; font-weight: bold; margin-bottom: 20px; text-shadow: 2px 2px 4px #000;"">LOSE</div>
                    <img src=""images/coin_no_reward.png"" class=""reward-img"" style=""background-color: black; border-radius: 50%;"">
                    <div class=""lose-text"" style=""font-size: 48px; font-weight: bold; margin-top: 20px; text-shadow: 2px 2px 4px #000;"">-0.05&pound;</div>
                </div></div></div>","null","","","","","","","","","","","","","","","","","","","","","","","","","","","","","","","",""
"html-keyboard-response","73","1628357","0.0-5.0-113.0","69d5525ec7afcfce08d8608b","69f10c5d5c1b9b3130e33fee","0.5","desktop","0","0","1","","","","","","luck_game","","993","<div id=""score-counter"">TOTAL SCORE: &pound;0.00</div><div class=""experiment-container""><div class=""center-zone""><div class=""cross""></div><div class=""triangle-grid""><div class=""machine top-center blue""></div><div class=""machine bottom-left green""></div><div class=""machine bottom-right red-outline""></div></div></div></div>","arrowup","","","","gambling_choice","1","15","arrowup","top-center","blue","arrowleft","bottom-left","green","arrowright","bottom-right","red","arrowright","bottom-right","red","0","1","0.05","0","0.05","-0.05","true","false","","","","","",""
"html-keyboard-response","74","1628462","0.0-5.0-114.0-0.0","69d5525ec7afcfce08d8608b","69f10c5d5c1b9b3130e33fee","0.5","desktop","0","0","1","","","","","","luck_game","","null","<div id=""score-counter"">TOTAL SCORE: &pound;0.00</div><div class=""experiment-container""><div class=""center-zone""><div class=""cross""></div><div class=""triangle-grid""><div class=""machine top-center blue""></div><div class=""machine bottom-left green""></div><div class=""machine bottom-right red-outline""></div></div></div></div>","null","","","","","","","","","","","","","","","","","","","","","","","","","","","","","","","",""
"html-keyboard-response","75","1628969","0.0-5.0-115.0-0.0","69d5525ec7afcfce08d8608b","69f10c5d5c1b9b3130e33fee","0.5","desktop","0","0","1","","","","","","luck_game","","null","<div id=""score-counter"">TOTAL SCORE: &pound;0.00</div><div class=""experiment-container""><div class=""center-zone""><div class=""cross""></div></div></div>","null","","","","","","","","","","","","","","","","","","","","","","","","","","","","","","","",""
"html-keyboard-response","76","1629984","0.0-5.0-116.0-0.0","69d5525ec7afcfce08d8608b","69f10c5d5c1b9b3130e33fee","0.5","desktop","0","0","1","","","","","","luck_game","","null","<div id=""score-counter"">TOTAL SCORE: &pound;0.05</div><div class=""experiment-container""><div class=""center-zone""><div class=""cross""></div>
                <div style=""position: absolute; z-index: 10; display: flex; flex-direction: column; align-items: center; justify-content: center;"">
                    <div class=""win-text"" style=""font-size: 48px; font-weight: bold; margin-bottom: 20px; text-shadow: 2px 2px 4px #000;"">WIN</div>
                    <img src=""images/coin_reward.png"" class=""reward-img"" style=""background-color: black; border-radius: 50%;"">
                    <div class=""win-text"" style=""font-size: 48px; font-weight: bold; margin-top: 20px; text-shadow: 2px 2px 4px #000;"">+0.05&pound;</div>
                </div></div></div>","null","","","","","","","","","","","","","","","","","","","","","","","","","","","","","","","",""
"html-keyboard-response","77","1631146","0.0-5.0-119.0","69d5525ec7afcfce08d8608b","69f10c5d5c1b9b3130e33fee","0.5","desktop","0","0","1","","","","","","luck_game","","1161","<div id=""score-counter"">TOTAL SCORE: &pound;0.05</div><div class=""experiment-container""><div class=""center-zone""><div class=""cross""></div><div class=""triangle-grid""><div class=""machine top-center blue-outline""></div><div class=""machine bottom-left green""></div><div class=""machine bottom-right red""></div></div></div></div>","arrowright","","","","gambling_choice","1","16","arrowright","bottom-right","red","arrowup","top-center","blue","arrowup","top-center","blue","arrowright","bottom-right","red","1","1","0.1","0.05","0.05","0.05","true","false","","","","","",""
"html-keyboard-response","78","1631261","0.0-5.0-120.0-0.0","69d5525ec7afcfce08d8608b","69f10c5d5c1b9b3130e33fee","0.5","desktop","0","0","1","","","","","","luck_game","","null","<div id=""score-counter"">TOTAL SCORE: &pound;0.05</div><div class=""experiment-container""><div class=""center-zone""><div class=""cross""></div><div class=""triangle-grid""><div class=""machine top-center blue-outline""></div><div class=""machine bottom-left green""></div><div class=""machine bottom-right red""></div></div></div></div>","null","","","","","","","","","","","","","","","","","","","","","","","","","","","","","","","",""
"html-keyboard-response","79","1631769","0.0-5.0-121.0-0.0","69d5525ec7afcfce08d8608b","69f10c5d5c1b9b3130e33fee","0.5","desktop","0","0","1","","","","","","luck_game","","null","<div id=""score-counter"">TOTAL SCORE: &pound;0.05</div><div class=""experiment-container""><div class=""center-zone""><div class=""cross""></div></div></div>","null","","","","","","","","","","","","","","","","","","","","","","","","","","","","","","","",""
"html-keyboard-response","80","1632784","0.0-5.0-122.0-0.0","69d5525ec7afcfce08d8608b","69f10c5d5c1b9b3130e33fee","0.5","desktop","0","0","1","","","","","","luck_game","","null","<div id=""score-counter"">TOTAL SCORE: &pound;0.10</div><div class=""experiment-container""><div class=""center-zone""><div class=""cross""></div>
                <div style=""position: absolute; z-index: 10; display: flex; flex-direction: column; align-items: center; justify-content: center;"">
                    <div class=""win-text"" style=""font-size: 48px; font-weight: bold; margin-bottom: 20px; text-shadow: 2px 2px 4px #000;"">WIN</div>
                    <img src=""images/coin_reward.png"" class=""reward-img"" style=""background-color: black; border-radius: 50%;"">
                    <div class=""win-text"" style=""font-size: 48px; font-weight: bold; margin-top: 20px; text-shadow: 2px 2px 4px #000;"">+0.05&pound;</div>
                </div></div></div>","null","","","","","","","","","","","","","","","","","","","","","","","","","","","","","","","",""
"html-keyboard-response","81","1633775","0.0-5.0-125.0","69d5525ec7afcfce08d8608b","69f10c5d5c1b9b3130e33fee","0.5","desktop","0","0","1","","","","","","luck_game","","989","<div id=""score-counter"">TOTAL SCORE: &pound;0.10</div><div class=""experiment-container""><div class=""center-zone""><div class=""cross""></div><div class=""triangle-grid""><div class=""machine top-center blue-outline""></div><div class=""machine bottom-left green""></div><div class=""machine bottom-right red""></div></div></div></div>","arrowright","","","","gambling_choice","1","17","arrowright","bottom-right","red","arrowright","bottom-right","red","arrowup","top-center","blue","arrowup","top-center","blue","1","1","0.15","0.1","0.05","0.05","true","false","","","","","",""
"html-keyboard-response","82","1633877","0.0-5.0-126.0-0.0","69d5525ec7afcfce08d8608b","69f10c5d5c1b9b3130e33fee","0.5","desktop","0","0","1","","","","","","luck_game","","null","<div id=""score-counter"">TOTAL SCORE: &pound;0.10</div><div class=""experiment-container""><div class=""center-zone""><div class=""cross""></div><div class=""triangle-grid""><div class=""machine top-center blue-outline""></div><div class=""machine bottom-left green""></div><div class=""machine bottom-right red""></div></div></div></div>","null","","","","","","","","","","","","","","","","","","","","","","","","","","","","","","","",""
"html-keyboard-response","83","1634385","0.0-5.0-127.0-0.0","69d5525ec7afcfce08d8608b","69f10c5d5c1b9b3130e33fee","0.5","desktop","0","0","1","","","","","","luck_game","","null","<div id=""score-counter"">TOTAL SCORE: &pound;0.10</div><div class=""experiment-container""><div class=""center-zone""><div class=""cross""></div></div></div>","null","","","","","","","","","","","","","","","","","","","","","","","","","","","","","","","",""
"html-keyboard-response","84","1635400","0.0-5.0-128.0-0.0","69d5525ec7afcfce08d8608b","69f10c5d5c1b9b3130e33fee","0.5","desktop","0","0","1","","","","","","luck_game","","null","<div id=""score-counter"">TOTAL SCORE: &pound;0.15</div><div class=""experiment-container""><div class=""center-zone""><div class=""cross""></div>
                <div style=""position: absolute; z-index: 10; display: flex; flex-direction: column; align-items: center; justify-content: center;"">
                    <div class=""win-text"" style=""font-size: 48px; font-weight: bold; margin-bottom: 20px; text-shadow: 2px 2px 4px #000;"">WIN</div>
                    <img src=""images/coin_reward.png"" class=""reward-img"" style=""background-color: black; border-radius: 50%;"">
                    <div class=""win-text"" style=""font-size: 48px; font-weight: bold; margin-top: 20px; text-shadow: 2px 2px 4px #000;"">+0.05&pound;</div>
                </div></div></div>","null","","","","","","","","","","","","","","","","","","","","","","","","","","","","","","","",""
"html-keyboard-response","85","1636612","0.0-5.0-131.0","69d5525ec7afcfce08d8608b","69f10c5d5c1b9b3130e33fee","0.5","desktop","0","0","1","","","","","","luck_game","","1210","<div id=""score-counter"">TOTAL SCORE: &pound;0.15</div><div class=""experiment-container""><div class=""center-zone""><div class=""cross""></div><div class=""triangle-grid""><div class=""machine top-center blue-outline""></div><div class=""machine bottom-left green""></div><div class=""machine bottom-right red""></div></div></div></div>","arrowright","","","","gambling_choice","1","18","arrowright","bottom-right","red","arrowright","bottom-right","red","arrowup","top-center","blue","arrowup","top-center","blue","1","0","0.1","0.15","-0.05","0.05","true","false","","","","","",""
"html-keyboard-response","86","1636727","0.0-5.0-132.0-0.0","69d5525ec7afcfce08d8608b","69f10c5d5c1b9b3130e33fee","0.5","desktop","0","0","1","","","","","","luck_game","","null","<div id=""score-counter"">TOTAL SCORE: &pound;0.15</div><div class=""experiment-container""><div class=""center-zone""><div class=""cross""></div><div class=""triangle-grid""><div class=""machine top-center blue-outline""></div><div class=""machine bottom-left green""></div><div class=""machine bottom-right red""></div></div></div></div>","null","","","","","","","","","","","","","","","","","","","","","","","","","","","","","","","",""
"html-keyboard-response","87","1637234","0.0-5.0-133.0-0.0","69d5525ec7afcfce08d8608b","69f10c5d5c1b9b3130e33fee","0.5","desktop","0","0","1","","","","","","luck_game","","null","<div id=""score-counter"">TOTAL SCORE: &pound;0.15</div><div class=""experiment-container""><div class=""center-zone""><div class=""cross""></div></div></div>","null","","","","","","","","","","","","","","","","","","","","","","","","","","","","","","","",""
"html-keyboard-response","88","1638250","0.0-5.0-134.0-0.0","69d5525ec7afcfce08d8608b","69f10c5d5c1b9b3130e33fee","0.5","desktop","0","0","1","","","","","","luck_game","","null","<div id=""score-counter"">TOTAL SCORE: &pound;0.10</div><div class=""experiment-container""><div class=""center-zone""><div class=""cross""></div>
                <div style=""position: absolute; z-index: 10; display: flex; flex-direction: column; align-items: center; justify-content: center;"">
                    <div class=""lose-text"" style=""font-size: 48px; font-weight: bold; margin-bottom: 20px; text-shadow: 2px 2px 4px #000;"">LOSE</div>
                    <img src=""images/coin_no_reward.png"" class=""reward-img"" style=""background-color: black; border-radius: 50%;"">
                    <div class=""lose-text"" style=""font-size: 48px; font-weight: bold; margin-top: 20px; text-shadow: 2px 2px 4px #000;"">-0.05&pound;</div>
                </div></div></div>","null","","","","","","","","","","","","","","","","","","","","","","","","","","","","","","","",""
"html-keyboard-response","89","1640115","0.0-5.0-137.0","69d5525ec7afcfce08d8608b","69f10c5d5c1b9b3130e33fee","0.5","desktop","0","0","1","","","","","","luck_game","","1863","<div id=""score-counter"">TOTAL SCORE: &pound;0.10</div><div class=""experiment-container""><div class=""center-zone""><div class=""cross""></div><div class=""triangle-grid""><div class=""machine top-center blue""></div><div class=""machine bottom-left green""></div><div class=""machine bottom-right red-outline""></div></div></div></div>","arrowup","","","","gambling_choice","1","19","arrowup","top-center","blue","arrowright","bottom-right","red","arrowright","bottom-right","red","arrowup","top-center","blue","0","0","0.05","0.1","-0.05","-0.05","true","false","","","","","",""
"html-keyboard-response","90","1640226","0.0-5.0-138.0-0.0","69d5525ec7afcfce08d8608b","69f10c5d5c1b9b3130e33fee","0.5","desktop","0","0","1","","","","","","luck_game","","null","<div id=""score-counter"">TOTAL SCORE: &pound;0.10</div><div class=""experiment-container""><div class=""center-zone""><div class=""cross""></div><div class=""triangle-grid""><div class=""machine top-center blue""></div><div class=""machine bottom-left green""></div><div class=""machine bottom-right red-outline""></div></div></div></div>","null","","","","","","","","","","","","","","","","","","","","","","","","","","","","","","","",""
"html-keyboard-response","91","1640734","0.0-5.0-139.0-0.0","69d5525ec7afcfce08d8608b","69f10c5d5c1b9b3130e33fee","0.5","desktop","0","0","1","","","","","","luck_game","","null","<div id=""score-counter"">TOTAL SCORE: &pound;0.10</div><div class=""experiment-container""><div class=""center-zone""><div class=""cross""></div></div></div>","null","","","","","","","","","","","","","","","","","","","","","","","","","","","","","","","",""
"html-keyboard-response","92","1641749","0.0-5.0-140.0-0.0","69d5525ec7afcfce08d8608b","69f10c5d5c1b9b3130e33fee","0.5","desktop","0","0","1","","","","","","luck_game","","null","<div id=""score-counter"">TOTAL SCORE: &pound;0.05</div><div class=""experiment-container""><div class=""center-zone""><div class=""cross""></div>
                <div style=""position: absolute; z-index: 10; display: flex; flex-direction: column; align-items: center; justify-content: center;"">
                    <div class=""lose-text"" style=""font-size: 48px; font-weight: bold; margin-bottom: 20px; text-shadow: 2px 2px 4px #000;"">LOSE</div>
                    <img src=""images/coin_no_reward.png"" class=""reward-img"" style=""background-color: black; border-radius: 50%;"">
                    <div class=""lose-text"" style=""font-size: 48px; font-weight: bold; margin-top: 20px; text-shadow: 2px 2px 4px #000;"">-0.05&pound;</div>
                </div></div></div>","null","","","","","","","","","","","","","","","","","","","","","","","","","","","","","","","",""
"html-keyboard-response","93","1642802","0.0-5.0-143.0","69d5525ec7afcfce08d8608b","69f10c5d5c1b9b3130e33fee","0.5","desktop","0","0","1","","","","","","luck_game","","1052","<div id=""score-counter"">TOTAL SCORE: &pound;0.05</div><div class=""experiment-container""><div class=""center-zone""><div class=""cross""></div><div class=""triangle-grid""><div class=""machine top-center blue""></div><div class=""machine bottom-left green""></div><div class=""machine bottom-right red-outline""></div></div></div></div>","arrowleft","","","","gambling_choice","1","20","arrowleft","bottom-left","green","arrowup","top-center","blue","arrowright","bottom-right","red","arrowright","bottom-right","red","0","1","0.1","0.05","0.05","-0.05","true","false","","","","","",""
"html-keyboard-response","94","1642910","0.0-5.0-144.0-0.0","69d5525ec7afcfce08d8608b","69f10c5d5c1b9b3130e33fee","0.5","desktop","0","0","1","","","","","","luck_game","","null","<div id=""score-counter"">TOTAL SCORE: &pound;0.05</div><div class=""experiment-container""><div class=""center-zone""><div class=""cross""></div><div class=""triangle-grid""><div class=""machine top-center blue""></div><div class=""machine bottom-left green""></div><div class=""machine bottom-right red-outline""></div></div></div></div>","null","","","","","","","","","","","","","","","","","","","","","","","","","","","","","","","",""
"html-keyboard-response","95","1643417","0.0-5.0-145.0-0.0","69d5525ec7afcfce08d8608b","69f10c5d5c1b9b3130e33fee","0.5","desktop","0","0","1","","","","","","luck_game","","null","<div id=""score-counter"">TOTAL SCORE: &pound;0.05</div><div class=""experiment-container""><div class=""center-zone""><div class=""cross""></div></div></div>","null","","","","","","","","","","","","","","","","","","","","","","","","","","","","","","","",""
"html-keyboard-response","96","1644432","0.0-5.0-146.0-0.0","69d5525ec7afcfce08d8608b","69f10c5d5c1b9b3130e33fee","0.5","desktop","0","0","1","","","","","","luck_game","","null","<div id=""score-counter"">TOTAL SCORE: &pound;0.10</div><div class=""experiment-container""><div class=""center-zone""><div class=""cross""></div>
                <div style=""position: absolute; z-index: 10; display: flex; flex-direction: column; align-items: center; justify-content: center;"">
                    <div class=""win-text"" style=""font-size: 48px; font-weight: bold; margin-bottom: 20px; text-shadow: 2px 2px 4px #000;"">WIN</div>
                    <img src=""images/coin_reward.png"" class=""reward-img"" style=""background-color: black; border-radius: 50%;"">
                    <div class=""win-text"" style=""font-size: 48px; font-weight: bold; margin-top: 20px; text-shadow: 2px 2px 4px #000;"">+0.05&pound;</div>
                </div></div></div>","null","","","","","","","","","","","","","","","","","","","","","","","","","","","","","","","",""
"html-keyboard-response","97","1645151","0.0-5.0-149.0","69d5525ec7afcfce08d8608b","69f10c5d5c1b9b3130e33fee","0.5","desktop","0","0","1","","","","","","luck_game","","718","<div id=""score-counter"">TOTAL SCORE: &pound;0.10</div><div class=""experiment-container""><div class=""center-zone""><div class=""cross""></div><div class=""triangle-grid""><div class=""machine top-center blue""></div><div class=""machine bottom-left green""></div><div class=""machine bottom-right red-outline""></div></div></div></div>","arrowleft","","","","gambling_choice","1","21","arrowleft","bottom-left","green","arrowleft","bottom-left","green","arrowright","bottom-right","red","arrowright","bottom-right","red","1","0","0.05","0.1","-0.05","0.05","true","false","","","","","",""
"html-keyboard-response","98","1645258","0.0-5.0-150.0-0.0","69d5525ec7afcfce08d8608b","69f10c5d5c1b9b3130e33fee","0.5","desktop","0","0","1","","","","","","luck_game","","null","<div id=""score-counter"">TOTAL SCORE: &pound;0.10</div><div class=""experiment-container""><div class=""center-zone""><div class=""cross""></div><div class=""triangle-grid""><div class=""machine top-center blue""></div><div class=""machine bottom-left green""></div><div class=""machine bottom-right red-outline""></div></div></div></div>","null","","","","","","","","","","","","","","","","","","","","","","","","","","","","","","","",""
"html-keyboard-response","99","1645766","0.0-5.0-151.0-0.0","69d5525ec7afcfce08d8608b","69f10c5d5c1b9b3130e33fee","0.5","desktop","0","0","1","","","","","","luck_game","","null","<div id=""score-counter"">TOTAL SCORE: &pound;0.10</div><div class=""experiment-container""><div class=""center-zone""><div class=""cross""></div></div></div>","null","","","","","","","","","","","","","","","","","","","","","","","","","","","","","","","",""
"html-keyboard-response","100","1646778","0.0-5.0-152.0-0.0","69d5525ec7afcfce08d8608b","69f10c5d5c1b9b3130e33fee","0.5","desktop","0","0","1","","","","","","luck_game","","null","<div id=""score-counter"">TOTAL SCORE: &pound;0.05</div><div class=""experiment-container""><div class=""center-zone""><div class=""cross""></div>
                <div style=""position: absolute; z-index: 10; display: flex; flex-direction: column; align-items: center; justify-content: center;"">
                    <div class=""lose-text"" style=""font-size: 48px; font-weight: bold; margin-bottom: 20px; text-shadow: 2px 2px 4px #000;"">LOSE</div>
                    <img src=""images/coin_no_reward.png"" class=""reward-img"" style=""background-color: black; border-radius: 50%;"">
                    <div class=""lose-text"" style=""font-size: 48px; font-weight: bold; margin-top: 20px; text-shadow: 2px 2px 4px #000;"">-0.05&pound;</div>
                </div></div></div>","null","","","","","","","","","","","","","","","","","","","","","","","","","","","","","","","",""
"html-keyboard-response","101","1647572","0.0-5.0-155.0","69d5525ec7afcfce08d8608b","69f10c5d5c1b9b3130e33fee","0.5","desktop","0","0","1","","","","","","luck_game","","791","<div id=""score-counter"">TOTAL SCORE: &pound;0.05</div><div class=""experiment-container""><div class=""center-zone""><div class=""cross""></div><div class=""triangle-grid""><div class=""machine top-center blue-outline""></div><div class=""machine bottom-left green""></div><div class=""machine bottom-right red""></div></div></div></div>","arrowright","","","","gambling_choice","1","22","arrowright","bottom-right","red","arrowleft","bottom-left","green","arrowup","top-center","blue","arrowright","bottom-right","red","0","1","0.1","0.05","0.05","-0.05","true","false","","","","","",""
"html-keyboard-response","102","1647676","0.0-5.0-156.0-0.0","69d5525ec7afcfce08d8608b","69f10c5d5c1b9b3130e33fee","0.5","desktop","0","0","1","","","","","","luck_game","","null","<div id=""score-counter"">TOTAL SCORE: &pound;0.05</div><div class=""experiment-container""><div class=""center-zone""><div class=""cross""></div><div class=""triangle-grid""><div class=""machine top-center blue-outline""></div><div class=""machine bottom-left green""></div><div class=""machine bottom-right red""></div></div></div></div>","null","","","","","","","","","","","","","","","","","","","","","","","","","","","","","","","",""
"html-keyboard-response","103","1648181","0.0-5.0-157.0-0.0","69d5525ec7afcfce08d8608b","69f10c5d5c1b9b3130e33fee","0.5","desktop","0","0","1","","","","","","luck_game","","null","<div id=""score-counter"">TOTAL SCORE: &pound;0.05</div><div class=""experiment-container""><div class=""center-zone""><div class=""cross""></div></div></div>","null","","","","","","","","","","","","","","","","","","","","","","","","","","","","","","","",""
"html-keyboard-response","104","1649197","0.0-5.0-158.0-0.0","69d5525ec7afcfce08d8608b","69f10c5d5c1b9b3130e33fee","0.5","desktop","0","0","1","","","","","","luck_game","","null","<div id=""score-counter"">TOTAL SCORE: &pound;0.10</div><div class=""experiment-container""><div class=""center-zone""><div class=""cross""></div>
                <div style=""position: absolute; z-index: 10; display: flex; flex-direction: column; align-items: center; justify-content: center;"">
                    <div class=""win-text"" style=""font-size: 48px; font-weight: bold; margin-bottom: 20px; text-shadow: 2px 2px 4px #000;"">WIN</div>
                    <img src=""images/coin_reward.png"" class=""reward-img"" style=""background-color: black; border-radius: 50%;"">
                    <div class=""win-text"" style=""font-size: 48px; font-weight: bold; margin-top: 20px; text-shadow: 2px 2px 4px #000;"">+0.05&pound;</div>
                </div></div></div>","null","","","","","","","","","","","","","","","","","","","","","","","","","","","","","","","",""
"html-keyboard-response","105","1650576","0.0-5.0-161.0","69d5525ec7afcfce08d8608b","69f10c5d5c1b9b3130e33fee","0.5","desktop","0","0","1","","","","","","luck_game","","1377","<div id=""score-counter"">TOTAL SCORE: &pound;0.10</div><div class=""experiment-container""><div class=""center-zone""><div class=""cross""></div><div class=""triangle-grid""><div class=""machine top-center blue-outline""></div><div class=""machine bottom-left green""></div><div class=""machine bottom-right red""></div></div></div></div>","arrowleft","","","","gambling_choice","1","23","arrowleft","bottom-left","green","arrowright","bottom-right","red","arrowup","top-center","blue","arrowup","top-center","blue","1","1","0.15","0.1","0.05","0.05","true","false","","","","","",""
"html-keyboard-response","106","1650691","0.0-5.0-162.0-0.0","69d5525ec7afcfce08d8608b","69f10c5d5c1b9b3130e33fee","0.5","desktop","0","0","1","","","","","","luck_game","","null","<div id=""score-counter"">TOTAL SCORE: &pound;0.10</div><div class=""experiment-container""><div class=""center-zone""><div class=""cross""></div><div class=""triangle-grid""><div class=""machine top-center blue-outline""></div><div class=""machine bottom-left green""></div><div class=""machine bottom-right red""></div></div></div></div>","null","","","","","","","","","","","","","","","","","","","","","","","","","","","","","","","",""
"html-keyboard-response","107","1651198","0.0-5.0-163.0-0.0","69d5525ec7afcfce08d8608b","69f10c5d5c1b9b3130e33fee","0.5","desktop","0","0","1","","","","","","luck_game","","null","<div id=""score-counter"">TOTAL SCORE: &pound;0.10</div><div class=""experiment-container""><div class=""center-zone""><div class=""cross""></div></div></div>","null","","","","","","","","","","","","","","","","","","","","","","","","","","","","","","","",""
"html-keyboard-response","108","1652213","0.0-5.0-164.0-0.0","69d5525ec7afcfce08d8608b","69f10c5d5c1b9b3130e33fee","0.5","desktop","0","0","1","","","","","","luck_game","","null","<div id=""score-counter"">TOTAL SCORE: &pound;0.15</div><div class=""experiment-container""><div class=""center-zone""><div class=""cross""></div>
                <div style=""position: absolute; z-index: 10; display: flex; flex-direction: column; align-items: center; justify-content: center;"">
                    <div class=""win-text"" style=""font-size: 48px; font-weight: bold; margin-bottom: 20px; text-shadow: 2px 2px 4px #000;"">WIN</div>
                    <img src=""images/coin_reward.png"" class=""reward-img"" style=""background-color: black; border-radius: 50%;"">
                    <div class=""win-text"" style=""font-size: 48px; font-weight: bold; margin-top: 20px; text-shadow: 2px 2px 4px #000;"">+0.05&pound;</div>
                </div></div></div>","null","","","","","","","","","","","","","","","","","","","","","","","","","","","","","","","",""
"html-keyboard-response","109","1652888","0.0-5.0-167.0","69d5525ec7afcfce08d8608b","69f10c5d5c1b9b3130e33fee","0.5","desktop","0","0","1","","","","","","luck_game","","674","<div id=""score-counter"">TOTAL SCORE: &pound;0.15</div><div class=""experiment-container""><div class=""center-zone""><div class=""cross""></div><div class=""triangle-grid""><div class=""machine top-center blue-outline""></div><div class=""machine bottom-left green""></div><div class=""machine bottom-right red""></div></div></div></div>","arrowright","","","","gambling_choice","1","24","arrowright","bottom-right","red","arrowleft","bottom-left","green","arrowup","top-center","blue","arrowup","top-center","blue","1","0","0.1","0.15","-0.05","0.05","true","false","","","","","",""
"html-keyboard-response","110","1652993","0.0-5.0-168.0-0.0","69d5525ec7afcfce08d8608b","69f10c5d5c1b9b3130e33fee","0.5","desktop","0","0","1","","","","","","luck_game","","null","<div id=""score-counter"">TOTAL SCORE: &pound;0.15</div><div class=""experiment-container""><div class=""center-zone""><div class=""cross""></div><div class=""triangle-grid""><div class=""machine top-center blue-outline""></div><div class=""machine bottom-left green""></div><div class=""machine bottom-right red""></div></div></div></div>","null","","","","","","","","","","","","","","","","","","","","","","","","","","","","","","","",""
"html-keyboard-response","111","1653510","0.0-5.0-169.0-0.0","69d5525ec7afcfce08d8608b","69f10c5d5c1b9b3130e33fee","0.5","desktop","0","0","1","","","","","","luck_game","","null","<div id=""score-counter"">TOTAL SCORE: &pound;0.15</div><div class=""experiment-container""><div class=""center-zone""><div class=""cross""></div></div></div>","null","","","","","","","","","","","","","","","","","","","","","","","","","","","","","","","",""
"html-keyboard-response","112","1654514","0.0-5.0-170.0-0.0","69d5525ec7afcfce08d8608b","69f10c5d5c1b9b3130e33fee","0.5","desktop","0","0","1","","","","","","luck_game","","null","<div id=""score-counter"">TOTAL SCORE: &pound;0.10</div><div class=""experiment-container""><div class=""center-zone""><div class=""cross""></div>
                <div style=""position: absolute; z-index: 10; display: flex; flex-direction: column; align-items: center; justify-content: center;"">
                    <div class=""lose-text"" style=""font-size: 48px; font-weight: bold; margin-bottom: 20px; text-shadow: 2px 2px 4px #000;"">LOSE</div>
                    <img src=""images/coin_no_reward.png"" class=""reward-img"" style=""background-color: black; border-radius: 50%;"">
                    <div class=""lose-text"" style=""font-size: 48px; font-weight: bold; margin-top: 20px; text-shadow: 2px 2px 4px #000;"">-0.05&pound;</div>
                </div></div></div>","null","","","","","","","","","","","","","","","","","","","","","","","","","","","","","","","",""
"html-keyboard-response","113","1655611","0.0-5.0-173.0","69d5525ec7afcfce08d8608b","69f10c5d5c1b9b3130e33fee","0.5","desktop","0","0","1","","","","","","luck_game","","1095","<div id=""score-counter"">TOTAL SCORE: &pound;0.10</div><div class=""experiment-container""><div class=""center-zone""><div class=""cross""></div><div class=""triangle-grid""><div class=""machine top-center blue""></div><div class=""machine bottom-left green-outline""></div><div class=""machine bottom-right red""></div></div></div></div>","arrowright","","","","gambling_choice","1","25","arrowright","bottom-right","red","arrowright","bottom-right","red","arrowleft","bottom-left","green","arrowup","top-center","blue","0","1","0.15","0.1","0.05","-0.05","true","false","","","","","",""
"html-keyboard-response","114","1655723","0.0-5.0-174.0-0.0","69d5525ec7afcfce08d8608b","69f10c5d5c1b9b3130e33fee","0.5","desktop","0","0","1","","","","","","luck_game","","null","<div id=""score-counter"">TOTAL SCORE: &pound;0.10</div><div class=""experiment-container""><div class=""center-zone""><div class=""cross""></div><div class=""triangle-grid""><div class=""machine top-center blue""></div><div class=""machine bottom-left green-outline""></div><div class=""machine bottom-right red""></div></div></div></div>","null","","","","","","","","","","","","","","","","","","","","","","","","","","","","","","","",""
"html-keyboard-response","115","1656231","0.0-5.0-175.0-0.0","69d5525ec7afcfce08d8608b","69f10c5d5c1b9b3130e33fee","0.5","desktop","0","0","1","","","","","","luck_game","","null","<div id=""score-counter"">TOTAL SCORE: &pound;0.10</div><div class=""experiment-container""><div class=""center-zone""><div class=""cross""></div></div></div>","null","","","","","","","","","","","","","","","","","","","","","","","","","","","","","","","",""
"html-keyboard-response","116","1657246","0.0-5.0-176.0-0.0","69d5525ec7afcfce08d8608b","69f10c5d5c1b9b3130e33fee","0.5","desktop","0","0","1","","","","","","luck_game","","null","<div id=""score-counter"">TOTAL SCORE: &pound;0.15</div><div class=""experiment-container""><div class=""center-zone""><div class=""cross""></div>
                <div style=""position: absolute; z-index: 10; display: flex; flex-direction: column; align-items: center; justify-content: center;"">
                    <div class=""win-text"" style=""font-size: 48px; font-weight: bold; margin-bottom: 20px; text-shadow: 2px 2px 4px #000;"">WIN</div>
                    <img src=""images/coin_reward.png"" class=""reward-img"" style=""background-color: black; border-radius: 50%;"">
                    <div class=""win-text"" style=""font-size: 48px; font-weight: bold; margin-top: 20px; text-shadow: 2px 2px 4px #000;"">+0.05&pound;</div>
                </div></div></div>","null","","","","","","","","","","","","","","","","","","","","","","","","","","","","","","","",""
"html-keyboard-response","117","1674168","0.0-5.0-179.0","69d5525ec7afcfce08d8608b","69f10c5d5c1b9b3130e33fee","0.5","desktop","0","0","1","","","","","","luck_game","","16920","
            <div class=""experiment-container"">
                <div style=""text-align: center; font-family: sans-serif;"">
                    <h2 style=""color: white; font-size: 40px; margin-bottom: 20px;"">Rest phase.</h2>
                    <p style=""font-size: 24px; color: white;"">Take as much time as needed.</p>
                    <p style=""font-size: 24px; color: white; margin-top: 40px;"">When ready, press <strong>Space</strong> to continue.</p>
                </div>
            </div>"," ","","","","rest_break","","","","","","","","","","","","","","","","","","","","","","","","","","","",""
"html-keyboard-response","118","1675549","0.0-5.0-180.0","69d5525ec7afcfce08d8608b","69f10c5d5c1b9b3130e33fee","0.5","desktop","0","0","1","","","","","","luck_game","","1379","<div id=""score-counter"">TOTAL SCORE: &pound;0.15</div><div class=""experiment-container""><div class=""center-zone""><div class=""cross""></div><div class=""triangle-grid""><div class=""machine top-center blue-outline""></div><div class=""machine bottom-left green""></div><div class=""machine bottom-right red""></div></div></div></div>","arrowright","","","","gambling_choice","2","1","arrowright","bottom-right","red","arrowright","bottom-right","red","arrowup","top-center","blue","arrowleft","bottom-left","green","1","0","0.1","0.15","-0.05","0.05","true","false","","","","","",""
"html-keyboard-response","119","1675652","0.0-5.0-181.0-0.0","69d5525ec7afcfce08d8608b","69f10c5d5c1b9b3130e33fee","0.5","desktop","0","0","1","","","","","","luck_game","","null","<div id=""score-counter"">TOTAL SCORE: &pound;0.15</div><div class=""experiment-container""><div class=""center-zone""><div class=""cross""></div><div class=""triangle-grid""><div class=""machine top-center blue-outline""></div><div class=""machine bottom-left green""></div><div class=""machine bottom-right red""></div></div></div></div>","null","","","","","","","","","","","","","","","","","","","","","","","","","","","","","","","",""
"html-keyboard-response","120","1676158","0.0-5.0-182.0-0.0","69d5525ec7afcfce08d8608b","69f10c5d5c1b9b3130e33fee","0.5","desktop","0","0","1","","","","","","luck_game","","null","<div id=""score-counter"">TOTAL SCORE: &pound;0.15</div><div class=""experiment-container""><div class=""center-zone""><div class=""cross""></div></div></div>","null","","","","","","","","","","","","","","","","","","","","","","","","","","","","","","","",""
"html-keyboard-response","121","1677175","0.0-5.0-183.0-0.0","69d5525ec7afcfce08d8608b","69f10c5d5c1b9b3130e33fee","0.5","desktop","0","0","1","","","","","","luck_game","","null","<div id=""score-counter"">TOTAL SCORE: &pound;0.10</div><div class=""experiment-container""><div class=""center-zone""><div class=""cross""></div>
                <div style=""position: absolute; z-index: 10; display: flex; flex-direction: column; align-items: center; justify-content: center;"">
                    <div class=""lose-text"" style=""font-size: 48px; font-weight: bold; margin-bottom: 20px; text-shadow: 2px 2px 4px #000;"">LOSE</div>
                    <img src=""images/coin_no_reward.png"" class=""reward-img"" style=""background-color: black; border-radius: 50%;"">
                    <div class=""lose-text"" style=""font-size: 48px; font-weight: bold; margin-top: 20px; text-shadow: 2px 2px 4px #000;"">-0.05&pound;</div>
                </div></div></div>","null","","","","","","","","","","","","","","","","","","","","","","","","","","","","","","","",""
"html-keyboard-response","122","1677868","0.0-5.0-186.0","69d5525ec7afcfce08d8608b","69f10c5d5c1b9b3130e33fee","0.5","desktop","0","0","1","","","","","","luck_game","","691","<div id=""score-counter"">TOTAL SCORE: &pound;0.10</div><div class=""experiment-container""><div class=""center-zone""><div class=""cross""></div><div class=""triangle-grid""><div class=""machine top-center blue""></div><div class=""machine bottom-left green""></div><div class=""machine bottom-right red-outline""></div></div></div></div>","arrowleft","","","","gambling_choice","2","2","arrowleft","bottom-left","green","arrowright","bottom-right","red","arrowright","bottom-right","red","arrowup","top-center","blue","0","1","0.15","0.1","0.05","-0.05","true","false","","","","","",""
"html-keyboard-response","123","1677985","0.0-5.0-187.0-0.0","69d5525ec7afcfce08d8608b","69f10c5d5c1b9b3130e33fee","0.5","desktop","0","0","1","","","","","","luck_game","","null","<div id=""score-counter"">TOTAL SCORE: &pound;0.10</div><div class=""experiment-container""><div class=""center-zone""><div class=""cross""></div><div class=""triangle-grid""><div class=""machine top-center blue""></div><div class=""machine bottom-left green""></div><div class=""machine bottom-right red-outline""></div></div></div></div>","null","","","","","","","","","","","","","","","","","","","","","","","","","","","","","","","",""
"html-keyboard-response","124","1678492","0.0-5.0-188.0-0.0","69d5525ec7afcfce08d8608b","69f10c5d5c1b9b3130e33fee","0.5","desktop","0","0","1","","","","","","luck_game","","null","<div id=""score-counter"">TOTAL SCORE: &pound;0.10</div><div class=""experiment-container""><div class=""center-zone""><div class=""cross""></div></div></div>","null","","","","","","","","","","","","","","","","","","","","","","","","","","","","","","","",""
"html-keyboard-response","125","1679519","0.0-5.0-189.0-0.0","69d5525ec7afcfce08d8608b","69f10c5d5c1b9b3130e33fee","0.5","desktop","0","0","1","","","","","","luck_game","","null","<div id=""score-counter"">TOTAL SCORE: &pound;0.15</div><div class=""experiment-container""><div class=""center-zone""><div class=""cross""></div>
                <div style=""position: absolute; z-index: 10; display: flex; flex-direction: column; align-items: center; justify-content: center;"">
                    <div class=""win-text"" style=""font-size: 48px; font-weight: bold; margin-bottom: 20px; text-shadow: 2px 2px 4px #000;"">WIN</div>
                    <img src=""images/coin_reward.png"" class=""reward-img"" style=""background-color: black; border-radius: 50%;"">
                    <div class=""win-text"" style=""font-size: 48px; font-weight: bold; margin-top: 20px; text-shadow: 2px 2px 4px #000;"">+0.05&pound;</div>
                </div></div></div>","null","","","","","","","","","","","","","","","","","","","","","","","","","","","","","","","",""
"html-keyboard-response","126","1680562","0.0-5.0-192.0","69d5525ec7afcfce08d8608b","69f10c5d5c1b9b3130e33fee","0.5","desktop","0","0","1","","","","","","luck_game","","1042","<div id=""score-counter"">TOTAL SCORE: &pound;0.15</div><div class=""experiment-container""><div class=""center-zone""><div class=""cross""></div><div class=""triangle-grid""><div class=""machine top-center blue""></div><div class=""machine bottom-left green-outline""></div><div class=""machine bottom-right red""></div></div></div></div>","arrowright","","","","gambling_choice","2","3","arrowright","bottom-right","red","arrowleft","bottom-left","green","arrowleft","bottom-left","green","arrowright","bottom-right","red","1","0","0.1","0.15","-0.05","0.05","true","false","","","","","",""
"html-keyboard-response","127","1680668","0.0-5.0-193.0-0.0","69d5525ec7afcfce08d8608b","69f10c5d5c1b9b3130e33fee","0.5","desktop","0","0","1","","","","","","luck_game","","null","<div id=""score-counter"">TOTAL SCORE: &pound;0.15</div><div class=""experiment-container""><div class=""center-zone""><div class=""cross""></div><div class=""triangle-grid""><div class=""machine top-center blue""></div><div class=""machine bottom-left green-outline""></div><div class=""machine bottom-right red""></div></div></div></div>","null","","","","","","","","","","","","","","","","","","","","","","","","","","","","","","","",""
"html-keyboard-response","128","1681175","0.0-5.0-194.0-0.0","69d5525ec7afcfce08d8608b","69f10c5d5c1b9b3130e33fee","0.5","desktop","0","0","1","","","","","","luck_game","","null","<div id=""score-counter"">TOTAL SCORE: &pound;0.15</div><div class=""experiment-container""><div class=""center-zone""><div class=""cross""></div></div></div>","null","","","","","","","","","","","","","","","","","","","","","","","","","","","","","","","",""
"html-keyboard-response","129","1682191","0.0-5.0-195.0-0.0","69d5525ec7afcfce08d8608b","69f10c5d5c1b9b3130e33fee","0.5","desktop","0","0","1","","","","","","luck_game","","null","<div id=""score-counter"">TOTAL SCORE: &pound;0.10</div><div class=""experiment-container""><div class=""center-zone""><div class=""cross""></div>
                <div style=""position: absolute; z-index: 10; display: flex; flex-direction: column; align-items: center; justify-content: center;"">
                    <div class=""lose-text"" style=""font-size: 48px; font-weight: bold; margin-bottom: 20px; text-shadow: 2px 2px 4px #000;"">LOSE</div>
                    <img src=""images/coin_no_reward.png"" class=""reward-img"" style=""background-color: black; border-radius: 50%;"">
                    <div class=""lose-text"" style=""font-size: 48px; font-weight: bold; margin-top: 20px; text-shadow: 2px 2px 4px #000;"">-0.05&pound;</div>
                </div></div></div>","null","","","","","","","","","","","","","","","","","","","","","","","","","","","","","","","",""
"html-keyboard-response","130","1683205","0.0-5.0-198.0","69d5525ec7afcfce08d8608b","69f10c5d5c1b9b3130e33fee","0.5","desktop","0","0","1","","","","","","luck_game","","1012","<div id=""score-counter"">TOTAL SCORE: &pound;0.10</div><div class=""experiment-container""><div class=""center-zone""><div class=""cross""></div><div class=""triangle-grid""><div class=""machine top-center blue""></div><div class=""machine bottom-left green-outline""></div><div class=""machine bottom-right red""></div></div></div></div>","arrowright","","","","gambling_choice","2","4","arrowright","bottom-right","red","arrowright","bottom-right","red","arrowleft","bottom-left","green","arrowleft","bottom-left","green","0","0","0.05","0.1","-0.05","-0.05","true","false","","","","","",""
"html-keyboard-response","131","1683317","0.0-5.0-199.0-0.0","69d5525ec7afcfce08d8608b","69f10c5d5c1b9b3130e33fee","0.5","desktop","0","0","1","","","","","","luck_game","","null","<div id=""score-counter"">TOTAL SCORE: &pound;0.10</div><div class=""experiment-container""><div class=""center-zone""><div class=""cross""></div><div class=""triangle-grid""><div class=""machine top-center blue""></div><div class=""machine bottom-left green-outline""></div><div class=""machine bottom-right red""></div></div></div></div>","null","","","","","","","","","","","","","","","","","","","","","","","","","","","","","","","",""
"html-keyboard-response","132","1683824","0.0-5.0-200.0-0.0","69d5525ec7afcfce08d8608b","69f10c5d5c1b9b3130e33fee","0.5","desktop","0","0","1","","","","","","luck_game","","null","<div id=""score-counter"">TOTAL SCORE: &pound;0.10</div><div class=""experiment-container""><div class=""center-zone""><div class=""cross""></div></div></div>","null","","","","","","","","","","","","","","","","","","","","","","","","","","","","","","","",""
"html-keyboard-response","133","1684840","0.0-5.0-201.0-0.0","69d5525ec7afcfce08d8608b","69f10c5d5c1b9b3130e33fee","0.5","desktop","0","0","1","","","","","","luck_game","","null","<div id=""score-counter"">TOTAL SCORE: &pound;0.05</div><div class=""experiment-container""><div class=""center-zone""><div class=""cross""></div>
                <div style=""position: absolute; z-index: 10; display: flex; flex-direction: column; align-items: center; justify-content: center;"">
                    <div class=""lose-text"" style=""font-size: 48px; font-weight: bold; margin-bottom: 20px; text-shadow: 2px 2px 4px #000;"">LOSE</div>
                    <img src=""images/coin_no_reward.png"" class=""reward-img"" style=""background-color: black; border-radius: 50%;"">
                    <div class=""lose-text"" style=""font-size: 48px; font-weight: bold; margin-top: 20px; text-shadow: 2px 2px 4px #000;"">-0.05&pound;</div>
                </div></div></div>","null","","","","","","","","","","","","","","","","","","","","","","","","","","","","","","","",""
"html-keyboard-response","134","1685609","0.0-5.0-204.0","69d5525ec7afcfce08d8608b","69f10c5d5c1b9b3130e33fee","0.5","desktop","0","0","1","","","","","","luck_game","","767","<div id=""score-counter"">TOTAL SCORE: &pound;0.05</div><div class=""experiment-container""><div class=""center-zone""><div class=""cross""></div><div class=""triangle-grid""><div class=""machine top-center blue""></div><div class=""machine bottom-left green-outline""></div><div class=""machine bottom-right red""></div></div></div></div>","arrowright","","","","gambling_choice","2","5","arrowright","bottom-right","red","arrowright","bottom-right","red","arrowleft","bottom-left","green","arrowleft","bottom-left","green","0","0","0","0.05","-0.05","-0.05","true","false","","","","","",""
"html-keyboard-response","135","1685717","0.0-5.0-205.0-0.0","69d5525ec7afcfce08d8608b","69f10c5d5c1b9b3130e33fee","0.5","desktop","0","0","1","","","","","","luck_game","","null","<div id=""score-counter"">TOTAL SCORE: &pound;0.05</div><div class=""experiment-container""><div class=""center-zone""><div class=""cross""></div><div class=""triangle-grid""><div class=""machine top-center blue""></div><div class=""machine bottom-left green-outline""></div><div class=""machine bottom-right red""></div></div></div></div>","null","","","","","","","","","","","","","","","","","","","","","","","","","","","","","","","",""
"html-keyboard-response","136","1686224","0.0-5.0-206.0-0.0","69d5525ec7afcfce08d8608b","69f10c5d5c1b9b3130e33fee","0.5","desktop","0","0","1","","","","","","luck_game","","null","<div id=""score-counter"">TOTAL SCORE: &pound;0.05</div><div class=""experiment-container""><div class=""center-zone""><div class=""cross""></div></div></div>","null","","","","","","","","","","","","","","","","","","","","","","","","","","","","","","","",""
"html-keyboard-response","137","1687240","0.0-5.0-207.0-0.0","69d5525ec7afcfce08d8608b","69f10c5d5c1b9b3130e33fee","0.5","desktop","0","0","1","","","","","","luck_game","","null","<div id=""score-counter"">TOTAL SCORE: &pound;0.00</div><div class=""experiment-container""><div class=""center-zone""><div class=""cross""></div>
                <div style=""position: absolute; z-index: 10; display: flex; flex-direction: column; align-items: center; justify-content: center;"">
                    <div class=""lose-text"" style=""font-size: 48px; font-weight: bold; margin-bottom: 20px; text-shadow: 2px 2px 4px #000;"">LOSE</div>
                    <img src=""images/coin_no_reward.png"" class=""reward-img"" style=""background-color: black; border-radius: 50%;"">
                    <div class=""lose-text"" style=""font-size: 48px; font-weight: bold; margin-top: 20px; text-shadow: 2px 2px 4px #000;"">-0.05&pound;</div>
                </div></div></div>","null","","","","","","","","","","","","","","","","","","","","","","","","","","","","","","","",""
"html-keyboard-response","138","1687563","0.0-5.0-210.0","69d5525ec7afcfce08d8608b","69f10c5d5c1b9b3130e33fee","0.5","desktop","0","0","1","","","","","","luck_game","","321","<div id=""score-counter"">TOTAL SCORE: &pound;0.00</div><div class=""experiment-container""><div class=""center-zone""><div class=""cross""></div><div class=""triangle-grid""><div class=""machine top-center blue""></div><div class=""machine bottom-left green""></div><div class=""machine bottom-right red-outline""></div></div></div></div>","arrowright","","","","gambling_choice","2","6","arrowright","bottom-right","red","arrowright","bottom-right","red","arrowright","bottom-right","red","arrowleft","bottom-left","green","0","0","0","0","0","-0.05","false","false","","","","","",""
"html-keyboard-response","139","1690572","0.0-5.0-215.0-0.0","69d5525ec7afcfce08d8608b","69f10c5d5c1b9b3130e33fee","0.5","desktop","0","0","1","","","","","","luck_game","","null","
            <div id=""score-counter"">TOTAL SCORE: &pound;0.00</div>
            <div class=""experiment-container"">
                <div class=""center-zone"">
                    <p class=""feedback-text"" style=""margin: 0;"">Not available!</p>
                </div>
            </div>","null","","","","","","","","","","","","","","","","","","","","","","","","","","","","","","","",""
"html-keyboard-response","140","1691165","0.0-5.0-216.0","69d5525ec7afcfce08d8608b","69f10c5d5c1b9b3130e33fee","0.5","desktop","0","0","1","","","","","","luck_game","","592","<div id=""score-counter"">TOTAL SCORE: &pound;0.00</div><div class=""experiment-container""><div class=""center-zone""><div class=""cross""></div><div class=""triangle-grid""><div class=""machine top-center blue""></div><div class=""machine bottom-left green""></div><div class=""machine bottom-right red-outline""></div></div></div></div>","arrowright","","","","gambling_choice","2","7","arrowright","bottom-right","red","arrowright","bottom-right","red","arrowright","bottom-right","red","arrowright","bottom-right","red","0","0","0","0","0","0","false","false","","","","","",""
