"trial_type","trial_index","time_elapsed","internal_node_id","subject_id","study_id","win_chance","device_type","blur_count","fullscreen_exit_count","failed_attention_checks","success","timeout","failed_images","failed_audio","failed_video","phase","view_history","rt","stimulus","response","question_order","trial_name","value","task","block_number","trial_number","choice_key","choice_location","choice_color","choice_key_oneback","choice_location_oneback","choice_color_oneback","unavailable_key","unavailable_location","unavailable_color","unavailable_key_oneback","unavailable_location_oneback","unavailable_color_oneback","reward_oneback","reward","total_score","total_score_oneback","coin_earned","coin_earned_oneback","is_choice_valid","is_timeout_reached","prompt","flipped","attention","expected_answer","category","question_index"
"pavlovia","0","1527","0.0-0.0","698341d57fe7b870bddf91b8","69f10c5d5c1b9b3130e33fee","0.5","desktop","0","0","0","","","","","","","","","","","","","","","","","","","","","","","","","","","","","","","","","","","","","","","","","",""
"preload","1","2680","0.0-2.0","698341d57fe7b870bddf91b8","69f10c5d5c1b9b3130e33fee","0.5","desktop","0","0","0","true","false","[]","[]","[]","","","","","","","","","","","","","","","","","","","","","","","","","","","","","","","","","","","","",""
"html-keyboard-response","2","16970","0.0-3.0-0.0","698341d57fe7b870bddf91b8","69f10c5d5c1b9b3130e33fee","0.5","desktop","0","0","0","","","","","","captcha","","","","","","","","","","","","","","","","","","","","","","","","","","","","","","","","","","","",""
"fullscreen","3","23984","0.0-4.0","698341d57fe7b870bddf91b8","69f10c5d5c1b9b3130e33fee","0.5","desktop","0","0","0","true","","","","","setup","","","","","","","","","","","","","","","","","","","","","","","","","","","","","","","","","","","",""
"instructions","4","163266","0.0-5.0-0.0-0.0-0.0","698341d57fe7b870bddf91b8","69f10c5d5c1b9b3130e33fee","0.5","desktop","0","0","0","","","","","","luck_game","[{""page_index"":0,""viewing_time"":9009},{""page_index"":1,""viewing_time"":10520},{""page_index"":2,""viewing_time"":12920},{""page_index"":3,""viewing_time"":15680},{""page_index"":4,""viewing_time"":12728},{""page_index"":5,""viewing_time"":10113},{""page_index"":6,""viewing_time"":8455},{""page_index"":7,""viewing_time"":24625},{""page_index"":8,""viewing_time"":16304},{""page_index"":9,""viewing_time"":11753},{""page_index"":10,""viewing_time"":7175}]","139281","","","","","","","","","","","","","","","","","","","","","","","","","","","","","","","","","",""
"html-button-response","5","171972","0.0-5.0-0.0-1.0","698341d57fe7b870bddf91b8","69f10c5d5c1b9b3130e33fee","0.5","desktop","0","0","0","","","","","","luck_game","","8704","<div style=""max-width:640px; margin:0 auto; text-align:left;
                               font-family:sans-serif; color:white; padding:10px;"">
            <h3 style=""color:white; text-align:center;"">Quick Reminder</h3>
            <ul style=""line-height:2.1; font-size:1.05em;"">
                <li>There are <strong>3 luck machines</strong>:
                    <span style=""color:#5599ff""><strong>Blue</strong></span> (&uarr; Up),
                    <span style=""color:#55cc55""><strong>Green</strong></span> (&larr; Left),
                    <span style=""color:#ff5555""><strong>Red</strong></span> (&rarr; Right)</li>
                <li>Each turn, <strong>2 machines are READY</strong> and 1 is
                    <strong>unavailable</strong> (shown as a colored outline)</li>
                <li>Press the corresponding arrow key to activate a READY machine</li>
                <li>Activating an <strong>unavailable</strong> machine: lose your turn + time penalty</li>
                <li>Activating a READY machine: <strong class=""win-text"">50% win +&pound;0.05</strong>
                    / <strong class=""lose-text"">50% lose &minus;&pound;0.05</strong></li>
                <li><strong>Time limit:</strong> 6 seconds per turn &mdash; don&rsquo;t miss your chance!</li>
                <li><strong>Goal:</strong> Quickly activate READY machines, avoid unavailable ones</li>
            </ul>
        </div>","0","","","","","","","","","","","","","","","","","","","","","","","","","","","","","","","",""
"survey-multi-choice","6","226805","0.0-5.0-0.0-2.0","698341d57fe7b870bddf91b8","69f10c5d5c1b9b3130e33fee","0.5","desktop","0","0","0","","","","","","luck_game","","54826","","{""q_total_machines"":""3"",""q_ready_machines"":""2"",""q_blue_key"":""↑ Up arrow key"",""q_red_key"":""→ Right arrow key"",""q_outcome"":""The red machine is unavailable. I will lose my turn and chance to win coins, and get a time penalty."",""q_ready_outcome"":""I will either win a coin (+0.05£) or lose a coin (−0.05£)."",""q_goal"":""My goal is to quickly activate available luck machines, avoiding unavailable machines. If I am lucky, I will get rewarded."",""q_win_rates"":""Red: 50% win rate — Blue: 50% win rate — Green: 50% win rate""}","[0,1,2,3,4,5,6,7]","luck_game_quiz","","","","","","","","","","","","","","","","","","","","","","","","","","","","","",""
"html-keyboard-response","7","229480","0.0-5.0-1.0","698341d57fe7b870bddf91b8","69f10c5d5c1b9b3130e33fee","0.5","desktop","0","0","0","","","","","","luck_game","","2672","
            <div style=""max-width: 600px; margin: 0 auto; text-align: center; font-family: sans-serif;"">
                <h2 style=""color: white;"">Good job, you learned the instructions!</h2>
                <p>We will now move to a short <strong>training phase</strong> to get you familiar with the game.</p>
                <p>Your score will <strong>not</strong> be counted during training.</p>
                <br>
                <p><strong>Press Space to start training.</strong></p>
            </div>"," ","","","","","","","","","","","","","","","","","","","","","","","","","","","","","","","",""
"call-function","8","229480","0.0-5.0-2.0","698341d57fe7b870bddf91b8","69f10c5d5c1b9b3130e33fee","0.5","desktop","0","0","0","","","","","","luck_game","","","","","","","","","","","","","","","","","","","","","","","","","","","","","","","","","","","",""
"html-keyboard-response","9","231526","0.0-5.0-3.0","698341d57fe7b870bddf91b8","69f10c5d5c1b9b3130e33fee","0.5","desktop","0","0","0","","","","","","luck_game","","2046","<div class=""experiment-container""><div class=""center-zone""><div class=""cross""></div><div class=""triangle-grid""><div class=""machine top-center blue""></div><div class=""machine bottom-left green-outline""></div><div class=""machine bottom-right red""></div></div></div></div>","arrowup","","","","gambling_choice","training","1","arrowup","top-center","blue","null","null","null","arrowleft","bottom-left","green","null","null","null","null","0","0","0","-0.05","null","true","false","","","","","",""
"html-keyboard-response","10","231633","0.0-5.0-4.0-0.0","698341d57fe7b870bddf91b8","69f10c5d5c1b9b3130e33fee","0.5","desktop","0","0","0","","","","","","luck_game","","null","<div class=""experiment-container""><div class=""center-zone""><div class=""cross""></div><div class=""triangle-grid""><div class=""machine top-center blue""></div><div class=""machine bottom-left green-outline""></div><div class=""machine bottom-right red""></div></div></div></div>","null","","","","","","","","","","","","","","","","","","","","","","","","","","","","","","","",""
"html-keyboard-response","11","232144","0.0-5.0-5.0-0.0","698341d57fe7b870bddf91b8","69f10c5d5c1b9b3130e33fee","0.5","desktop","0","0","0","","","","","","luck_game","","null","<div class=""experiment-container""><div class=""center-zone""><div class=""cross""></div></div></div>","null","","","","","","","","","","","","","","","","","","","","","","","","","","","","","","","",""
"html-keyboard-response","12","233155","0.0-5.0-6.0-0.0","698341d57fe7b870bddf91b8","69f10c5d5c1b9b3130e33fee","0.5","desktop","0","0","0","","","","","","luck_game","","null","<div class=""experiment-container""><div class=""center-zone""><div class=""cross""></div>
                <div style=""position: absolute; z-index: 10; display: flex; flex-direction: column; align-items: center; justify-content: center;"">
                    <div class=""lose-text"" style=""font-size: 48px; font-weight: bold; margin-bottom: 20px; text-shadow: 2px 2px 4px #000;"">LOSE</div>
                    <img src=""images/coin_no_reward.png"" class=""reward-img"" style=""background-color: black; border-radius: 50%;"">
                    <div class=""lose-text"" style=""font-size: 48px; font-weight: bold; margin-top: 20px; text-shadow: 2px 2px 4px #000;"">-0.05&pound;</div>
                </div></div></div>","null","","","","","","","","","","","","","","","","","","","","","","","","","","","","","","","",""
"html-keyboard-response","13","235136","0.0-5.0-9.0","698341d57fe7b870bddf91b8","69f10c5d5c1b9b3130e33fee","0.5","desktop","0","0","0","","","","","","luck_game","","1980","<div class=""experiment-container""><div class=""center-zone""><div class=""cross""></div><div class=""triangle-grid""><div class=""machine top-center blue-outline""></div><div class=""machine bottom-left green""></div><div class=""machine bottom-right red""></div></div></div></div>","arrowleft","","","","gambling_choice","training","2","arrowleft","bottom-left","green","arrowup","top-center","blue","arrowup","top-center","blue","arrowleft","bottom-left","green","0","1","0","0","0.05","-0.05","true","false","","","","","",""
"html-keyboard-response","14","235242","0.0-5.0-10.0-0.0","698341d57fe7b870bddf91b8","69f10c5d5c1b9b3130e33fee","0.5","desktop","0","0","0","","","","","","luck_game","","null","<div class=""experiment-container""><div class=""center-zone""><div class=""cross""></div><div class=""triangle-grid""><div class=""machine top-center blue-outline""></div><div class=""machine bottom-left green""></div><div class=""machine bottom-right red""></div></div></div></div>","null","","","","","","","","","","","","","","","","","","","","","","","","","","","","","","","",""
"html-keyboard-response","15","235753","0.0-5.0-11.0-0.0","698341d57fe7b870bddf91b8","69f10c5d5c1b9b3130e33fee","0.5","desktop","0","0","0","","","","","","luck_game","","null","<div class=""experiment-container""><div class=""center-zone""><div class=""cross""></div></div></div>","null","","","","","","","","","","","","","","","","","","","","","","","","","","","","","","","",""
"html-keyboard-response","16","236758","0.0-5.0-12.0-0.0","698341d57fe7b870bddf91b8","69f10c5d5c1b9b3130e33fee","0.5","desktop","0","0","0","","","","","","luck_game","","null","<div class=""experiment-container""><div class=""center-zone""><div class=""cross""></div>
                <div style=""position: absolute; z-index: 10; display: flex; flex-direction: column; align-items: center; justify-content: center;"">
                    <div class=""win-text"" style=""font-size: 48px; font-weight: bold; margin-bottom: 20px; text-shadow: 2px 2px 4px #000;"">WIN</div>
                    <img src=""images/coin_reward.png"" class=""reward-img"" style=""background-color: black; border-radius: 50%;"">
                    <div class=""win-text"" style=""font-size: 48px; font-weight: bold; margin-top: 20px; text-shadow: 2px 2px 4px #000;"">+0.05&pound;</div>
                </div></div></div>","null","","","","","","","","","","","","","","","","","","","","","","","","","","","","","","","",""
"html-keyboard-response","17","237723","0.0-5.0-15.0","698341d57fe7b870bddf91b8","69f10c5d5c1b9b3130e33fee","0.5","desktop","0","0","0","","","","","","luck_game","","964","<div class=""experiment-container""><div class=""center-zone""><div class=""cross""></div><div class=""triangle-grid""><div class=""machine top-center blue-outline""></div><div class=""machine bottom-left green""></div><div class=""machine bottom-right red""></div></div></div></div>","arrowright","","","","gambling_choice","training","3","arrowright","bottom-right","red","arrowleft","bottom-left","green","arrowup","top-center","blue","arrowup","top-center","blue","1","1","0","0","0.05","0.05","true","false","","","","","",""
"html-keyboard-response","18","237829","0.0-5.0-16.0-0.0","698341d57fe7b870bddf91b8","69f10c5d5c1b9b3130e33fee","0.5","desktop","0","0","0","","","","","","luck_game","","null","<div class=""experiment-container""><div class=""center-zone""><div class=""cross""></div><div class=""triangle-grid""><div class=""machine top-center blue-outline""></div><div class=""machine bottom-left green""></div><div class=""machine bottom-right red""></div></div></div></div>","null","","","","","","","","","","","","","","","","","","","","","","","","","","","","","","","",""
"html-keyboard-response","19","238341","0.0-5.0-17.0-0.0","698341d57fe7b870bddf91b8","69f10c5d5c1b9b3130e33fee","0.5","desktop","0","0","0","","","","","","luck_game","","null","<div class=""experiment-container""><div class=""center-zone""><div class=""cross""></div></div></div>","null","","","","","","","","","","","","","","","","","","","","","","","","","","","","","","","",""
"html-keyboard-response","20","239348","0.0-5.0-18.0-0.0","698341d57fe7b870bddf91b8","69f10c5d5c1b9b3130e33fee","0.5","desktop","0","0","0","","","","","","luck_game","","null","<div class=""experiment-container""><div class=""center-zone""><div class=""cross""></div>
                <div style=""position: absolute; z-index: 10; display: flex; flex-direction: column; align-items: center; justify-content: center;"">
                    <div class=""win-text"" style=""font-size: 48px; font-weight: bold; margin-bottom: 20px; text-shadow: 2px 2px 4px #000;"">WIN</div>
                    <img src=""images/coin_reward.png"" class=""reward-img"" style=""background-color: black; border-radius: 50%;"">
                    <div class=""win-text"" style=""font-size: 48px; font-weight: bold; margin-top: 20px; text-shadow: 2px 2px 4px #000;"">+0.05&pound;</div>
                </div></div></div>","null","","","","","","","","","","","","","","","","","","","","","","","","","","","","","","","",""
"html-keyboard-response","21","240422","0.0-5.0-21.0","698341d57fe7b870bddf91b8","69f10c5d5c1b9b3130e33fee","0.5","desktop","0","0","0","","","","","","luck_game","","1073","<div class=""experiment-container""><div class=""center-zone""><div class=""cross""></div><div class=""triangle-grid""><div class=""machine top-center blue-outline""></div><div class=""machine bottom-left green""></div><div class=""machine bottom-right red""></div></div></div></div>","arrowright","","","","gambling_choice","training","4","arrowright","bottom-right","red","arrowright","bottom-right","red","arrowup","top-center","blue","arrowup","top-center","blue","1","1","0","0","0.05","0.05","true","false","","","","","",""
"html-keyboard-response","22","240528","0.0-5.0-22.0-0.0","698341d57fe7b870bddf91b8","69f10c5d5c1b9b3130e33fee","0.5","desktop","0","0","0","","","","","","luck_game","","null","<div class=""experiment-container""><div class=""center-zone""><div class=""cross""></div><div class=""triangle-grid""><div class=""machine top-center blue-outline""></div><div class=""machine bottom-left green""></div><div class=""machine bottom-right red""></div></div></div></div>","null","","","","","","","","","","","","","","","","","","","","","","","","","","","","","","","",""
"html-keyboard-response","23","241041","0.0-5.0-23.0-0.0","698341d57fe7b870bddf91b8","69f10c5d5c1b9b3130e33fee","0.5","desktop","0","0","0","","","","","","luck_game","","null","<div class=""experiment-container""><div class=""center-zone""><div class=""cross""></div></div></div>","null","","","","","","","","","","","","","","","","","","","","","","","","","","","","","","","",""
"html-keyboard-response","24","242050","0.0-5.0-24.0-0.0","698341d57fe7b870bddf91b8","69f10c5d5c1b9b3130e33fee","0.5","desktop","0","0","0","","","","","","luck_game","","null","<div class=""experiment-container""><div class=""center-zone""><div class=""cross""></div>
                <div style=""position: absolute; z-index: 10; display: flex; flex-direction: column; align-items: center; justify-content: center;"">
                    <div class=""win-text"" style=""font-size: 48px; font-weight: bold; margin-bottom: 20px; text-shadow: 2px 2px 4px #000;"">WIN</div>
                    <img src=""images/coin_reward.png"" class=""reward-img"" style=""background-color: black; border-radius: 50%;"">
                    <div class=""win-text"" style=""font-size: 48px; font-weight: bold; margin-top: 20px; text-shadow: 2px 2px 4px #000;"">+0.05&pound;</div>
                </div></div></div>","null","","","","","","","","","","","","","","","","","","","","","","","","","","","","","","","",""
"call-function","25","242051","0.0-5.0-27.0","698341d57fe7b870bddf91b8","69f10c5d5c1b9b3130e33fee","0.5","desktop","0","0","0","","","","","","luck_game","","","","","","","","","","","","","","","","","","","","","","","","","","","","","","","","","","","",""
"html-keyboard-response","26","243979","0.0-5.0-28.0","698341d57fe7b870bddf91b8","69f10c5d5c1b9b3130e33fee","0.5","desktop","0","0","0","","","","","","luck_game","","1928","
            <div style=""max-width: 600px; margin: 0 auto; text-align: center; font-family: sans-serif;"">
                <h2 style=""color: white;"">Training Complete</h2>
                <p>You will now start the real game.</p>
                <br>
                <p><strong>Press Space to begin.</strong></p>
            </div>"," ","","","","","","","","","","","","","","","","","","","","","","","","","","","","","","","",""
"html-keyboard-response","27","244977","0.0-5.0-29.0","698341d57fe7b870bddf91b8","69f10c5d5c1b9b3130e33fee","0.5","desktop","0","0","0","","","","","","luck_game","","994","<div id=""score-counter"">TOTAL SCORE: &pound;0.00</div><div class=""experiment-container""><div class=""center-zone""><div class=""cross""></div><div class=""triangle-grid""><div class=""machine top-center blue-outline""></div><div class=""machine bottom-left green""></div><div class=""machine bottom-right red""></div></div></div></div>","arrowleft","","","","gambling_choice","1","1","arrowleft","bottom-left","green","arrowright","bottom-right","red","arrowup","top-center","blue","arrowup","top-center","blue","1","1","0.05","0","0.05","0.05","true","false","","","","","",""
"html-keyboard-response","28","245086","0.0-5.0-30.0-0.0","698341d57fe7b870bddf91b8","69f10c5d5c1b9b3130e33fee","0.5","desktop","0","0","0","","","","","","luck_game","","null","<div id=""score-counter"">TOTAL SCORE: &pound;0.00</div><div class=""experiment-container""><div class=""center-zone""><div class=""cross""></div><div class=""triangle-grid""><div class=""machine top-center blue-outline""></div><div class=""machine bottom-left green""></div><div class=""machine bottom-right red""></div></div></div></div>","null","","","","","","","","","","","","","","","","","","","","","","","","","","","","","","","",""
"html-keyboard-response","29","245596","0.0-5.0-31.0-0.0","698341d57fe7b870bddf91b8","69f10c5d5c1b9b3130e33fee","0.5","desktop","0","0","0","","","","","","luck_game","","null","<div id=""score-counter"">TOTAL SCORE: &pound;0.00</div><div class=""experiment-container""><div class=""center-zone""><div class=""cross""></div></div></div>","null","","","","","","","","","","","","","","","","","","","","","","","","","","","","","","","",""
"html-keyboard-response","30","246606","0.0-5.0-32.0-0.0","698341d57fe7b870bddf91b8","69f10c5d5c1b9b3130e33fee","0.5","desktop","0","0","0","","","","","","luck_game","","null","<div id=""score-counter"">TOTAL SCORE: &pound;0.05</div><div class=""experiment-container""><div class=""center-zone""><div class=""cross""></div>
                <div style=""position: absolute; z-index: 10; display: flex; flex-direction: column; align-items: center; justify-content: center;"">
                    <div class=""win-text"" style=""font-size: 48px; font-weight: bold; margin-bottom: 20px; text-shadow: 2px 2px 4px #000;"">WIN</div>
                    <img src=""images/coin_reward.png"" class=""reward-img"" style=""background-color: black; border-radius: 50%;"">
                    <div class=""win-text"" style=""font-size: 48px; font-weight: bold; margin-top: 20px; text-shadow: 2px 2px 4px #000;"">+0.05&pound;</div>
                </div></div></div>","null","","","","","","","","","","","","","","","","","","","","","","","","","","","","","","","",""
"html-keyboard-response","31","248168","0.0-5.0-35.0","698341d57fe7b870bddf91b8","69f10c5d5c1b9b3130e33fee","0.5","desktop","0","0","0","","","","","","luck_game","","1561","<div id=""score-counter"">TOTAL SCORE: &pound;0.05</div><div class=""experiment-container""><div class=""center-zone""><div class=""cross""></div><div class=""triangle-grid""><div class=""machine top-center blue""></div><div class=""machine bottom-left green-outline""></div><div class=""machine bottom-right red""></div></div></div></div>","arrowup","","","","gambling_choice","1","2","arrowup","top-center","blue","arrowleft","bottom-left","green","arrowleft","bottom-left","green","arrowup","top-center","blue","1","1","0.1","0.05","0.05","0.05","true","false","","","","","",""
"html-keyboard-response","32","248278","0.0-5.0-36.0-0.0","698341d57fe7b870bddf91b8","69f10c5d5c1b9b3130e33fee","0.5","desktop","0","0","0","","","","","","luck_game","","null","<div id=""score-counter"">TOTAL SCORE: &pound;0.05</div><div class=""experiment-container""><div class=""center-zone""><div class=""cross""></div><div class=""triangle-grid""><div class=""machine top-center blue""></div><div class=""machine bottom-left green-outline""></div><div class=""machine bottom-right red""></div></div></div></div>","null","","","","","","","","","","","","","","","","","","","","","","","","","","","","","","","",""
"html-keyboard-response","33","248791","0.0-5.0-37.0-0.0","698341d57fe7b870bddf91b8","69f10c5d5c1b9b3130e33fee","0.5","desktop","0","0","0","","","","","","luck_game","","null","<div id=""score-counter"">TOTAL SCORE: &pound;0.05</div><div class=""experiment-container""><div class=""center-zone""><div class=""cross""></div></div></div>","null","","","","","","","","","","","","","","","","","","","","","","","","","","","","","","","",""
"html-keyboard-response","34","249796","0.0-5.0-38.0-0.0","698341d57fe7b870bddf91b8","69f10c5d5c1b9b3130e33fee","0.5","desktop","0","0","0","","","","","","luck_game","","null","<div id=""score-counter"">TOTAL SCORE: &pound;0.10</div><div class=""experiment-container""><div class=""center-zone""><div class=""cross""></div>
                <div style=""position: absolute; z-index: 10; display: flex; flex-direction: column; align-items: center; justify-content: center;"">
                    <div class=""win-text"" style=""font-size: 48px; font-weight: bold; margin-bottom: 20px; text-shadow: 2px 2px 4px #000;"">WIN</div>
                    <img src=""images/coin_reward.png"" class=""reward-img"" style=""background-color: black; border-radius: 50%;"">
                    <div class=""win-text"" style=""font-size: 48px; font-weight: bold; margin-top: 20px; text-shadow: 2px 2px 4px #000;"">+0.05&pound;</div>
                </div></div></div>","null","","","","","","","","","","","","","","","","","","","","","","","","","","","","","","","",""
"html-keyboard-response","35","251015","0.0-5.0-41.0","698341d57fe7b870bddf91b8","69f10c5d5c1b9b3130e33fee","0.5","desktop","0","0","0","","","","","","luck_game","","1217","<div id=""score-counter"">TOTAL SCORE: &pound;0.10</div><div class=""experiment-container""><div class=""center-zone""><div class=""cross""></div><div class=""triangle-grid""><div class=""machine top-center blue-outline""></div><div class=""machine bottom-left green""></div><div class=""machine bottom-right red""></div></div></div></div>","arrowright","","","","gambling_choice","1","3","arrowright","bottom-right","red","arrowup","top-center","blue","arrowup","top-center","blue","arrowleft","bottom-left","green","1","0","0.05","0.1","-0.05","0.05","true","false","","","","","",""
"html-keyboard-response","36","251131","0.0-5.0-42.0-0.0","698341d57fe7b870bddf91b8","69f10c5d5c1b9b3130e33fee","0.5","desktop","0","0","0","","","","","","luck_game","","null","<div id=""score-counter"">TOTAL SCORE: &pound;0.10</div><div class=""experiment-container""><div class=""center-zone""><div class=""cross""></div><div class=""triangle-grid""><div class=""machine top-center blue-outline""></div><div class=""machine bottom-left green""></div><div class=""machine bottom-right red""></div></div></div></div>","null","","","","","","","","","","","","","","","","","","","","","","","","","","","","","","","",""
"html-keyboard-response","37","251644","0.0-5.0-43.0-0.0","698341d57fe7b870bddf91b8","69f10c5d5c1b9b3130e33fee","0.5","desktop","0","0","0","","","","","","luck_game","","null","<div id=""score-counter"">TOTAL SCORE: &pound;0.10</div><div class=""experiment-container""><div class=""center-zone""><div class=""cross""></div></div></div>","null","","","","","","","","","","","","","","","","","","","","","","","","","","","","","","","",""
"html-keyboard-response","38","252655","0.0-5.0-44.0-0.0","698341d57fe7b870bddf91b8","69f10c5d5c1b9b3130e33fee","0.5","desktop","0","0","0","","","","","","luck_game","","null","<div id=""score-counter"">TOTAL SCORE: &pound;0.05</div><div class=""experiment-container""><div class=""center-zone""><div class=""cross""></div>
                <div style=""position: absolute; z-index: 10; display: flex; flex-direction: column; align-items: center; justify-content: center;"">
                    <div class=""lose-text"" style=""font-size: 48px; font-weight: bold; margin-bottom: 20px; text-shadow: 2px 2px 4px #000;"">LOSE</div>
                    <img src=""images/coin_no_reward.png"" class=""reward-img"" style=""background-color: black; border-radius: 50%;"">
                    <div class=""lose-text"" style=""font-size: 48px; font-weight: bold; margin-top: 20px; text-shadow: 2px 2px 4px #000;"">-0.05&pound;</div>
                </div></div></div>","null","","","","","","","","","","","","","","","","","","","","","","","","","","","","","","","",""
"html-keyboard-response","39","253454","0.0-5.0-47.0","698341d57fe7b870bddf91b8","69f10c5d5c1b9b3130e33fee","0.5","desktop","0","0","0","","","","","","luck_game","","798","<div id=""score-counter"">TOTAL SCORE: &pound;0.05</div><div class=""experiment-container""><div class=""center-zone""><div class=""cross""></div><div class=""triangle-grid""><div class=""machine top-center blue""></div><div class=""machine bottom-left green-outline""></div><div class=""machine bottom-right red""></div></div></div></div>","arrowright","","","","gambling_choice","1","4","arrowright","bottom-right","red","arrowright","bottom-right","red","arrowleft","bottom-left","green","arrowup","top-center","blue","0","1","0.1","0.05","0.05","-0.05","true","false","","","","","",""
"html-keyboard-response","40","253556","0.0-5.0-48.0-0.0","698341d57fe7b870bddf91b8","69f10c5d5c1b9b3130e33fee","0.5","desktop","0","0","0","","","","","","luck_game","","null","<div id=""score-counter"">TOTAL SCORE: &pound;0.05</div><div class=""experiment-container""><div class=""center-zone""><div class=""cross""></div><div class=""triangle-grid""><div class=""machine top-center blue""></div><div class=""machine bottom-left green-outline""></div><div class=""machine bottom-right red""></div></div></div></div>","null","","","","","","","","","","","","","","","","","","","","","","","","","","","","","","","",""
"html-keyboard-response","41","254068","0.0-5.0-49.0-0.0","698341d57fe7b870bddf91b8","69f10c5d5c1b9b3130e33fee","0.5","desktop","0","0","0","","","","","","luck_game","","null","<div id=""score-counter"">TOTAL SCORE: &pound;0.05</div><div class=""experiment-container""><div class=""center-zone""><div class=""cross""></div></div></div>","null","","","","","","","","","","","","","","","","","","","","","","","","","","","","","","","",""
"html-keyboard-response","42","255076","0.0-5.0-50.0-0.0","698341d57fe7b870bddf91b8","69f10c5d5c1b9b3130e33fee","0.5","desktop","0","0","0","","","","","","luck_game","","null","<div id=""score-counter"">TOTAL SCORE: &pound;0.10</div><div class=""experiment-container""><div class=""center-zone""><div class=""cross""></div>
                <div style=""position: absolute; z-index: 10; display: flex; flex-direction: column; align-items: center; justify-content: center;"">
                    <div class=""win-text"" style=""font-size: 48px; font-weight: bold; margin-bottom: 20px; text-shadow: 2px 2px 4px #000;"">WIN</div>
                    <img src=""images/coin_reward.png"" class=""reward-img"" style=""background-color: black; border-radius: 50%;"">
                    <div class=""win-text"" style=""font-size: 48px; font-weight: bold; margin-top: 20px; text-shadow: 2px 2px 4px #000;"">+0.05&pound;</div>
                </div></div></div>","null","","","","","","","","","","","","","","","","","","","","","","","","","","","","","","","",""
"html-keyboard-response","43","255950","0.0-5.0-53.0","698341d57fe7b870bddf91b8","69f10c5d5c1b9b3130e33fee","0.5","desktop","0","0","0","","","","","","luck_game","","873","<div id=""score-counter"">TOTAL SCORE: &pound;0.10</div><div class=""experiment-container""><div class=""center-zone""><div class=""cross""></div><div class=""triangle-grid""><div class=""machine top-center blue""></div><div class=""machine bottom-left green-outline""></div><div class=""machine bottom-right red""></div></div></div></div>","arrowup","","","","gambling_choice","1","5","arrowup","top-center","blue","arrowright","bottom-right","red","arrowleft","bottom-left","green","arrowleft","bottom-left","green","1","0","0.05","0.1","-0.05","0.05","true","false","","","","","",""
"html-keyboard-response","44","256056","0.0-5.0-54.0-0.0","698341d57fe7b870bddf91b8","69f10c5d5c1b9b3130e33fee","0.5","desktop","0","0","0","","","","","","luck_game","","null","<div id=""score-counter"">TOTAL SCORE: &pound;0.10</div><div class=""experiment-container""><div class=""center-zone""><div class=""cross""></div><div class=""triangle-grid""><div class=""machine top-center blue""></div><div class=""machine bottom-left green-outline""></div><div class=""machine bottom-right red""></div></div></div></div>","null","","","","","","","","","","","","","","","","","","","","","","","","","","","","","","","",""
"html-keyboard-response","45","256568","0.0-5.0-55.0-0.0","698341d57fe7b870bddf91b8","69f10c5d5c1b9b3130e33fee","0.5","desktop","0","0","0","","","","","","luck_game","","null","<div id=""score-counter"">TOTAL SCORE: &pound;0.10</div><div class=""experiment-container""><div class=""center-zone""><div class=""cross""></div></div></div>","null","","","","","","","","","","","","","","","","","","","","","","","","","","","","","","","",""
"html-keyboard-response","46","257575","0.0-5.0-56.0-0.0","698341d57fe7b870bddf91b8","69f10c5d5c1b9b3130e33fee","0.5","desktop","0","0","0","","","","","","luck_game","","null","<div id=""score-counter"">TOTAL SCORE: &pound;0.05</div><div class=""experiment-container""><div class=""center-zone""><div class=""cross""></div>
                <div style=""position: absolute; z-index: 10; display: flex; flex-direction: column; align-items: center; justify-content: center;"">
                    <div class=""lose-text"" style=""font-size: 48px; font-weight: bold; margin-bottom: 20px; text-shadow: 2px 2px 4px #000;"">LOSE</div>
                    <img src=""images/coin_no_reward.png"" class=""reward-img"" style=""background-color: black; border-radius: 50%;"">
                    <div class=""lose-text"" style=""font-size: 48px; font-weight: bold; margin-top: 20px; text-shadow: 2px 2px 4px #000;"">-0.05&pound;</div>
                </div></div></div>","null","","","","","","","","","","","","","","","","","","","","","","","","","","","","","","","",""
"html-keyboard-response","47","258082","0.0-5.0-59.0","698341d57fe7b870bddf91b8","69f10c5d5c1b9b3130e33fee","0.5","desktop","0","0","0","","","","","","luck_game","","507","<div id=""score-counter"">TOTAL SCORE: &pound;0.05</div><div class=""experiment-container""><div class=""center-zone""><div class=""cross""></div><div class=""triangle-grid""><div class=""machine top-center blue""></div><div class=""machine bottom-left green-outline""></div><div class=""machine bottom-right red""></div></div></div></div>","arrowup","","","","gambling_choice","1","6","arrowup","top-center","blue","arrowup","top-center","blue","arrowleft","bottom-left","green","arrowleft","bottom-left","green","0","1","0.1","0.05","0.05","-0.05","true","false","","","","","",""
"html-keyboard-response","48","258193","0.0-5.0-60.0-0.0","698341d57fe7b870bddf91b8","69f10c5d5c1b9b3130e33fee","0.5","desktop","0","0","0","","","","","","luck_game","","null","<div id=""score-counter"">TOTAL SCORE: &pound;0.05</div><div class=""experiment-container""><div class=""center-zone""><div class=""cross""></div><div class=""triangle-grid""><div class=""machine top-center blue""></div><div class=""machine bottom-left green-outline""></div><div class=""machine bottom-right red""></div></div></div></div>","null","","","","","","","","","","","","","","","","","","","","","","","","","","","","","","","",""
"html-keyboard-response","49","258703","0.0-5.0-61.0-0.0","698341d57fe7b870bddf91b8","69f10c5d5c1b9b3130e33fee","0.5","desktop","0","0","0","","","","","","luck_game","","null","<div id=""score-counter"">TOTAL SCORE: &pound;0.05</div><div class=""experiment-container""><div class=""center-zone""><div class=""cross""></div></div></div>","null","","","","","","","","","","","","","","","","","","","","","","","","","","","","","","","",""
"html-keyboard-response","50","259711","0.0-5.0-62.0-0.0","698341d57fe7b870bddf91b8","69f10c5d5c1b9b3130e33fee","0.5","desktop","0","0","0","","","","","","luck_game","","null","<div id=""score-counter"">TOTAL SCORE: &pound;0.10</div><div class=""experiment-container""><div class=""center-zone""><div class=""cross""></div>
                <div style=""position: absolute; z-index: 10; display: flex; flex-direction: column; align-items: center; justify-content: center;"">
                    <div class=""win-text"" style=""font-size: 48px; font-weight: bold; margin-bottom: 20px; text-shadow: 2px 2px 4px #000;"">WIN</div>
                    <img src=""images/coin_reward.png"" class=""reward-img"" style=""background-color: black; border-radius: 50%;"">
                    <div class=""win-text"" style=""font-size: 48px; font-weight: bold; margin-top: 20px; text-shadow: 2px 2px 4px #000;"">+0.05&pound;</div>
                </div></div></div>","null","","","","","","","","","","","","","","","","","","","","","","","","","","","","","","","",""
"html-keyboard-response","51","260852","0.0-5.0-65.0","698341d57fe7b870bddf91b8","69f10c5d5c1b9b3130e33fee","0.5","desktop","0","0","0","","","","","","luck_game","","1141","<div id=""score-counter"">TOTAL SCORE: &pound;0.10</div><div class=""experiment-container""><div class=""center-zone""><div class=""cross""></div><div class=""triangle-grid""><div class=""machine top-center blue""></div><div class=""machine bottom-left green-outline""></div><div class=""machine bottom-right red""></div></div></div></div>","arrowright","","","","gambling_choice","1","7","arrowright","bottom-right","red","arrowup","top-center","blue","arrowleft","bottom-left","green","arrowleft","bottom-left","green","1","1","0.15","0.1","0.05","0.05","true","false","","","","","",""
"html-keyboard-response","52","260967","0.0-5.0-66.0-0.0","698341d57fe7b870bddf91b8","69f10c5d5c1b9b3130e33fee","0.5","desktop","0","0","0","","","","","","luck_game","","null","<div id=""score-counter"">TOTAL SCORE: &pound;0.10</div><div class=""experiment-container""><div class=""center-zone""><div class=""cross""></div><div class=""triangle-grid""><div class=""machine top-center blue""></div><div class=""machine bottom-left green-outline""></div><div class=""machine bottom-right red""></div></div></div></div>","null","","","","","","","","","","","","","","","","","","","","","","","","","","","","","","","",""
"html-keyboard-response","53","261479","0.0-5.0-67.0-0.0","698341d57fe7b870bddf91b8","69f10c5d5c1b9b3130e33fee","0.5","desktop","0","0","0","","","","","","luck_game","","null","<div id=""score-counter"">TOTAL SCORE: &pound;0.10</div><div class=""experiment-container""><div class=""center-zone""><div class=""cross""></div></div></div>","null","","","","","","","","","","","","","","","","","","","","","","","","","","","","","","","",""
"html-keyboard-response","54","262486","0.0-5.0-68.0-0.0","698341d57fe7b870bddf91b8","69f10c5d5c1b9b3130e33fee","0.5","desktop","0","0","0","","","","","","luck_game","","null","<div id=""score-counter"">TOTAL SCORE: &pound;0.15</div><div class=""experiment-container""><div class=""center-zone""><div class=""cross""></div>
                <div style=""position: absolute; z-index: 10; display: flex; flex-direction: column; align-items: center; justify-content: center;"">
                    <div class=""win-text"" style=""font-size: 48px; font-weight: bold; margin-bottom: 20px; text-shadow: 2px 2px 4px #000;"">WIN</div>
                    <img src=""images/coin_reward.png"" class=""reward-img"" style=""background-color: black; border-radius: 50%;"">
                    <div class=""win-text"" style=""font-size: 48px; font-weight: bold; margin-top: 20px; text-shadow: 2px 2px 4px #000;"">+0.05&pound;</div>
                </div></div></div>","null","","","","","","","","","","","","","","","","","","","","","","","","","","","","","","","",""
"html-keyboard-response","55","264321","0.0-5.0-71.0","698341d57fe7b870bddf91b8","69f10c5d5c1b9b3130e33fee","0.5","desktop","0","0","0","","","","","","luck_game","","1834","<div id=""score-counter"">TOTAL SCORE: &pound;0.15</div><div class=""experiment-container""><div class=""center-zone""><div class=""cross""></div><div class=""triangle-grid""><div class=""machine top-center blue""></div><div class=""machine bottom-left green""></div><div class=""machine bottom-right red-outline""></div></div></div></div>","arrowleft","","","","gambling_choice","1","8","arrowleft","bottom-left","green","arrowright","bottom-right","red","arrowright","bottom-right","red","arrowleft","bottom-left","green","1","0","0.1","0.15","-0.05","0.05","true","false","","","","","",""
"html-keyboard-response","56","264426","0.0-5.0-72.0-0.0","698341d57fe7b870bddf91b8","69f10c5d5c1b9b3130e33fee","0.5","desktop","0","0","0","","","","","","luck_game","","null","<div id=""score-counter"">TOTAL SCORE: &pound;0.15</div><div class=""experiment-container""><div class=""center-zone""><div class=""cross""></div><div class=""triangle-grid""><div class=""machine top-center blue""></div><div class=""machine bottom-left green""></div><div class=""machine bottom-right red-outline""></div></div></div></div>","null","","","","","","","","","","","","","","","","","","","","","","","","","","","","","","","",""
"html-keyboard-response","57","264938","0.0-5.0-73.0-0.0","698341d57fe7b870bddf91b8","69f10c5d5c1b9b3130e33fee","0.5","desktop","0","0","0","","","","","","luck_game","","null","<div id=""score-counter"">TOTAL SCORE: &pound;0.15</div><div class=""experiment-container""><div class=""center-zone""><div class=""cross""></div></div></div>","null","","","","","","","","","","","","","","","","","","","","","","","","","","","","","","","",""
"html-keyboard-response","58","265943","0.0-5.0-74.0-0.0","698341d57fe7b870bddf91b8","69f10c5d5c1b9b3130e33fee","0.5","desktop","0","0","0","","","","","","luck_game","","null","<div id=""score-counter"">TOTAL SCORE: &pound;0.10</div><div class=""experiment-container""><div class=""center-zone""><div class=""cross""></div>
                <div style=""position: absolute; z-index: 10; display: flex; flex-direction: column; align-items: center; justify-content: center;"">
                    <div class=""lose-text"" style=""font-size: 48px; font-weight: bold; margin-bottom: 20px; text-shadow: 2px 2px 4px #000;"">LOSE</div>
                    <img src=""images/coin_no_reward.png"" class=""reward-img"" style=""background-color: black; border-radius: 50%;"">
                    <div class=""lose-text"" style=""font-size: 48px; font-weight: bold; margin-top: 20px; text-shadow: 2px 2px 4px #000;"">-0.05&pound;</div>
                </div></div></div>","null","","","","","","","","","","","","","","","","","","","","","","","","","","","","","","","",""
"html-keyboard-response","59","266392","0.0-5.0-77.0","698341d57fe7b870bddf91b8","69f10c5d5c1b9b3130e33fee","0.5","desktop","0","0","0","","","","","","luck_game","","448","<div id=""score-counter"">TOTAL SCORE: &pound;0.10</div><div class=""experiment-container""><div class=""center-zone""><div class=""cross""></div><div class=""triangle-grid""><div class=""machine top-center blue-outline""></div><div class=""machine bottom-left green""></div><div class=""machine bottom-right red""></div></div></div></div>","arrowleft","","","","gambling_choice","1","9","arrowleft","bottom-left","green","arrowleft","bottom-left","green","arrowup","top-center","blue","arrowright","bottom-right","red","0","1","0.15","0.1","0.05","-0.05","true","false","","","","","",""
"html-keyboard-response","60","266501","0.0-5.0-78.0-0.0","698341d57fe7b870bddf91b8","69f10c5d5c1b9b3130e33fee","0.5","desktop","0","0","0","","","","","","luck_game","","null","<div id=""score-counter"">TOTAL SCORE: &pound;0.10</div><div class=""experiment-container""><div class=""center-zone""><div class=""cross""></div><div class=""triangle-grid""><div class=""machine top-center blue-outline""></div><div class=""machine bottom-left green""></div><div class=""machine bottom-right red""></div></div></div></div>","null","","","","","","","","","","","","","","","","","","","","","","","","","","","","","","","",""
"html-keyboard-response","61","267013","0.0-5.0-79.0-0.0","698341d57fe7b870bddf91b8","69f10c5d5c1b9b3130e33fee","0.5","desktop","0","0","0","","","","","","luck_game","","null","<div id=""score-counter"">TOTAL SCORE: &pound;0.10</div><div class=""experiment-container""><div class=""center-zone""><div class=""cross""></div></div></div>","null","","","","","","","","","","","","","","","","","","","","","","","","","","","","","","","",""
"html-keyboard-response","62","268020","0.0-5.0-80.0-0.0","698341d57fe7b870bddf91b8","69f10c5d5c1b9b3130e33fee","0.5","desktop","0","0","0","","","","","","luck_game","","null","<div id=""score-counter"">TOTAL SCORE: &pound;0.15</div><div class=""experiment-container""><div class=""center-zone""><div class=""cross""></div>
                <div style=""position: absolute; z-index: 10; display: flex; flex-direction: column; align-items: center; justify-content: center;"">
                    <div class=""win-text"" style=""font-size: 48px; font-weight: bold; margin-bottom: 20px; text-shadow: 2px 2px 4px #000;"">WIN</div>
                    <img src=""images/coin_reward.png"" class=""reward-img"" style=""background-color: black; border-radius: 50%;"">
                    <div class=""win-text"" style=""font-size: 48px; font-weight: bold; margin-top: 20px; text-shadow: 2px 2px 4px #000;"">+0.05&pound;</div>
                </div></div></div>","null","","","","","","","","","","","","","","","","","","","","","","","","","","","","","","","",""
"html-keyboard-response","63","269471","0.0-5.0-83.0","698341d57fe7b870bddf91b8","69f10c5d5c1b9b3130e33fee","0.5","desktop","0","0","0","","","","","","luck_game","","1450","<div id=""score-counter"">TOTAL SCORE: &pound;0.15</div><div class=""experiment-container""><div class=""center-zone""><div class=""cross""></div><div class=""triangle-grid""><div class=""machine top-center blue""></div><div class=""machine bottom-left green-outline""></div><div class=""machine bottom-right red""></div></div></div></div>","arrowup","","","","gambling_choice","1","10","arrowup","top-center","blue","arrowleft","bottom-left","green","arrowleft","bottom-left","green","arrowup","top-center","blue","1","0","0.1","0.15","-0.05","0.05","true","false","","","","","",""
"html-keyboard-response","64","269575","0.0-5.0-84.0-0.0","698341d57fe7b870bddf91b8","69f10c5d5c1b9b3130e33fee","0.5","desktop","0","0","0","","","","","","luck_game","","null","<div id=""score-counter"">TOTAL SCORE: &pound;0.15</div><div class=""experiment-container""><div class=""center-zone""><div class=""cross""></div><div class=""triangle-grid""><div class=""machine top-center blue""></div><div class=""machine bottom-left green-outline""></div><div class=""machine bottom-right red""></div></div></div></div>","null","","","","","","","","","","","","","","","","","","","","","","","","","","","","","","","",""
"html-keyboard-response","65","270085","0.0-5.0-85.0-0.0","698341d57fe7b870bddf91b8","69f10c5d5c1b9b3130e33fee","0.5","desktop","0","0","0","","","","","","luck_game","","null","<div id=""score-counter"">TOTAL SCORE: &pound;0.15</div><div class=""experiment-container""><div class=""center-zone""><div class=""cross""></div></div></div>","null","","","","","","","","","","","","","","","","","","","","","","","","","","","","","","","",""
"html-keyboard-response","66","271094","0.0-5.0-86.0-0.0","698341d57fe7b870bddf91b8","69f10c5d5c1b9b3130e33fee","0.5","desktop","0","0","0","","","","","","luck_game","","null","<div id=""score-counter"">TOTAL SCORE: &pound;0.10</div><div class=""experiment-container""><div class=""center-zone""><div class=""cross""></div>
                <div style=""position: absolute; z-index: 10; display: flex; flex-direction: column; align-items: center; justify-content: center;"">
                    <div class=""lose-text"" style=""font-size: 48px; font-weight: bold; margin-bottom: 20px; text-shadow: 2px 2px 4px #000;"">LOSE</div>
                    <img src=""images/coin_no_reward.png"" class=""reward-img"" style=""background-color: black; border-radius: 50%;"">
                    <div class=""lose-text"" style=""font-size: 48px; font-weight: bold; margin-top: 20px; text-shadow: 2px 2px 4px #000;"">-0.05&pound;</div>
                </div></div></div>","null","","","","","","","","","","","","","","","","","","","","","","","","","","","","","","","",""
"html-keyboard-response","67","271567","0.0-5.0-89.0","698341d57fe7b870bddf91b8","69f10c5d5c1b9b3130e33fee","0.5","desktop","0","0","0","","","","","","luck_game","","472","<div id=""score-counter"">TOTAL SCORE: &pound;0.10</div><div class=""experiment-container""><div class=""center-zone""><div class=""cross""></div><div class=""triangle-grid""><div class=""machine top-center blue""></div><div class=""machine bottom-left green-outline""></div><div class=""machine bottom-right red""></div></div></div></div>","arrowup","","","","gambling_choice","1","11","arrowup","top-center","blue","arrowup","top-center","blue","arrowleft","bottom-left","green","arrowleft","bottom-left","green","0","0","0.05","0.1","-0.05","-0.05","true","false","","","","","",""
"html-keyboard-response","68","271669","0.0-5.0-90.0-0.0","698341d57fe7b870bddf91b8","69f10c5d5c1b9b3130e33fee","0.5","desktop","0","0","0","","","","","","luck_game","","null","<div id=""score-counter"">TOTAL SCORE: &pound;0.10</div><div class=""experiment-container""><div class=""center-zone""><div class=""cross""></div><div class=""triangle-grid""><div class=""machine top-center blue""></div><div class=""machine bottom-left green-outline""></div><div class=""machine bottom-right red""></div></div></div></div>","null","","","","","","","","","","","","","","","","","","","","","","","","","","","","","","","",""
"html-keyboard-response","69","272180","0.0-5.0-91.0-0.0","698341d57fe7b870bddf91b8","69f10c5d5c1b9b3130e33fee","0.5","desktop","0","0","0","","","","","","luck_game","","null","<div id=""score-counter"">TOTAL SCORE: &pound;0.10</div><div class=""experiment-container""><div class=""center-zone""><div class=""cross""></div></div></div>","null","","","","","","","","","","","","","","","","","","","","","","","","","","","","","","","",""
"html-keyboard-response","70","273188","0.0-5.0-92.0-0.0","698341d57fe7b870bddf91b8","69f10c5d5c1b9b3130e33fee","0.5","desktop","0","0","0","","","","","","luck_game","","null","<div id=""score-counter"">TOTAL SCORE: &pound;0.05</div><div class=""experiment-container""><div class=""center-zone""><div class=""cross""></div>
                <div style=""position: absolute; z-index: 10; display: flex; flex-direction: column; align-items: center; justify-content: center;"">
                    <div class=""lose-text"" style=""font-size: 48px; font-weight: bold; margin-bottom: 20px; text-shadow: 2px 2px 4px #000;"">LOSE</div>
                    <img src=""images/coin_no_reward.png"" class=""reward-img"" style=""background-color: black; border-radius: 50%;"">
                    <div class=""lose-text"" style=""font-size: 48px; font-weight: bold; margin-top: 20px; text-shadow: 2px 2px 4px #000;"">-0.05&pound;</div>
                </div></div></div>","null","","","","","","","","","","","","","","","","","","","","","","","","","","","","","","","",""
"html-keyboard-response","71","273781","0.0-5.0-95.0","698341d57fe7b870bddf91b8","69f10c5d5c1b9b3130e33fee","0.5","desktop","0","0","0","","","","","","luck_game","","592","<div id=""score-counter"">TOTAL SCORE: &pound;0.05</div><div class=""experiment-container""><div class=""center-zone""><div class=""cross""></div><div class=""triangle-grid""><div class=""machine top-center blue""></div><div class=""machine bottom-left green-outline""></div><div class=""machine bottom-right red""></div></div></div></div>","arrowup","","","","gambling_choice","1","12","arrowup","top-center","blue","arrowup","top-center","blue","arrowleft","bottom-left","green","arrowleft","bottom-left","green","0","0","0","0.05","-0.05","-0.05","true","false","","","","","",""
"html-keyboard-response","72","273886","0.0-5.0-96.0-0.0","698341d57fe7b870bddf91b8","69f10c5d5c1b9b3130e33fee","0.5","desktop","0","0","0","","","","","","luck_game","","null","<div id=""score-counter"">TOTAL SCORE: &pound;0.05</div><div class=""experiment-container""><div class=""center-zone""><div class=""cross""></div><div class=""triangle-grid""><div class=""machine top-center blue""></div><div class=""machine bottom-left green-outline""></div><div class=""machine bottom-right red""></div></div></div></div>","null","","","","","","","","","","","","","","","","","","","","","","","","","","","","","","","",""
"html-keyboard-response","73","274400","0.0-5.0-97.0-0.0","698341d57fe7b870bddf91b8","69f10c5d5c1b9b3130e33fee","0.5","desktop","0","0","0","","","","","","luck_game","","null","<div id=""score-counter"">TOTAL SCORE: &pound;0.05</div><div class=""experiment-container""><div class=""center-zone""><div class=""cross""></div></div></div>","null","","","","","","","","","","","","","","","","","","","","","","","","","","","","","","","",""
"html-keyboard-response","74","275405","0.0-5.0-98.0-0.0","698341d57fe7b870bddf91b8","69f10c5d5c1b9b3130e33fee","0.5","desktop","0","0","0","","","","","","luck_game","","null","<div id=""score-counter"">TOTAL SCORE: &pound;0.00</div><div class=""experiment-container""><div class=""center-zone""><div class=""cross""></div>
                <div style=""position: absolute; z-index: 10; display: flex; flex-direction: column; align-items: center; justify-content: center;"">
                    <div class=""lose-text"" style=""font-size: 48px; font-weight: bold; margin-bottom: 20px; text-shadow: 2px 2px 4px #000;"">LOSE</div>
                    <img src=""images/coin_no_reward.png"" class=""reward-img"" style=""background-color: black; border-radius: 50%;"">
                    <div class=""lose-text"" style=""font-size: 48px; font-weight: bold; margin-top: 20px; text-shadow: 2px 2px 4px #000;"">-0.05&pound;</div>
                </div></div></div>","null","","","","","","","","","","","","","","","","","","","","","","","","","","","","","","","",""
"html-keyboard-response","75","276349","0.0-5.0-101.0","698341d57fe7b870bddf91b8","69f10c5d5c1b9b3130e33fee","0.5","desktop","0","0","0","","","","","","luck_game","","943","<div id=""score-counter"">TOTAL SCORE: &pound;0.00</div><div class=""experiment-container""><div class=""center-zone""><div class=""cross""></div><div class=""triangle-grid""><div class=""machine top-center blue-outline""></div><div class=""machine bottom-left green""></div><div class=""machine bottom-right red""></div></div></div></div>","arrowright","","","","gambling_choice","1","13","arrowright","bottom-right","red","arrowup","top-center","blue","arrowup","top-center","blue","arrowleft","bottom-left","green","0","1","0.05","0","0.05","-0.05","true","false","","","","","",""
"html-keyboard-response","76","276459","0.0-5.0-102.0-0.0","698341d57fe7b870bddf91b8","69f10c5d5c1b9b3130e33fee","0.5","desktop","0","0","0","","","","","","luck_game","","null","<div id=""score-counter"">TOTAL SCORE: &pound;0.00</div><div class=""experiment-container""><div class=""center-zone""><div class=""cross""></div><div class=""triangle-grid""><div class=""machine top-center blue-outline""></div><div class=""machine bottom-left green""></div><div class=""machine bottom-right red""></div></div></div></div>","null","","","","","","","","","","","","","","","","","","","","","","","","","","","","","","","",""
"html-keyboard-response","77","276970","0.0-5.0-103.0-0.0","698341d57fe7b870bddf91b8","69f10c5d5c1b9b3130e33fee","0.5","desktop","0","0","0","","","","","","luck_game","","null","<div id=""score-counter"">TOTAL SCORE: &pound;0.00</div><div class=""experiment-container""><div class=""center-zone""><div class=""cross""></div></div></div>","null","","","","","","","","","","","","","","","","","","","","","","","","","","","","","","","",""
"html-keyboard-response","78","277981","0.0-5.0-104.0-0.0","698341d57fe7b870bddf91b8","69f10c5d5c1b9b3130e33fee","0.5","desktop","0","0","0","","","","","","luck_game","","null","<div id=""score-counter"">TOTAL SCORE: &pound;0.05</div><div class=""experiment-container""><div class=""center-zone""><div class=""cross""></div>
                <div style=""position: absolute; z-index: 10; display: flex; flex-direction: column; align-items: center; justify-content: center;"">
                    <div class=""win-text"" style=""font-size: 48px; font-weight: bold; margin-bottom: 20px; text-shadow: 2px 2px 4px #000;"">WIN</div>
                    <img src=""images/coin_reward.png"" class=""reward-img"" style=""background-color: black; border-radius: 50%;"">
                    <div class=""win-text"" style=""font-size: 48px; font-weight: bold; margin-top: 20px; text-shadow: 2px 2px 4px #000;"">+0.05&pound;</div>
                </div></div></div>","null","","","","","","","","","","","","","","","","","","","","","","","","","","","","","","","",""
"html-keyboard-response","79","278720","0.0-5.0-107.0","698341d57fe7b870bddf91b8","69f10c5d5c1b9b3130e33fee","0.5","desktop","0","0","0","","","","","","luck_game","","739","<div id=""score-counter"">TOTAL SCORE: &pound;0.05</div><div class=""experiment-container""><div class=""center-zone""><div class=""cross""></div><div class=""triangle-grid""><div class=""machine top-center blue-outline""></div><div class=""machine bottom-left green""></div><div class=""machine bottom-right red""></div></div></div></div>","arrowright","","","","gambling_choice","1","14","arrowright","bottom-right","red","arrowright","bottom-right","red","arrowup","top-center","blue","arrowup","top-center","blue","1","0","0","0.05","-0.05","0.05","true","false","","","","","",""
"html-keyboard-response","80","278830","0.0-5.0-108.0-0.0","698341d57fe7b870bddf91b8","69f10c5d5c1b9b3130e33fee","0.5","desktop","0","0","0","","","","","","luck_game","","null","<div id=""score-counter"">TOTAL SCORE: &pound;0.05</div><div class=""experiment-container""><div class=""center-zone""><div class=""cross""></div><div class=""triangle-grid""><div class=""machine top-center blue-outline""></div><div class=""machine bottom-left green""></div><div class=""machine bottom-right red""></div></div></div></div>","null","","","","","","","","","","","","","","","","","","","","","","","","","","","","","","","",""
"html-keyboard-response","81","279339","0.0-5.0-109.0-0.0","698341d57fe7b870bddf91b8","69f10c5d5c1b9b3130e33fee","0.5","desktop","0","0","0","","","","","","luck_game","","null","<div id=""score-counter"">TOTAL SCORE: &pound;0.05</div><div class=""experiment-container""><div class=""center-zone""><div class=""cross""></div></div></div>","null","","","","","","","","","","","","","","","","","","","","","","","","","","","","","","","",""
"html-keyboard-response","82","280345","0.0-5.0-110.0-0.0","698341d57fe7b870bddf91b8","69f10c5d5c1b9b3130e33fee","0.5","desktop","0","0","0","","","","","","luck_game","","null","<div id=""score-counter"">TOTAL SCORE: &pound;0.00</div><div class=""experiment-container""><div class=""center-zone""><div class=""cross""></div>
                <div style=""position: absolute; z-index: 10; display: flex; flex-direction: column; align-items: center; justify-content: center;"">
                    <div class=""lose-text"" style=""font-size: 48px; font-weight: bold; margin-bottom: 20px; text-shadow: 2px 2px 4px #000;"">LOSE</div>
                    <img src=""images/coin_no_reward.png"" class=""reward-img"" style=""background-color: black; border-radius: 50%;"">
                    <div class=""lose-text"" style=""font-size: 48px; font-weight: bold; margin-top: 20px; text-shadow: 2px 2px 4px #000;"">-0.05&pound;</div>
                </div></div></div>","null","","","","","","","","","","","","","","","","","","","","","","","","","","","","","","","",""
"html-keyboard-response","83","281948","0.0-5.0-113.0","698341d57fe7b870bddf91b8","69f10c5d5c1b9b3130e33fee","0.5","desktop","0","0","0","","","","","","luck_game","","1602","<div id=""score-counter"">TOTAL SCORE: &pound;0.00</div><div class=""experiment-container""><div class=""center-zone""><div class=""cross""></div><div class=""triangle-grid""><div class=""machine top-center blue""></div><div class=""machine bottom-left green""></div><div class=""machine bottom-right red-outline""></div></div></div></div>","arrowup","","","","gambling_choice","1","15","arrowup","top-center","blue","arrowright","bottom-right","red","arrowright","bottom-right","red","arrowup","top-center","blue","0","1","0.05","0","0.05","-0.05","true","false","","","","","",""
"html-keyboard-response","84","282052","0.0-5.0-114.0-0.0","698341d57fe7b870bddf91b8","69f10c5d5c1b9b3130e33fee","0.5","desktop","0","0","0","","","","","","luck_game","","null","<div id=""score-counter"">TOTAL SCORE: &pound;0.00</div><div class=""experiment-container""><div class=""center-zone""><div class=""cross""></div><div class=""triangle-grid""><div class=""machine top-center blue""></div><div class=""machine bottom-left green""></div><div class=""machine bottom-right red-outline""></div></div></div></div>","null","","","","","","","","","","","","","","","","","","","","","","","","","","","","","","","",""
"html-keyboard-response","85","282565","0.0-5.0-115.0-0.0","698341d57fe7b870bddf91b8","69f10c5d5c1b9b3130e33fee","0.5","desktop","0","0","0","","","","","","luck_game","","null","<div id=""score-counter"">TOTAL SCORE: &pound;0.00</div><div class=""experiment-container""><div class=""center-zone""><div class=""cross""></div></div></div>","null","","","","","","","","","","","","","","","","","","","","","","","","","","","","","","","",""
"html-keyboard-response","86","283574","0.0-5.0-116.0-0.0","698341d57fe7b870bddf91b8","69f10c5d5c1b9b3130e33fee","0.5","desktop","0","0","0","","","","","","luck_game","","null","<div id=""score-counter"">TOTAL SCORE: &pound;0.05</div><div class=""experiment-container""><div class=""center-zone""><div class=""cross""></div>
                <div style=""position: absolute; z-index: 10; display: flex; flex-direction: column; align-items: center; justify-content: center;"">
                    <div class=""win-text"" style=""font-size: 48px; font-weight: bold; margin-bottom: 20px; text-shadow: 2px 2px 4px #000;"">WIN</div>
                    <img src=""images/coin_reward.png"" class=""reward-img"" style=""background-color: black; border-radius: 50%;"">
                    <div class=""win-text"" style=""font-size: 48px; font-weight: bold; margin-top: 20px; text-shadow: 2px 2px 4px #000;"">+0.05&pound;</div>
                </div></div></div>","null","","","","","","","","","","","","","","","","","","","","","","","","","","","","","","","",""
"html-keyboard-response","87","284430","0.0-5.0-119.0","698341d57fe7b870bddf91b8","69f10c5d5c1b9b3130e33fee","0.5","desktop","0","0","0","","","","","","luck_game","","856","<div id=""score-counter"">TOTAL SCORE: &pound;0.05</div><div class=""experiment-container""><div class=""center-zone""><div class=""cross""></div><div class=""triangle-grid""><div class=""machine top-center blue""></div><div class=""machine bottom-left green""></div><div class=""machine bottom-right red-outline""></div></div></div></div>","arrowleft","","","","gambling_choice","1","16","arrowleft","bottom-left","green","arrowup","top-center","blue","arrowright","bottom-right","red","arrowright","bottom-right","red","1","1","0.1","0.05","0.05","0.05","true","false","","","","","",""
"html-keyboard-response","88","284532","0.0-5.0-120.0-0.0","698341d57fe7b870bddf91b8","69f10c5d5c1b9b3130e33fee","0.5","desktop","0","0","0","","","","","","luck_game","","null","<div id=""score-counter"">TOTAL SCORE: &pound;0.05</div><div class=""experiment-container""><div class=""center-zone""><div class=""cross""></div><div class=""triangle-grid""><div class=""machine top-center blue""></div><div class=""machine bottom-left green""></div><div class=""machine bottom-right red-outline""></div></div></div></div>","null","","","","","","","","","","","","","","","","","","","","","","","","","","","","","","","",""
"html-keyboard-response","89","285043","0.0-5.0-121.0-0.0","698341d57fe7b870bddf91b8","69f10c5d5c1b9b3130e33fee","0.5","desktop","0","0","0","","","","","","luck_game","","null","<div id=""score-counter"">TOTAL SCORE: &pound;0.05</div><div class=""experiment-container""><div class=""center-zone""><div class=""cross""></div></div></div>","null","","","","","","","","","","","","","","","","","","","","","","","","","","","","","","","",""
"html-keyboard-response","90","286051","0.0-5.0-122.0-0.0","698341d57fe7b870bddf91b8","69f10c5d5c1b9b3130e33fee","0.5","desktop","0","0","0","","","","","","luck_game","","null","<div id=""score-counter"">TOTAL SCORE: &pound;0.10</div><div class=""experiment-container""><div class=""center-zone""><div class=""cross""></div>
                <div style=""position: absolute; z-index: 10; display: flex; flex-direction: column; align-items: center; justify-content: center;"">
                    <div class=""win-text"" style=""font-size: 48px; font-weight: bold; margin-bottom: 20px; text-shadow: 2px 2px 4px #000;"">WIN</div>
                    <img src=""images/coin_reward.png"" class=""reward-img"" style=""background-color: black; border-radius: 50%;"">
                    <div class=""win-text"" style=""font-size: 48px; font-weight: bold; margin-top: 20px; text-shadow: 2px 2px 4px #000;"">+0.05&pound;</div>
                </div></div></div>","null","","","","","","","","","","","","","","","","","","","","","","","","","","","","","","","",""
"html-keyboard-response","91","287203","0.0-5.0-125.0","698341d57fe7b870bddf91b8","69f10c5d5c1b9b3130e33fee","0.5","desktop","0","0","0","","","","","","luck_game","","1151","<div id=""score-counter"">TOTAL SCORE: &pound;0.10</div><div class=""experiment-container""><div class=""center-zone""><div class=""cross""></div><div class=""triangle-grid""><div class=""machine top-center blue""></div><div class=""machine bottom-left green-outline""></div><div class=""machine bottom-right red""></div></div></div></div>","arrowright","","","","gambling_choice","1","17","arrowright","bottom-right","red","arrowleft","bottom-left","green","arrowleft","bottom-left","green","arrowright","bottom-right","red","1","0","0.05","0.1","-0.05","0.05","true","false","","","","","",""
"html-keyboard-response","92","287310","0.0-5.0-126.0-0.0","698341d57fe7b870bddf91b8","69f10c5d5c1b9b3130e33fee","0.5","desktop","0","0","0","","","","","","luck_game","","null","<div id=""score-counter"">TOTAL SCORE: &pound;0.10</div><div class=""experiment-container""><div class=""center-zone""><div class=""cross""></div><div class=""triangle-grid""><div class=""machine top-center blue""></div><div class=""machine bottom-left green-outline""></div><div class=""machine bottom-right red""></div></div></div></div>","null","","","","","","","","","","","","","","","","","","","","","","","","","","","","","","","",""
"html-keyboard-response","93","287822","0.0-5.0-127.0-0.0","698341d57fe7b870bddf91b8","69f10c5d5c1b9b3130e33fee","0.5","desktop","0","0","0","","","","","","luck_game","","null","<div id=""score-counter"">TOTAL SCORE: &pound;0.10</div><div class=""experiment-container""><div class=""center-zone""><div class=""cross""></div></div></div>","null","","","","","","","","","","","","","","","","","","","","","","","","","","","","","","","",""
"html-keyboard-response","94","288834","0.0-5.0-128.0-0.0","698341d57fe7b870bddf91b8","69f10c5d5c1b9b3130e33fee","0.5","desktop","0","0","0","","","","","","luck_game","","null","<div id=""score-counter"">TOTAL SCORE: &pound;0.05</div><div class=""experiment-container""><div class=""center-zone""><div class=""cross""></div>
                <div style=""position: absolute; z-index: 10; display: flex; flex-direction: column; align-items: center; justify-content: center;"">
                    <div class=""lose-text"" style=""font-size: 48px; font-weight: bold; margin-bottom: 20px; text-shadow: 2px 2px 4px #000;"">LOSE</div>
                    <img src=""images/coin_no_reward.png"" class=""reward-img"" style=""background-color: black; border-radius: 50%;"">
                    <div class=""lose-text"" style=""font-size: 48px; font-weight: bold; margin-top: 20px; text-shadow: 2px 2px 4px #000;"">-0.05&pound;</div>
                </div></div></div>","null","","","","","","","","","","","","","","","","","","","","","","","","","","","","","","","",""
"html-keyboard-response","95","289992","0.0-5.0-131.0","698341d57fe7b870bddf91b8","69f10c5d5c1b9b3130e33fee","0.5","desktop","0","0","0","","","","","","luck_game","","1158","<div id=""score-counter"">TOTAL SCORE: &pound;0.05</div><div class=""experiment-container""><div class=""center-zone""><div class=""cross""></div><div class=""triangle-grid""><div class=""machine top-center blue""></div><div class=""machine bottom-left green""></div><div class=""machine bottom-right red-outline""></div></div></div></div>","arrowup","","","","gambling_choice","1","18","arrowup","top-center","blue","arrowright","bottom-right","red","arrowright","bottom-right","red","arrowleft","bottom-left","green","0","1","0.1","0.05","0.05","-0.05","true","false","","","","","",""
"html-keyboard-response","96","290099","0.0-5.0-132.0-0.0","698341d57fe7b870bddf91b8","69f10c5d5c1b9b3130e33fee","0.5","desktop","0","0","0","","","","","","luck_game","","null","<div id=""score-counter"">TOTAL SCORE: &pound;0.05</div><div class=""experiment-container""><div class=""center-zone""><div class=""cross""></div><div class=""triangle-grid""><div class=""machine top-center blue""></div><div class=""machine bottom-left green""></div><div class=""machine bottom-right red-outline""></div></div></div></div>","null","","","","","","","","","","","","","","","","","","","","","","","","","","","","","","","",""
"html-keyboard-response","97","290606","0.0-5.0-133.0-0.0","698341d57fe7b870bddf91b8","69f10c5d5c1b9b3130e33fee","0.5","desktop","0","0","0","","","","","","luck_game","","null","<div id=""score-counter"">TOTAL SCORE: &pound;0.05</div><div class=""experiment-container""><div class=""center-zone""><div class=""cross""></div></div></div>","null","","","","","","","","","","","","","","","","","","","","","","","","","","","","","","","",""
"html-keyboard-response","98","291616","0.0-5.0-134.0-0.0","698341d57fe7b870bddf91b8","69f10c5d5c1b9b3130e33fee","0.5","desktop","0","0","0","","","","","","luck_game","","null","<div id=""score-counter"">TOTAL SCORE: &pound;0.10</div><div class=""experiment-container""><div class=""center-zone""><div class=""cross""></div>
                <div style=""position: absolute; z-index: 10; display: flex; flex-direction: column; align-items: center; justify-content: center;"">
                    <div class=""win-text"" style=""font-size: 48px; font-weight: bold; margin-bottom: 20px; text-shadow: 2px 2px 4px #000;"">WIN</div>
                    <img src=""images/coin_reward.png"" class=""reward-img"" style=""background-color: black; border-radius: 50%;"">
                    <div class=""win-text"" style=""font-size: 48px; font-weight: bold; margin-top: 20px; text-shadow: 2px 2px 4px #000;"">+0.05&pound;</div>
                </div></div></div>","null","","","","","","","","","","","","","","","","","","","","","","","","","","","","","","","",""
"html-keyboard-response","99","292191","0.0-5.0-137.0","698341d57fe7b870bddf91b8","69f10c5d5c1b9b3130e33fee","0.5","desktop","0","0","0","","","","","","luck_game","","574","<div id=""score-counter"">TOTAL SCORE: &pound;0.10</div><div class=""experiment-container""><div class=""center-zone""><div class=""cross""></div><div class=""triangle-grid""><div class=""machine top-center blue""></div><div class=""machine bottom-left green-outline""></div><div class=""machine bottom-right red""></div></div></div></div>","arrowright","","","","gambling_choice","1","19","arrowright","bottom-right","red","arrowup","top-center","blue","arrowleft","bottom-left","green","arrowright","bottom-right","red","1","1","0.15","0.1","0.05","0.05","true","false","","","","","",""
"html-keyboard-response","100","292300","0.0-5.0-138.0-0.0","698341d57fe7b870bddf91b8","69f10c5d5c1b9b3130e33fee","0.5","desktop","0","0","0","","","","","","luck_game","","null","<div id=""score-counter"">TOTAL SCORE: &pound;0.10</div><div class=""experiment-container""><div class=""center-zone""><div class=""cross""></div><div class=""triangle-grid""><div class=""machine top-center blue""></div><div class=""machine bottom-left green-outline""></div><div class=""machine bottom-right red""></div></div></div></div>","null","","","","","","","","","","","","","","","","","","","","","","","","","","","","","","","",""
"html-keyboard-response","101","292811","0.0-5.0-139.0-0.0","698341d57fe7b870bddf91b8","69f10c5d5c1b9b3130e33fee","0.5","desktop","0","0","0","","","","","","luck_game","","null","<div id=""score-counter"">TOTAL SCORE: &pound;0.10</div><div class=""experiment-container""><div class=""center-zone""><div class=""cross""></div></div></div>","null","","","","","","","","","","","","","","","","","","","","","","","","","","","","","","","",""
"html-keyboard-response","102","293818","0.0-5.0-140.0-0.0","698341d57fe7b870bddf91b8","69f10c5d5c1b9b3130e33fee","0.5","desktop","0","0","0","","","","","","luck_game","","null","<div id=""score-counter"">TOTAL SCORE: &pound;0.15</div><div class=""experiment-container""><div class=""center-zone""><div class=""cross""></div>
                <div style=""position: absolute; z-index: 10; display: flex; flex-direction: column; align-items: center; justify-content: center;"">
                    <div class=""win-text"" style=""font-size: 48px; font-weight: bold; margin-bottom: 20px; text-shadow: 2px 2px 4px #000;"">WIN</div>
                    <img src=""images/coin_reward.png"" class=""reward-img"" style=""background-color: black; border-radius: 50%;"">
                    <div class=""win-text"" style=""font-size: 48px; font-weight: bold; margin-top: 20px; text-shadow: 2px 2px 4px #000;"">+0.05&pound;</div>
                </div></div></div>","null","","","","","","","","","","","","","","","","","","","","","","","","","","","","","","","",""
"html-keyboard-response","103","295042","0.0-5.0-143.0","698341d57fe7b870bddf91b8","69f10c5d5c1b9b3130e33fee","0.5","desktop","0","0","0","","","","","","luck_game","","1224","<div id=""score-counter"">TOTAL SCORE: &pound;0.15</div><div class=""experiment-container""><div class=""center-zone""><div class=""cross""></div><div class=""triangle-grid""><div class=""machine top-center blue""></div><div class=""machine bottom-left green-outline""></div><div class=""machine bottom-right red""></div></div></div></div>","arrowup","","","","gambling_choice","1","20","arrowup","top-center","blue","arrowright","bottom-right","red","arrowleft","bottom-left","green","arrowleft","bottom-left","green","1","1","0.2","0.15","0.05","0.05","true","false","","","","","",""
"html-keyboard-response","104","295143","0.0-5.0-144.0-0.0","698341d57fe7b870bddf91b8","69f10c5d5c1b9b3130e33fee","0.5","desktop","0","0","0","","","","","","luck_game","","null","<div id=""score-counter"">TOTAL SCORE: &pound;0.15</div><div class=""experiment-container""><div class=""center-zone""><div class=""cross""></div><div class=""triangle-grid""><div class=""machine top-center blue""></div><div class=""machine bottom-left green-outline""></div><div class=""machine bottom-right red""></div></div></div></div>","null","","","","","","","","","","","","","","","","","","","","","","","","","","","","","","","",""
"html-keyboard-response","105","295652","0.0-5.0-145.0-0.0","698341d57fe7b870bddf91b8","69f10c5d5c1b9b3130e33fee","0.5","desktop","0","0","0","","","","","","luck_game","","null","<div id=""score-counter"">TOTAL SCORE: &pound;0.15</div><div class=""experiment-container""><div class=""center-zone""><div class=""cross""></div></div></div>","null","","","","","","","","","","","","","","","","","","","","","","","","","","","","","","","",""
"html-keyboard-response","106","296657","0.0-5.0-146.0-0.0","698341d57fe7b870bddf91b8","69f10c5d5c1b9b3130e33fee","0.5","desktop","0","0","0","","","","","","luck_game","","null","<div id=""score-counter"">TOTAL SCORE: &pound;0.20</div><div class=""experiment-container""><div class=""center-zone""><div class=""cross""></div>
                <div style=""position: absolute; z-index: 10; display: flex; flex-direction: column; align-items: center; justify-content: center;"">
                    <div class=""win-text"" style=""font-size: 48px; font-weight: bold; margin-bottom: 20px; text-shadow: 2px 2px 4px #000;"">WIN</div>
                    <img src=""images/coin_reward.png"" class=""reward-img"" style=""background-color: black; border-radius: 50%;"">
                    <div class=""win-text"" style=""font-size: 48px; font-weight: bold; margin-top: 20px; text-shadow: 2px 2px 4px #000;"">+0.05&pound;</div>
                </div></div></div>","null","","","","","","","","","","","","","","","","","","","","","","","","","","","","","","","",""
"html-keyboard-response","107","297763","0.0-5.0-149.0","698341d57fe7b870bddf91b8","69f10c5d5c1b9b3130e33fee","0.5","desktop","0","0","0","","","","","","luck_game","","1105","<div id=""score-counter"">TOTAL SCORE: &pound;0.20</div><div class=""experiment-container""><div class=""center-zone""><div class=""cross""></div><div class=""triangle-grid""><div class=""machine top-center blue""></div><div class=""machine bottom-left green""></div><div class=""machine bottom-right red-outline""></div></div></div></div>","arrowleft","","","","gambling_choice","1","21","arrowleft","bottom-left","green","arrowup","top-center","blue","arrowright","bottom-right","red","arrowleft","bottom-left","green","1","1","0.25","0.2","0.05","0.05","true","false","","","","","",""
"html-keyboard-response","108","297865","0.0-5.0-150.0-0.0","698341d57fe7b870bddf91b8","69f10c5d5c1b9b3130e33fee","0.5","desktop","0","0","0","","","","","","luck_game","","null","<div id=""score-counter"">TOTAL SCORE: &pound;0.20</div><div class=""experiment-container""><div class=""center-zone""><div class=""cross""></div><div class=""triangle-grid""><div class=""machine top-center blue""></div><div class=""machine bottom-left green""></div><div class=""machine bottom-right red-outline""></div></div></div></div>","null","","","","","","","","","","","","","","","","","","","","","","","","","","","","","","","",""
"html-keyboard-response","109","298377","0.0-5.0-151.0-0.0","698341d57fe7b870bddf91b8","69f10c5d5c1b9b3130e33fee","0.5","desktop","0","0","0","","","","","","luck_game","","null","<div id=""score-counter"">TOTAL SCORE: &pound;0.20</div><div class=""experiment-container""><div class=""center-zone""><div class=""cross""></div></div></div>","null","","","","","","","","","","","","","","","","","","","","","","","","","","","","","","","",""
"html-keyboard-response","110","299383","0.0-5.0-152.0-0.0","698341d57fe7b870bddf91b8","69f10c5d5c1b9b3130e33fee","0.5","desktop","0","0","0","","","","","","luck_game","","null","<div id=""score-counter"">TOTAL SCORE: &pound;0.25</div><div class=""experiment-container""><div class=""center-zone""><div class=""cross""></div>
                <div style=""position: absolute; z-index: 10; display: flex; flex-direction: column; align-items: center; justify-content: center;"">
                    <div class=""win-text"" style=""font-size: 48px; font-weight: bold; margin-bottom: 20px; text-shadow: 2px 2px 4px #000;"">WIN</div>
                    <img src=""images/coin_reward.png"" class=""reward-img"" style=""background-color: black; border-radius: 50%;"">
                    <div class=""win-text"" style=""font-size: 48px; font-weight: bold; margin-top: 20px; text-shadow: 2px 2px 4px #000;"">+0.05&pound;</div>
                </div></div></div>","null","","","","","","","","","","","","","","","","","","","","","","","","","","","","","","","",""
"html-keyboard-response","111","300122","0.0-5.0-155.0","698341d57fe7b870bddf91b8","69f10c5d5c1b9b3130e33fee","0.5","desktop","0","0","0","","","","","","luck_game","","738","<div id=""score-counter"">TOTAL SCORE: &pound;0.25</div><div class=""experiment-container""><div class=""center-zone""><div class=""cross""></div><div class=""triangle-grid""><div class=""machine top-center blue-outline""></div><div class=""machine bottom-left green""></div><div class=""machine bottom-right red""></div></div></div></div>","arrowright","","","","gambling_choice","1","22","arrowright","bottom-right","red","arrowleft","bottom-left","green","arrowup","top-center","blue","arrowright","bottom-right","red","1","1","0.3","0.25","0.05","0.05","true","false","","","","","",""
"html-keyboard-response","112","300235","0.0-5.0-156.0-0.0","698341d57fe7b870bddf91b8","69f10c5d5c1b9b3130e33fee","0.5","desktop","0","0","0","","","","","","luck_game","","null","<div id=""score-counter"">TOTAL SCORE: &pound;0.25</div><div class=""experiment-container""><div class=""center-zone""><div class=""cross""></div><div class=""triangle-grid""><div class=""machine top-center blue-outline""></div><div class=""machine bottom-left green""></div><div class=""machine bottom-right red""></div></div></div></div>","null","","","","","","","","","","","","","","","","","","","","","","","","","","","","","","","",""
"html-keyboard-response","113","300748","0.0-5.0-157.0-0.0","698341d57fe7b870bddf91b8","69f10c5d5c1b9b3130e33fee","0.5","desktop","0","0","0","","","","","","luck_game","","null","<div id=""score-counter"">TOTAL SCORE: &pound;0.25</div><div class=""experiment-container""><div class=""center-zone""><div class=""cross""></div></div></div>","null","","","","","","","","","","","","","","","","","","","","","","","","","","","","","","","",""
"html-keyboard-response","114","301754","0.0-5.0-158.0-0.0","698341d57fe7b870bddf91b8","69f10c5d5c1b9b3130e33fee","0.5","desktop","0","0","0","","","","","","luck_game","","null","<div id=""score-counter"">TOTAL SCORE: &pound;0.30</div><div class=""experiment-container""><div class=""center-zone""><div class=""cross""></div>
                <div style=""position: absolute; z-index: 10; display: flex; flex-direction: column; align-items: center; justify-content: center;"">
                    <div class=""win-text"" style=""font-size: 48px; font-weight: bold; margin-bottom: 20px; text-shadow: 2px 2px 4px #000;"">WIN</div>
                    <img src=""images/coin_reward.png"" class=""reward-img"" style=""background-color: black; border-radius: 50%;"">
                    <div class=""win-text"" style=""font-size: 48px; font-weight: bold; margin-top: 20px; text-shadow: 2px 2px 4px #000;"">+0.05&pound;</div>
                </div></div></div>","null","","","","","","","","","","","","","","","","","","","","","","","","","","","","","","","",""
"html-keyboard-response","115","303152","0.0-5.0-161.0","698341d57fe7b870bddf91b8","69f10c5d5c1b9b3130e33fee","0.5","desktop","0","0","0","","","","","","luck_game","","1397","<div id=""score-counter"">TOTAL SCORE: &pound;0.30</div><div class=""experiment-container""><div class=""center-zone""><div class=""cross""></div><div class=""triangle-grid""><div class=""machine top-center blue-outline""></div><div class=""machine bottom-left green""></div><div class=""machine bottom-right red""></div></div></div></div>","arrowright","","","","gambling_choice","1","23","arrowright","bottom-right","red","arrowright","bottom-right","red","arrowup","top-center","blue","arrowup","top-center","blue","1","1","0.35","0.3","0.05","0.05","true","false","","","","","",""
"html-keyboard-response","116","303254","0.0-5.0-162.0-0.0","698341d57fe7b870bddf91b8","69f10c5d5c1b9b3130e33fee","0.5","desktop","0","0","0","","","","","","luck_game","","null","<div id=""score-counter"">TOTAL SCORE: &pound;0.30</div><div class=""experiment-container""><div class=""center-zone""><div class=""cross""></div><div class=""triangle-grid""><div class=""machine top-center blue-outline""></div><div class=""machine bottom-left green""></div><div class=""machine bottom-right red""></div></div></div></div>","null","","","","","","","","","","","","","","","","","","","","","","","","","","","","","","","",""
"html-keyboard-response","117","303764","0.0-5.0-163.0-0.0","698341d57fe7b870bddf91b8","69f10c5d5c1b9b3130e33fee","0.5","desktop","0","0","0","","","","","","luck_game","","null","<div id=""score-counter"">TOTAL SCORE: &pound;0.30</div><div class=""experiment-container""><div class=""center-zone""><div class=""cross""></div></div></div>","null","","","","","","","","","","","","","","","","","","","","","","","","","","","","","","","",""
"html-keyboard-response","118","304772","0.0-5.0-164.0-0.0","698341d57fe7b870bddf91b8","69f10c5d5c1b9b3130e33fee","0.5","desktop","0","0","0","","","","","","luck_game","","null","<div id=""score-counter"">TOTAL SCORE: &pound;0.35</div><div class=""experiment-container""><div class=""center-zone""><div class=""cross""></div>
                <div style=""position: absolute; z-index: 10; display: flex; flex-direction: column; align-items: center; justify-content: center;"">
                    <div class=""win-text"" style=""font-size: 48px; font-weight: bold; margin-bottom: 20px; text-shadow: 2px 2px 4px #000;"">WIN</div>
                    <img src=""images/coin_reward.png"" class=""reward-img"" style=""background-color: black; border-radius: 50%;"">
                    <div class=""win-text"" style=""font-size: 48px; font-weight: bold; margin-top: 20px; text-shadow: 2px 2px 4px #000;"">+0.05&pound;</div>
                </div></div></div>","null","","","","","","","","","","","","","","","","","","","","","","","","","","","","","","","",""
"html-keyboard-response","119","305440","0.0-5.0-167.0","698341d57fe7b870bddf91b8","69f10c5d5c1b9b3130e33fee","0.5","desktop","0","0","0","","","","","","luck_game","","667","<div id=""score-counter"">TOTAL SCORE: &pound;0.35</div><div class=""experiment-container""><div class=""center-zone""><div class=""cross""></div><div class=""triangle-grid""><div class=""machine top-center blue""></div><div class=""machine bottom-left green-outline""></div><div class=""machine bottom-right red""></div></div></div></div>","arrowup","","","","gambling_choice","1","24","arrowup","top-center","blue","arrowright","bottom-right","red","arrowleft","bottom-left","green","arrowup","top-center","blue","1","1","0.4","0.35","0.05","0.05","true","false","","","","","",""
"html-keyboard-response","120","305549","0.0-5.0-168.0-0.0","698341d57fe7b870bddf91b8","69f10c5d5c1b9b3130e33fee","0.5","desktop","0","0","0","","","","","","luck_game","","null","<div id=""score-counter"">TOTAL SCORE: &pound;0.35</div><div class=""experiment-container""><div class=""center-zone""><div class=""cross""></div><div class=""triangle-grid""><div class=""machine top-center blue""></div><div class=""machine bottom-left green-outline""></div><div class=""machine bottom-right red""></div></div></div></div>","null","","","","","","","","","","","","","","","","","","","","","","","","","","","","","","","",""
"html-keyboard-response","121","306061","0.0-5.0-169.0-0.0","698341d57fe7b870bddf91b8","69f10c5d5c1b9b3130e33fee","0.5","desktop","0","0","0","","","","","","luck_game","","null","<div id=""score-counter"">TOTAL SCORE: &pound;0.35</div><div class=""experiment-container""><div class=""center-zone""><div class=""cross""></div></div></div>","null","","","","","","","","","","","","","","","","","","","","","","","","","","","","","","","",""
"html-keyboard-response","122","307069","0.0-5.0-170.0-0.0","698341d57fe7b870bddf91b8","69f10c5d5c1b9b3130e33fee","0.5","desktop","0","0","0","","","","","","luck_game","","null","<div id=""score-counter"">TOTAL SCORE: &pound;0.40</div><div class=""experiment-container""><div class=""center-zone""><div class=""cross""></div>
                <div style=""position: absolute; z-index: 10; display: flex; flex-direction: column; align-items: center; justify-content: center;"">
                    <div class=""win-text"" style=""font-size: 48px; font-weight: bold; margin-bottom: 20px; text-shadow: 2px 2px 4px #000;"">WIN</div>
                    <img src=""images/coin_reward.png"" class=""reward-img"" style=""background-color: black; border-radius: 50%;"">
                    <div class=""win-text"" style=""font-size: 48px; font-weight: bold; margin-top: 20px; text-shadow: 2px 2px 4px #000;"">+0.05&pound;</div>
                </div></div></div>","null","","","","","","","","","","","","","","","","","","","","","","","","","","","","","","","",""
"html-keyboard-response","123","308885","0.0-5.0-173.0","698341d57fe7b870bddf91b8","69f10c5d5c1b9b3130e33fee","0.5","desktop","0","0","0","","","","","","luck_game","","1816","<div id=""score-counter"">TOTAL SCORE: &pound;0.40</div><div class=""experiment-container""><div class=""center-zone""><div class=""cross""></div><div class=""triangle-grid""><div class=""machine top-center blue-outline""></div><div class=""machine bottom-left green""></div><div class=""machine bottom-right red""></div></div></div></div>","arrowleft","","","","gambling_choice","1","25","arrowleft","bottom-left","green","arrowup","top-center","blue","arrowup","top-center","blue","arrowleft","bottom-left","green","1","1","0.45","0.4","0.05","0.05","true","false","","","","","",""
"html-keyboard-response","124","308995","0.0-5.0-174.0-0.0","698341d57fe7b870bddf91b8","69f10c5d5c1b9b3130e33fee","0.5","desktop","0","0","0","","","","","","luck_game","","null","<div id=""score-counter"">TOTAL SCORE: &pound;0.40</div><div class=""experiment-container""><div class=""center-zone""><div class=""cross""></div><div class=""triangle-grid""><div class=""machine top-center blue-outline""></div><div class=""machine bottom-left green""></div><div class=""machine bottom-right red""></div></div></div></div>","null","","","","","","","","","","","","","","","","","","","","","","","","","","","","","","","",""
"html-keyboard-response","125","309505","0.0-5.0-175.0-0.0","698341d57fe7b870bddf91b8","69f10c5d5c1b9b3130e33fee","0.5","desktop","0","0","0","","","","","","luck_game","","null","<div id=""score-counter"">TOTAL SCORE: &pound;0.40</div><div class=""experiment-container""><div class=""center-zone""><div class=""cross""></div></div></div>","null","","","","","","","","","","","","","","","","","","","","","","","","","","","","","","","",""
"html-keyboard-response","126","310512","0.0-5.0-176.0-0.0","698341d57fe7b870bddf91b8","69f10c5d5c1b9b3130e33fee","0.5","desktop","0","0","0","","","","","","luck_game","","null","<div id=""score-counter"">TOTAL SCORE: &pound;0.45</div><div class=""experiment-container""><div class=""center-zone""><div class=""cross""></div>
                <div style=""position: absolute; z-index: 10; display: flex; flex-direction: column; align-items: center; justify-content: center;"">
                    <div class=""win-text"" style=""font-size: 48px; font-weight: bold; margin-bottom: 20px; text-shadow: 2px 2px 4px #000;"">WIN</div>
                    <img src=""images/coin_reward.png"" class=""reward-img"" style=""background-color: black; border-radius: 50%;"">
                    <div class=""win-text"" style=""font-size: 48px; font-weight: bold; margin-top: 20px; text-shadow: 2px 2px 4px #000;"">+0.05&pound;</div>
                </div></div></div>","null","","","","","","","","","","","","","","","","","","","","","","","","","","","","","","","",""
"html-keyboard-response","127","339595","0.0-5.0-179.0","698341d57fe7b870bddf91b8","69f10c5d5c1b9b3130e33fee","0.5","desktop","0","0","0","","","","","","luck_game","","29082","
            <div class=""experiment-container"">
                <div style=""text-align: center; font-family: sans-serif;"">
                    <h2 style=""color: white; font-size: 40px; margin-bottom: 20px;"">Rest phase.</h2>
                    <p style=""font-size: 24px; color: white;"">Take as much time as needed.</p>
                    <p style=""font-size: 24px; color: white; margin-top: 40px;"">When ready, press <strong>Space</strong> to continue.</p>
                </div>
            </div>"," ","","","","rest_break","","","","","","","","","","","","","","","","","","","","","","","","","","","",""
"html-keyboard-response","128","341949","0.0-5.0-180.0","698341d57fe7b870bddf91b8","69f10c5d5c1b9b3130e33fee","0.5","desktop","0","0","0","","","","","","luck_game","","2353","<div id=""score-counter"">TOTAL SCORE: &pound;0.45</div><div class=""experiment-container""><div class=""center-zone""><div class=""cross""></div><div class=""triangle-grid""><div class=""machine top-center blue""></div><div class=""machine bottom-left green""></div><div class=""machine bottom-right red-outline""></div></div></div></div>","arrowup","","","","gambling_choice","2","1","arrowup","top-center","blue","arrowleft","bottom-left","green","arrowright","bottom-right","red","arrowup","top-center","blue","1","1","0.5","0.45","0.05","0.05","true","false","","","","","",""
"html-keyboard-response","129","342051","0.0-5.0-181.0-0.0","698341d57fe7b870bddf91b8","69f10c5d5c1b9b3130e33fee","0.5","desktop","0","0","0","","","","","","luck_game","","null","<div id=""score-counter"">TOTAL SCORE: &pound;0.45</div><div class=""experiment-container""><div class=""center-zone""><div class=""cross""></div><div class=""triangle-grid""><div class=""machine top-center blue""></div><div class=""machine bottom-left green""></div><div class=""machine bottom-right red-outline""></div></div></div></div>","null","","","","","","","","","","","","","","","","","","","","","","","","","","","","","","","",""
"html-keyboard-response","130","342560","0.0-5.0-182.0-0.0","698341d57fe7b870bddf91b8","69f10c5d5c1b9b3130e33fee","0.5","desktop","0","0","0","","","","","","luck_game","","null","<div id=""score-counter"">TOTAL SCORE: &pound;0.45</div><div class=""experiment-container""><div class=""center-zone""><div class=""cross""></div></div></div>","null","","","","","","","","","","","","","","","","","","","","","","","","","","","","","","","",""
"html-keyboard-response","131","343574","0.0-5.0-183.0-0.0","698341d57fe7b870bddf91b8","69f10c5d5c1b9b3130e33fee","0.5","desktop","0","0","0","","","","","","luck_game","","null","<div id=""score-counter"">TOTAL SCORE: &pound;0.50</div><div class=""experiment-container""><div class=""center-zone""><div class=""cross""></div>
                <div style=""position: absolute; z-index: 10; display: flex; flex-direction: column; align-items: center; justify-content: center;"">
                    <div class=""win-text"" style=""font-size: 48px; font-weight: bold; margin-bottom: 20px; text-shadow: 2px 2px 4px #000;"">WIN</div>
                    <img src=""images/coin_reward.png"" class=""reward-img"" style=""background-color: black; border-radius: 50%;"">
                    <div class=""win-text"" style=""font-size: 48px; font-weight: bold; margin-top: 20px; text-shadow: 2px 2px 4px #000;"">+0.05&pound;</div>
                </div></div></div>","null","","","","","","","","","","","","","","","","","","","","","","","","","","","","","","","",""
"html-keyboard-response","132","344635","0.0-5.0-186.0","698341d57fe7b870bddf91b8","69f10c5d5c1b9b3130e33fee","0.5","desktop","0","0","0","","","","","","luck_game","","1061","<div id=""score-counter"">TOTAL SCORE: &pound;0.50</div><div class=""experiment-container""><div class=""center-zone""><div class=""cross""></div><div class=""triangle-grid""><div class=""machine top-center blue""></div><div class=""machine bottom-left green""></div><div class=""machine bottom-right red-outline""></div></div></div></div>","arrowleft","","","","gambling_choice","2","2","arrowleft","bottom-left","green","arrowup","top-center","blue","arrowright","bottom-right","red","arrowright","bottom-right","red","1","1","0.55","0.5","0.05","0.05","true","false","","","","","",""
"html-keyboard-response","133","344736","0.0-5.0-187.0-0.0","698341d57fe7b870bddf91b8","69f10c5d5c1b9b3130e33fee","0.5","desktop","0","0","0","","","","","","luck_game","","null","<div id=""score-counter"">TOTAL SCORE: &pound;0.50</div><div class=""experiment-container""><div class=""center-zone""><div class=""cross""></div><div class=""triangle-grid""><div class=""machine top-center blue""></div><div class=""machine bottom-left green""></div><div class=""machine bottom-right red-outline""></div></div></div></div>","null","","","","","","","","","","","","","","","","","","","","","","","","","","","","","","","",""
"html-keyboard-response","134","345250","0.0-5.0-188.0-0.0","698341d57fe7b870bddf91b8","69f10c5d5c1b9b3130e33fee","0.5","desktop","0","0","0","","","","","","luck_game","","null","<div id=""score-counter"">TOTAL SCORE: &pound;0.50</div><div class=""experiment-container""><div class=""center-zone""><div class=""cross""></div></div></div>","null","","","","","","","","","","","","","","","","","","","","","","","","","","","","","","","",""
"html-keyboard-response","135","346257","0.0-5.0-189.0-0.0","698341d57fe7b870bddf91b8","69f10c5d5c1b9b3130e33fee","0.5","desktop","0","0","0","","","","","","luck_game","","null","<div id=""score-counter"">TOTAL SCORE: &pound;0.55</div><div class=""experiment-container""><div class=""center-zone""><div class=""cross""></div>
                <div style=""position: absolute; z-index: 10; display: flex; flex-direction: column; align-items: center; justify-content: center;"">
                    <div class=""win-text"" style=""font-size: 48px; font-weight: bold; margin-bottom: 20px; text-shadow: 2px 2px 4px #000;"">WIN</div>
                    <img src=""images/coin_reward.png"" class=""reward-img"" style=""background-color: black; border-radius: 50%;"">
                    <div class=""win-text"" style=""font-size: 48px; font-weight: bold; margin-top: 20px; text-shadow: 2px 2px 4px #000;"">+0.05&pound;</div>
                </div></div></div>","null","","","","","","","","","","","","","","","","","","","","","","","","","","","","","","","",""
"html-keyboard-response","136","347124","0.0-5.0-192.0","698341d57fe7b870bddf91b8","69f10c5d5c1b9b3130e33fee","0.5","desktop","0","0","0","","","","","","luck_game","","866","<div id=""score-counter"">TOTAL SCORE: &pound;0.55</div><div class=""experiment-container""><div class=""center-zone""><div class=""cross""></div><div class=""triangle-grid""><div class=""machine top-center blue""></div><div class=""machine bottom-left green-outline""></div><div class=""machine bottom-right red""></div></div></div></div>","arrowright","","","","gambling_choice","2","3","arrowright","bottom-right","red","arrowleft","bottom-left","green","arrowleft","bottom-left","green","arrowright","bottom-right","red","1","1","0.6","0.55","0.05","0.05","true","false","","","","","",""
"html-keyboard-response","137","347233","0.0-5.0-193.0-0.0","698341d57fe7b870bddf91b8","69f10c5d5c1b9b3130e33fee","0.5","desktop","0","0","0","","","","","","luck_game","","null","<div id=""score-counter"">TOTAL SCORE: &pound;0.55</div><div class=""experiment-container""><div class=""center-zone""><div class=""cross""></div><div class=""triangle-grid""><div class=""machine top-center blue""></div><div class=""machine bottom-left green-outline""></div><div class=""machine bottom-right red""></div></div></div></div>","null","","","","","","","","","","","","","","","","","","","","","","","","","","","","","","","",""
"html-keyboard-response","138","347742","0.0-5.0-194.0-0.0","698341d57fe7b870bddf91b8","69f10c5d5c1b9b3130e33fee","0.5","desktop","0","0","0","","","","","","luck_game","","null","<div id=""score-counter"">TOTAL SCORE: &pound;0.55</div><div class=""experiment-container""><div class=""center-zone""><div class=""cross""></div></div></div>","null","","","","","","","","","","","","","","","","","","","","","","","","","","","","","","","",""
"html-keyboard-response","139","348751","0.0-5.0-195.0-0.0","698341d57fe7b870bddf91b8","69f10c5d5c1b9b3130e33fee","0.5","desktop","0","0","0","","","","","","luck_game","","null","<div id=""score-counter"">TOTAL SCORE: &pound;0.60</div><div class=""experiment-container""><div class=""center-zone""><div class=""cross""></div>
                <div style=""position: absolute; z-index: 10; display: flex; flex-direction: column; align-items: center; justify-content: center;"">
                    <div class=""win-text"" style=""font-size: 48px; font-weight: bold; margin-bottom: 20px; text-shadow: 2px 2px 4px #000;"">WIN</div>
                    <img src=""images/coin_reward.png"" class=""reward-img"" style=""background-color: black; border-radius: 50%;"">
                    <div class=""win-text"" style=""font-size: 48px; font-weight: bold; margin-top: 20px; text-shadow: 2px 2px 4px #000;"">+0.05&pound;</div>
                </div></div></div>","null","","","","","","","","","","","","","","","","","","","","","","","","","","","","","","","",""
