"trial_type","trial_index","time_elapsed","internal_node_id","subject_id","study_id","win_chance","device_type","blur_count","fullscreen_exit_count","failed_attention_checks","success","timeout","failed_images","failed_audio","failed_video","phase","view_history","rt","stimulus","response","question_order","trial_name","value","task","block_number","trial_number","choice_key","choice_location","choice_color","choice_key_oneback","choice_location_oneback","choice_color_oneback","unavailable_key","unavailable_location","unavailable_color","unavailable_key_oneback","unavailable_location_oneback","unavailable_color_oneback","reward_oneback","reward","total_score","total_score_oneback","coin_earned","coin_earned_oneback","is_choice_valid","is_timeout_reached","prompt","flipped","attention","expected_answer","category","question_index"
"pavlovia","0","6078","0.0-0.0","6980d9a70a7862a47c69046d","69f10c5d5c1b9b3130e33fee","0.5","desktop","0","0","0","","","","","","","","","","","","","","","","","","","","","","","","","","","","","","","","","","","","","","","","","",""
"preload","1","8283","0.0-2.0","6980d9a70a7862a47c69046d","69f10c5d5c1b9b3130e33fee","0.5","desktop","0","0","0","true","false","[]","[]","[]","","","","","","","","","","","","","","","","","","","","","","","","","","","","","","","","","","","","",""
"html-keyboard-response","2","120267","0.0-3.0-0.0","6980d9a70a7862a47c69046d","69f10c5d5c1b9b3130e33fee","0.5","desktop","0","0","0","","","","","","captcha","","","","","","","","","","","","","","","","","","","","","","","","","","","","","","","","","","","",""
"fullscreen","3","124284","0.0-4.0","6980d9a70a7862a47c69046d","69f10c5d5c1b9b3130e33fee","0.5","desktop","0","0","0","true","","","","","setup","","","","","","","","","","","","","","","","","","","","","","","","","","","","","","","","","","","",""
"instructions","4","456115","0.0-5.0-0.0-0.0-0.0","6980d9a70a7862a47c69046d","69f10c5d5c1b9b3130e33fee","0.5","desktop","0","0","0","","","","","","luck_game","[{""page_index"":0,""viewing_time"":37221},{""page_index"":1,""viewing_time"":14091},{""page_index"":2,""viewing_time"":31265},{""page_index"":3,""viewing_time"":9246},{""page_index"":4,""viewing_time"":8561},{""page_index"":5,""viewing_time"":8488},{""page_index"":6,""viewing_time"":7508},{""page_index"":7,""viewing_time"":8476},{""page_index"":8,""viewing_time"":14336},{""page_index"":9,""viewing_time"":149570},{""page_index"":10,""viewing_time"":43067}]","331829","","","","","","","","","","","","","","","","","","","","","","","","","","","","","","","","","",""
"html-button-response","5","469487","0.0-5.0-0.0-1.0","6980d9a70a7862a47c69046d","69f10c5d5c1b9b3130e33fee","0.5","desktop","0","0","0","","","","","","luck_game","","13370","<div style=""max-width:640px; margin:0 auto; text-align:left;
                               font-family:sans-serif; color:white; padding:10px;"">
            <h3 style=""color:white; text-align:center;"">Quick Reminder</h3>
            <ul style=""line-height:2.1; font-size:1.05em;"">
                <li>There are <strong>3 luck machines</strong>:
                    <span style=""color:#5599ff""><strong>Blue</strong></span> (&uarr; Up),
                    <span style=""color:#55cc55""><strong>Green</strong></span> (&larr; Left),
                    <span style=""color:#ff5555""><strong>Red</strong></span> (&rarr; Right)</li>
                <li>Each turn, <strong>2 machines are READY</strong> and 1 is
                    <strong>unavailable</strong> (shown as a colored outline)</li>
                <li>Press the corresponding arrow key to activate a READY machine</li>
                <li>Activating an <strong>unavailable</strong> machine: lose your turn + time penalty</li>
                <li>Activating a READY machine: <strong class=""win-text"">50% win +&pound;0.05</strong>
                    / <strong class=""lose-text"">50% lose &minus;&pound;0.05</strong></li>
                <li><strong>Time limit:</strong> 6 seconds per turn &mdash; don&rsquo;t miss your chance!</li>
                <li><strong>Goal:</strong> Quickly activate READY machines, avoid unavailable ones</li>
            </ul>
        </div>","0","","","","","","","","","","","","","","","","","","","","","","","","","","","","","","","",""
"survey-multi-choice","6","640374","0.0-5.0-0.0-2.0","6980d9a70a7862a47c69046d","69f10c5d5c1b9b3130e33fee","0.5","desktop","0","0","0","","","","","","luck_game","","170884","","{""q_total_machines"":""3"",""q_ready_machines"":""2"",""q_blue_key"":""↑ Up arrow key"",""q_red_key"":""→ Right arrow key"",""q_outcome"":""The red machine is unavailable. I will lose my turn and chance to win coins, and get a time penalty."",""q_ready_outcome"":""I will either win a coin (+0.05£) or lose a coin (−0.05£)."",""q_goal"":""My goal is to quickly activate available luck machines, avoiding unavailable machines. If I am lucky, I will get rewarded."",""q_win_rates"":""Red: 50% win rate — Blue: 50% win rate — Green: 50% win rate""}","[0,1,2,3,4,5,6,7]","luck_game_quiz","","","","","","","","","","","","","","","","","","","","","","","","","","","","","",""
"html-keyboard-response","7","649407","0.0-5.0-1.0","6980d9a70a7862a47c69046d","69f10c5d5c1b9b3130e33fee","0.5","desktop","0","0","0","","","","","","luck_game","","9029","
            <div style=""max-width: 600px; margin: 0 auto; text-align: center; font-family: sans-serif;"">
                <h2 style=""color: white;"">Good job, you learned the instructions!</h2>
                <p>We will now move to a short <strong>training phase</strong> to get you familiar with the game.</p>
                <p>Your score will <strong>not</strong> be counted during training.</p>
                <br>
                <p><strong>Press Space to start training.</strong></p>
            </div>"," ","","","","","","","","","","","","","","","","","","","","","","","","","","","","","","","",""
"call-function","8","649408","0.0-5.0-2.0","6980d9a70a7862a47c69046d","69f10c5d5c1b9b3130e33fee","0.5","desktop","0","0","0","","","","","","luck_game","","","","","","","","","","","","","","","","","","","","","","","","","","","","","","","","","","","",""
"html-keyboard-response","9","650804","0.0-5.0-3.0","6980d9a70a7862a47c69046d","69f10c5d5c1b9b3130e33fee","0.5","desktop","0","0","0","","","","","","luck_game","","1394","<div class=""experiment-container""><div class=""center-zone""><div class=""cross""></div><div class=""triangle-grid""><div class=""machine top-center blue""></div><div class=""machine bottom-left green""></div><div class=""machine bottom-right red-outline""></div></div></div></div>","arrowup","","","","gambling_choice","training","1","arrowup","top-center","blue","null","null","null","arrowright","bottom-right","red","null","null","null","null","0","0","0","-0.05","null","true","false","","","","","",""
"html-keyboard-response","10","650907","0.0-5.0-4.0-0.0","6980d9a70a7862a47c69046d","69f10c5d5c1b9b3130e33fee","0.5","desktop","0","0","0","","","","","","luck_game","","null","<div class=""experiment-container""><div class=""center-zone""><div class=""cross""></div><div class=""triangle-grid""><div class=""machine top-center blue""></div><div class=""machine bottom-left green""></div><div class=""machine bottom-right red-outline""></div></div></div></div>","null","","","","","","","","","","","","","","","","","","","","","","","","","","","","","","","",""
"html-keyboard-response","11","651421","0.0-5.0-5.0-0.0","6980d9a70a7862a47c69046d","69f10c5d5c1b9b3130e33fee","0.5","desktop","0","0","0","","","","","","luck_game","","null","<div class=""experiment-container""><div class=""center-zone""><div class=""cross""></div></div></div>","null","","","","","","","","","","","","","","","","","","","","","","","","","","","","","","","",""
"html-keyboard-response","12","652431","0.0-5.0-6.0-0.0","6980d9a70a7862a47c69046d","69f10c5d5c1b9b3130e33fee","0.5","desktop","0","0","0","","","","","","luck_game","","null","<div class=""experiment-container""><div class=""center-zone""><div class=""cross""></div>
                <div style=""position: absolute; z-index: 10; display: flex; flex-direction: column; align-items: center; justify-content: center;"">
                    <div class=""lose-text"" style=""font-size: 48px; font-weight: bold; margin-bottom: 20px; text-shadow: 2px 2px 4px #000;"">LOSE</div>
                    <img src=""images/coin_no_reward.png"" class=""reward-img"" style=""background-color: black; border-radius: 50%;"">
                    <div class=""lose-text"" style=""font-size: 48px; font-weight: bold; margin-top: 20px; text-shadow: 2px 2px 4px #000;"">-0.05&pound;</div>
                </div></div></div>","null","","","","","","","","","","","","","","","","","","","","","","","","","","","","","","","",""
"html-keyboard-response","13","653187","0.0-5.0-9.0","6980d9a70a7862a47c69046d","69f10c5d5c1b9b3130e33fee","0.5","desktop","0","0","0","","","","","","luck_game","","754","<div class=""experiment-container""><div class=""center-zone""><div class=""cross""></div><div class=""triangle-grid""><div class=""machine top-center blue""></div><div class=""machine bottom-left green-outline""></div><div class=""machine bottom-right red""></div></div></div></div>","arrowright","","","","gambling_choice","training","2","arrowright","bottom-right","red","arrowup","top-center","blue","arrowleft","bottom-left","green","arrowright","bottom-right","red","0","1","0","0","0.05","-0.05","true","false","","","","","",""
"html-keyboard-response","14","653302","0.0-5.0-10.0-0.0","6980d9a70a7862a47c69046d","69f10c5d5c1b9b3130e33fee","0.5","desktop","0","0","0","","","","","","luck_game","","null","<div class=""experiment-container""><div class=""center-zone""><div class=""cross""></div><div class=""triangle-grid""><div class=""machine top-center blue""></div><div class=""machine bottom-left green-outline""></div><div class=""machine bottom-right red""></div></div></div></div>","null","","","","","","","","","","","","","","","","","","","","","","","","","","","","","","","",""
"html-keyboard-response","15","653815","0.0-5.0-11.0-0.0","6980d9a70a7862a47c69046d","69f10c5d5c1b9b3130e33fee","0.5","desktop","0","0","0","","","","","","luck_game","","null","<div class=""experiment-container""><div class=""center-zone""><div class=""cross""></div></div></div>","null","","","","","","","","","","","","","","","","","","","","","","","","","","","","","","","",""
"html-keyboard-response","16","654825","0.0-5.0-12.0-0.0","6980d9a70a7862a47c69046d","69f10c5d5c1b9b3130e33fee","0.5","desktop","0","0","0","","","","","","luck_game","","null","<div class=""experiment-container""><div class=""center-zone""><div class=""cross""></div>
                <div style=""position: absolute; z-index: 10; display: flex; flex-direction: column; align-items: center; justify-content: center;"">
                    <div class=""win-text"" style=""font-size: 48px; font-weight: bold; margin-bottom: 20px; text-shadow: 2px 2px 4px #000;"">WIN</div>
                    <img src=""images/coin_reward.png"" class=""reward-img"" style=""background-color: black; border-radius: 50%;"">
                    <div class=""win-text"" style=""font-size: 48px; font-weight: bold; margin-top: 20px; text-shadow: 2px 2px 4px #000;"">+0.05&pound;</div>
                </div></div></div>","null","","","","","","","","","","","","","","","","","","","","","","","","","","","","","","","",""
"html-keyboard-response","17","655633","0.0-5.0-15.0","6980d9a70a7862a47c69046d","69f10c5d5c1b9b3130e33fee","0.5","desktop","0","0","0","","","","","","luck_game","","805","<div class=""experiment-container""><div class=""center-zone""><div class=""cross""></div><div class=""triangle-grid""><div class=""machine top-center blue""></div><div class=""machine bottom-left green-outline""></div><div class=""machine bottom-right red""></div></div></div></div>","arrowright","","","","gambling_choice","training","3","arrowright","bottom-right","red","arrowright","bottom-right","red","arrowleft","bottom-left","green","arrowleft","bottom-left","green","1","1","0","0","0.05","0.05","true","false","","","","","",""
"html-keyboard-response","18","655743","0.0-5.0-16.0-0.0","6980d9a70a7862a47c69046d","69f10c5d5c1b9b3130e33fee","0.5","desktop","0","0","0","","","","","","luck_game","","null","<div class=""experiment-container""><div class=""center-zone""><div class=""cross""></div><div class=""triangle-grid""><div class=""machine top-center blue""></div><div class=""machine bottom-left green-outline""></div><div class=""machine bottom-right red""></div></div></div></div>","null","","","","","","","","","","","","","","","","","","","","","","","","","","","","","","","",""
"html-keyboard-response","19","656256","0.0-5.0-17.0-0.0","6980d9a70a7862a47c69046d","69f10c5d5c1b9b3130e33fee","0.5","desktop","0","0","0","","","","","","luck_game","","null","<div class=""experiment-container""><div class=""center-zone""><div class=""cross""></div></div></div>","null","","","","","","","","","","","","","","","","","","","","","","","","","","","","","","","",""
"html-keyboard-response","20","657268","0.0-5.0-18.0-0.0","6980d9a70a7862a47c69046d","69f10c5d5c1b9b3130e33fee","0.5","desktop","0","0","0","","","","","","luck_game","","null","<div class=""experiment-container""><div class=""center-zone""><div class=""cross""></div>
                <div style=""position: absolute; z-index: 10; display: flex; flex-direction: column; align-items: center; justify-content: center;"">
                    <div class=""win-text"" style=""font-size: 48px; font-weight: bold; margin-bottom: 20px; text-shadow: 2px 2px 4px #000;"">WIN</div>
                    <img src=""images/coin_reward.png"" class=""reward-img"" style=""background-color: black; border-radius: 50%;"">
                    <div class=""win-text"" style=""font-size: 48px; font-weight: bold; margin-top: 20px; text-shadow: 2px 2px 4px #000;"">+0.05&pound;</div>
                </div></div></div>","null","","","","","","","","","","","","","","","","","","","","","","","","","","","","","","","",""
"html-keyboard-response","21","657751","0.0-5.0-21.0","6980d9a70a7862a47c69046d","69f10c5d5c1b9b3130e33fee","0.5","desktop","0","0","0","","","","","","luck_game","","482","<div class=""experiment-container""><div class=""center-zone""><div class=""cross""></div><div class=""triangle-grid""><div class=""machine top-center blue-outline""></div><div class=""machine bottom-left green""></div><div class=""machine bottom-right red""></div></div></div></div>","arrowright","","","","gambling_choice","training","4","arrowright","bottom-right","red","arrowright","bottom-right","red","arrowup","top-center","blue","arrowleft","bottom-left","green","1","0","0","0","-0.05","0.05","true","false","","","","","",""
"html-keyboard-response","22","657858","0.0-5.0-22.0-0.0","6980d9a70a7862a47c69046d","69f10c5d5c1b9b3130e33fee","0.5","desktop","0","0","0","","","","","","luck_game","","null","<div class=""experiment-container""><div class=""center-zone""><div class=""cross""></div><div class=""triangle-grid""><div class=""machine top-center blue-outline""></div><div class=""machine bottom-left green""></div><div class=""machine bottom-right red""></div></div></div></div>","null","","","","","","","","","","","","","","","","","","","","","","","","","","","","","","","",""
"html-keyboard-response","23","658369","0.0-5.0-23.0-0.0","6980d9a70a7862a47c69046d","69f10c5d5c1b9b3130e33fee","0.5","desktop","0","0","0","","","","","","luck_game","","null","<div class=""experiment-container""><div class=""center-zone""><div class=""cross""></div></div></div>","null","","","","","","","","","","","","","","","","","","","","","","","","","","","","","","","",""
"html-keyboard-response","24","659379","0.0-5.0-24.0-0.0","6980d9a70a7862a47c69046d","69f10c5d5c1b9b3130e33fee","0.5","desktop","0","0","0","","","","","","luck_game","","null","<div class=""experiment-container""><div class=""center-zone""><div class=""cross""></div>
                <div style=""position: absolute; z-index: 10; display: flex; flex-direction: column; align-items: center; justify-content: center;"">
                    <div class=""lose-text"" style=""font-size: 48px; font-weight: bold; margin-bottom: 20px; text-shadow: 2px 2px 4px #000;"">LOSE</div>
                    <img src=""images/coin_no_reward.png"" class=""reward-img"" style=""background-color: black; border-radius: 50%;"">
                    <div class=""lose-text"" style=""font-size: 48px; font-weight: bold; margin-top: 20px; text-shadow: 2px 2px 4px #000;"">-0.05&pound;</div>
                </div></div></div>","null","","","","","","","","","","","","","","","","","","","","","","","","","","","","","","","",""
"call-function","25","659380","0.0-5.0-27.0","6980d9a70a7862a47c69046d","69f10c5d5c1b9b3130e33fee","0.5","desktop","0","0","0","","","","","","luck_game","","","","","","","","","","","","","","","","","","","","","","","","","","","","","","","","","","","",""
"html-keyboard-response","26","661390","0.0-5.0-28.0","6980d9a70a7862a47c69046d","69f10c5d5c1b9b3130e33fee","0.5","desktop","0","0","0","","","","","","luck_game","","2009","
            <div style=""max-width: 600px; margin: 0 auto; text-align: center; font-family: sans-serif;"">
                <h2 style=""color: white;"">Training Complete</h2>
                <p>You will now start the real game.</p>
                <br>
                <p><strong>Press Space to begin.</strong></p>
            </div>"," ","","","","","","","","","","","","","","","","","","","","","","","","","","","","","","","",""
"html-keyboard-response","27","662354","0.0-5.0-29.0","6980d9a70a7862a47c69046d","69f10c5d5c1b9b3130e33fee","0.5","desktop","0","0","0","","","","","","luck_game","","961","<div id=""score-counter"">TOTAL SCORE: &pound;0.00</div><div class=""experiment-container""><div class=""center-zone""><div class=""cross""></div><div class=""triangle-grid""><div class=""machine top-center blue""></div><div class=""machine bottom-left green""></div><div class=""machine bottom-right red-outline""></div></div></div></div>","arrowup","","","","gambling_choice","1","1","arrowup","top-center","blue","arrowright","bottom-right","red","arrowright","bottom-right","red","arrowup","top-center","blue","0","1","0.05","0","0.05","-0.05","true","false","","","","","",""
"html-keyboard-response","28","662456","0.0-5.0-30.0-0.0","6980d9a70a7862a47c69046d","69f10c5d5c1b9b3130e33fee","0.5","desktop","0","0","0","","","","","","luck_game","","null","<div id=""score-counter"">TOTAL SCORE: &pound;0.00</div><div class=""experiment-container""><div class=""center-zone""><div class=""cross""></div><div class=""triangle-grid""><div class=""machine top-center blue""></div><div class=""machine bottom-left green""></div><div class=""machine bottom-right red-outline""></div></div></div></div>","null","","","","","","","","","","","","","","","","","","","","","","","","","","","","","","","",""
"html-keyboard-response","29","662968","0.0-5.0-31.0-0.0","6980d9a70a7862a47c69046d","69f10c5d5c1b9b3130e33fee","0.5","desktop","0","0","0","","","","","","luck_game","","null","<div id=""score-counter"">TOTAL SCORE: &pound;0.00</div><div class=""experiment-container""><div class=""center-zone""><div class=""cross""></div></div></div>","null","","","","","","","","","","","","","","","","","","","","","","","","","","","","","","","",""
"html-keyboard-response","30","663981","0.0-5.0-32.0-0.0","6980d9a70a7862a47c69046d","69f10c5d5c1b9b3130e33fee","0.5","desktop","0","0","0","","","","","","luck_game","","null","<div id=""score-counter"">TOTAL SCORE: &pound;0.05</div><div class=""experiment-container""><div class=""center-zone""><div class=""cross""></div>
                <div style=""position: absolute; z-index: 10; display: flex; flex-direction: column; align-items: center; justify-content: center;"">
                    <div class=""win-text"" style=""font-size: 48px; font-weight: bold; margin-bottom: 20px; text-shadow: 2px 2px 4px #000;"">WIN</div>
                    <img src=""images/coin_reward.png"" class=""reward-img"" style=""background-color: black; border-radius: 50%;"">
                    <div class=""win-text"" style=""font-size: 48px; font-weight: bold; margin-top: 20px; text-shadow: 2px 2px 4px #000;"">+0.05&pound;</div>
                </div></div></div>","null","","","","","","","","","","","","","","","","","","","","","","","","","","","","","","","",""
"html-keyboard-response","31","664502","0.0-5.0-35.0","6980d9a70a7862a47c69046d","69f10c5d5c1b9b3130e33fee","0.5","desktop","0","0","0","","","","","","luck_game","","519","<div id=""score-counter"">TOTAL SCORE: &pound;0.05</div><div class=""experiment-container""><div class=""center-zone""><div class=""cross""></div><div class=""triangle-grid""><div class=""machine top-center blue-outline""></div><div class=""machine bottom-left green""></div><div class=""machine bottom-right red""></div></div></div></div>","arrowleft","","","","gambling_choice","1","2","arrowleft","bottom-left","green","arrowup","top-center","blue","arrowup","top-center","blue","arrowright","bottom-right","red","1","1","0.1","0.05","0.05","0.05","true","false","","","","","",""
"html-keyboard-response","32","664619","0.0-5.0-36.0-0.0","6980d9a70a7862a47c69046d","69f10c5d5c1b9b3130e33fee","0.5","desktop","0","0","0","","","","","","luck_game","","null","<div id=""score-counter"">TOTAL SCORE: &pound;0.05</div><div class=""experiment-container""><div class=""center-zone""><div class=""cross""></div><div class=""triangle-grid""><div class=""machine top-center blue-outline""></div><div class=""machine bottom-left green""></div><div class=""machine bottom-right red""></div></div></div></div>","null","","","","","","","","","","","","","","","","","","","","","","","","","","","","","","","",""
"html-keyboard-response","33","665135","0.0-5.0-37.0-0.0","6980d9a70a7862a47c69046d","69f10c5d5c1b9b3130e33fee","0.5","desktop","0","0","0","","","","","","luck_game","","null","<div id=""score-counter"">TOTAL SCORE: &pound;0.05</div><div class=""experiment-container""><div class=""center-zone""><div class=""cross""></div></div></div>","null","","","","","","","","","","","","","","","","","","","","","","","","","","","","","","","",""
"html-keyboard-response","34","666147","0.0-5.0-38.0-0.0","6980d9a70a7862a47c69046d","69f10c5d5c1b9b3130e33fee","0.5","desktop","0","0","0","","","","","","luck_game","","null","<div id=""score-counter"">TOTAL SCORE: &pound;0.10</div><div class=""experiment-container""><div class=""center-zone""><div class=""cross""></div>
                <div style=""position: absolute; z-index: 10; display: flex; flex-direction: column; align-items: center; justify-content: center;"">
                    <div class=""win-text"" style=""font-size: 48px; font-weight: bold; margin-bottom: 20px; text-shadow: 2px 2px 4px #000;"">WIN</div>
                    <img src=""images/coin_reward.png"" class=""reward-img"" style=""background-color: black; border-radius: 50%;"">
                    <div class=""win-text"" style=""font-size: 48px; font-weight: bold; margin-top: 20px; text-shadow: 2px 2px 4px #000;"">+0.05&pound;</div>
                </div></div></div>","null","","","","","","","","","","","","","","","","","","","","","","","","","","","","","","","",""
"html-keyboard-response","35","666870","0.0-5.0-41.0","6980d9a70a7862a47c69046d","69f10c5d5c1b9b3130e33fee","0.5","desktop","0","0","0","","","","","","luck_game","","721","<div id=""score-counter"">TOTAL SCORE: &pound;0.10</div><div class=""experiment-container""><div class=""center-zone""><div class=""cross""></div><div class=""triangle-grid""><div class=""machine top-center blue""></div><div class=""machine bottom-left green""></div><div class=""machine bottom-right red-outline""></div></div></div></div>","arrowleft","","","","gambling_choice","1","3","arrowleft","bottom-left","green","arrowleft","bottom-left","green","arrowright","bottom-right","red","arrowup","top-center","blue","1","1","0.15","0.1","0.05","0.05","true","false","","","","","",""
"html-keyboard-response","36","666985","0.0-5.0-42.0-0.0","6980d9a70a7862a47c69046d","69f10c5d5c1b9b3130e33fee","0.5","desktop","0","0","0","","","","","","luck_game","","null","<div id=""score-counter"">TOTAL SCORE: &pound;0.10</div><div class=""experiment-container""><div class=""center-zone""><div class=""cross""></div><div class=""triangle-grid""><div class=""machine top-center blue""></div><div class=""machine bottom-left green""></div><div class=""machine bottom-right red-outline""></div></div></div></div>","null","","","","","","","","","","","","","","","","","","","","","","","","","","","","","","","",""
"html-keyboard-response","37","667500","0.0-5.0-43.0-0.0","6980d9a70a7862a47c69046d","69f10c5d5c1b9b3130e33fee","0.5","desktop","0","0","0","","","","","","luck_game","","null","<div id=""score-counter"">TOTAL SCORE: &pound;0.10</div><div class=""experiment-container""><div class=""center-zone""><div class=""cross""></div></div></div>","null","","","","","","","","","","","","","","","","","","","","","","","","","","","","","","","",""
"html-keyboard-response","38","668511","0.0-5.0-44.0-0.0","6980d9a70a7862a47c69046d","69f10c5d5c1b9b3130e33fee","0.5","desktop","0","0","0","","","","","","luck_game","","null","<div id=""score-counter"">TOTAL SCORE: &pound;0.15</div><div class=""experiment-container""><div class=""center-zone""><div class=""cross""></div>
                <div style=""position: absolute; z-index: 10; display: flex; flex-direction: column; align-items: center; justify-content: center;"">
                    <div class=""win-text"" style=""font-size: 48px; font-weight: bold; margin-bottom: 20px; text-shadow: 2px 2px 4px #000;"">WIN</div>
                    <img src=""images/coin_reward.png"" class=""reward-img"" style=""background-color: black; border-radius: 50%;"">
                    <div class=""win-text"" style=""font-size: 48px; font-weight: bold; margin-top: 20px; text-shadow: 2px 2px 4px #000;"">+0.05&pound;</div>
                </div></div></div>","null","","","","","","","","","","","","","","","","","","","","","","","","","","","","","","","",""
"html-keyboard-response","39","669042","0.0-5.0-47.0","6980d9a70a7862a47c69046d","69f10c5d5c1b9b3130e33fee","0.5","desktop","0","0","0","","","","","","luck_game","","529","<div id=""score-counter"">TOTAL SCORE: &pound;0.15</div><div class=""experiment-container""><div class=""center-zone""><div class=""cross""></div><div class=""triangle-grid""><div class=""machine top-center blue""></div><div class=""machine bottom-left green""></div><div class=""machine bottom-right red-outline""></div></div></div></div>","arrowup","","","","gambling_choice","1","4","arrowup","top-center","blue","arrowleft","bottom-left","green","arrowright","bottom-right","red","arrowright","bottom-right","red","1","1","0.2","0.15","0.05","0.05","true","false","","","","","",""
"html-keyboard-response","40","669148","0.0-5.0-48.0-0.0","6980d9a70a7862a47c69046d","69f10c5d5c1b9b3130e33fee","0.5","desktop","0","0","0","","","","","","luck_game","","null","<div id=""score-counter"">TOTAL SCORE: &pound;0.15</div><div class=""experiment-container""><div class=""center-zone""><div class=""cross""></div><div class=""triangle-grid""><div class=""machine top-center blue""></div><div class=""machine bottom-left green""></div><div class=""machine bottom-right red-outline""></div></div></div></div>","null","","","","","","","","","","","","","","","","","","","","","","","","","","","","","","","",""
"html-keyboard-response","41","669658","0.0-5.0-49.0-0.0","6980d9a70a7862a47c69046d","69f10c5d5c1b9b3130e33fee","0.5","desktop","0","0","0","","","","","","luck_game","","null","<div id=""score-counter"">TOTAL SCORE: &pound;0.15</div><div class=""experiment-container""><div class=""center-zone""><div class=""cross""></div></div></div>","null","","","","","","","","","","","","","","","","","","","","","","","","","","","","","","","",""
"html-keyboard-response","42","670671","0.0-5.0-50.0-0.0","6980d9a70a7862a47c69046d","69f10c5d5c1b9b3130e33fee","0.5","desktop","0","0","0","","","","","","luck_game","","null","<div id=""score-counter"">TOTAL SCORE: &pound;0.20</div><div class=""experiment-container""><div class=""center-zone""><div class=""cross""></div>
                <div style=""position: absolute; z-index: 10; display: flex; flex-direction: column; align-items: center; justify-content: center;"">
                    <div class=""win-text"" style=""font-size: 48px; font-weight: bold; margin-bottom: 20px; text-shadow: 2px 2px 4px #000;"">WIN</div>
                    <img src=""images/coin_reward.png"" class=""reward-img"" style=""background-color: black; border-radius: 50%;"">
                    <div class=""win-text"" style=""font-size: 48px; font-weight: bold; margin-top: 20px; text-shadow: 2px 2px 4px #000;"">+0.05&pound;</div>
                </div></div></div>","null","","","","","","","","","","","","","","","","","","","","","","","","","","","","","","","",""
"html-keyboard-response","43","671721","0.0-5.0-53.0","6980d9a70a7862a47c69046d","69f10c5d5c1b9b3130e33fee","0.5","desktop","0","0","0","","","","","","luck_game","","1049","<div id=""score-counter"">TOTAL SCORE: &pound;0.20</div><div class=""experiment-container""><div class=""center-zone""><div class=""cross""></div><div class=""triangle-grid""><div class=""machine top-center blue""></div><div class=""machine bottom-left green-outline""></div><div class=""machine bottom-right red""></div></div></div></div>","arrowright","","","","gambling_choice","1","5","arrowright","bottom-right","red","arrowup","top-center","blue","arrowleft","bottom-left","green","arrowright","bottom-right","red","1","0","0.15","0.2","-0.05","0.05","true","false","","","","","",""
"html-keyboard-response","44","671824","0.0-5.0-54.0-0.0","6980d9a70a7862a47c69046d","69f10c5d5c1b9b3130e33fee","0.5","desktop","0","0","0","","","","","","luck_game","","null","<div id=""score-counter"">TOTAL SCORE: &pound;0.20</div><div class=""experiment-container""><div class=""center-zone""><div class=""cross""></div><div class=""triangle-grid""><div class=""machine top-center blue""></div><div class=""machine bottom-left green-outline""></div><div class=""machine bottom-right red""></div></div></div></div>","null","","","","","","","","","","","","","","","","","","","","","","","","","","","","","","","",""
"html-keyboard-response","45","672337","0.0-5.0-55.0-0.0","6980d9a70a7862a47c69046d","69f10c5d5c1b9b3130e33fee","0.5","desktop","0","0","0","","","","","","luck_game","","null","<div id=""score-counter"">TOTAL SCORE: &pound;0.20</div><div class=""experiment-container""><div class=""center-zone""><div class=""cross""></div></div></div>","null","","","","","","","","","","","","","","","","","","","","","","","","","","","","","","","",""
"html-keyboard-response","46","673348","0.0-5.0-56.0-0.0","6980d9a70a7862a47c69046d","69f10c5d5c1b9b3130e33fee","0.5","desktop","0","0","0","","","","","","luck_game","","null","<div id=""score-counter"">TOTAL SCORE: &pound;0.15</div><div class=""experiment-container""><div class=""center-zone""><div class=""cross""></div>
                <div style=""position: absolute; z-index: 10; display: flex; flex-direction: column; align-items: center; justify-content: center;"">
                    <div class=""lose-text"" style=""font-size: 48px; font-weight: bold; margin-bottom: 20px; text-shadow: 2px 2px 4px #000;"">LOSE</div>
                    <img src=""images/coin_no_reward.png"" class=""reward-img"" style=""background-color: black; border-radius: 50%;"">
                    <div class=""lose-text"" style=""font-size: 48px; font-weight: bold; margin-top: 20px; text-shadow: 2px 2px 4px #000;"">-0.05&pound;</div>
                </div></div></div>","null","","","","","","","","","","","","","","","","","","","","","","","","","","","","","","","",""
"html-keyboard-response","47","673828","0.0-5.0-59.0","6980d9a70a7862a47c69046d","69f10c5d5c1b9b3130e33fee","0.5","desktop","0","0","0","","","","","","luck_game","","478","<div id=""score-counter"">TOTAL SCORE: &pound;0.15</div><div class=""experiment-container""><div class=""center-zone""><div class=""cross""></div><div class=""triangle-grid""><div class=""machine top-center blue""></div><div class=""machine bottom-left green-outline""></div><div class=""machine bottom-right red""></div></div></div></div>","arrowup","","","","gambling_choice","1","6","arrowup","top-center","blue","arrowright","bottom-right","red","arrowleft","bottom-left","green","arrowleft","bottom-left","green","0","0","0.1","0.15","-0.05","-0.05","true","false","","","","","",""
"html-keyboard-response","48","673940","0.0-5.0-60.0-0.0","6980d9a70a7862a47c69046d","69f10c5d5c1b9b3130e33fee","0.5","desktop","0","0","0","","","","","","luck_game","","null","<div id=""score-counter"">TOTAL SCORE: &pound;0.15</div><div class=""experiment-container""><div class=""center-zone""><div class=""cross""></div><div class=""triangle-grid""><div class=""machine top-center blue""></div><div class=""machine bottom-left green-outline""></div><div class=""machine bottom-right red""></div></div></div></div>","null","","","","","","","","","","","","","","","","","","","","","","","","","","","","","","","",""
"html-keyboard-response","49","674454","0.0-5.0-61.0-0.0","6980d9a70a7862a47c69046d","69f10c5d5c1b9b3130e33fee","0.5","desktop","0","0","0","","","","","","luck_game","","null","<div id=""score-counter"">TOTAL SCORE: &pound;0.15</div><div class=""experiment-container""><div class=""center-zone""><div class=""cross""></div></div></div>","null","","","","","","","","","","","","","","","","","","","","","","","","","","","","","","","",""
"html-keyboard-response","50","675466","0.0-5.0-62.0-0.0","6980d9a70a7862a47c69046d","69f10c5d5c1b9b3130e33fee","0.5","desktop","0","0","0","","","","","","luck_game","","null","<div id=""score-counter"">TOTAL SCORE: &pound;0.10</div><div class=""experiment-container""><div class=""center-zone""><div class=""cross""></div>
                <div style=""position: absolute; z-index: 10; display: flex; flex-direction: column; align-items: center; justify-content: center;"">
                    <div class=""lose-text"" style=""font-size: 48px; font-weight: bold; margin-bottom: 20px; text-shadow: 2px 2px 4px #000;"">LOSE</div>
                    <img src=""images/coin_no_reward.png"" class=""reward-img"" style=""background-color: black; border-radius: 50%;"">
                    <div class=""lose-text"" style=""font-size: 48px; font-weight: bold; margin-top: 20px; text-shadow: 2px 2px 4px #000;"">-0.05&pound;</div>
                </div></div></div>","null","","","","","","","","","","","","","","","","","","","","","","","","","","","","","","","",""
"html-keyboard-response","51","676189","0.0-5.0-65.0","6980d9a70a7862a47c69046d","69f10c5d5c1b9b3130e33fee","0.5","desktop","0","0","0","","","","","","luck_game","","721","<div id=""score-counter"">TOTAL SCORE: &pound;0.10</div><div class=""experiment-container""><div class=""center-zone""><div class=""cross""></div><div class=""triangle-grid""><div class=""machine top-center blue-outline""></div><div class=""machine bottom-left green""></div><div class=""machine bottom-right red""></div></div></div></div>","arrowright","","","","gambling_choice","1","7","arrowright","bottom-right","red","arrowup","top-center","blue","arrowup","top-center","blue","arrowleft","bottom-left","green","0","0","0.05","0.1","-0.05","-0.05","true","false","","","","","",""
"html-keyboard-response","52","676306","0.0-5.0-66.0-0.0","6980d9a70a7862a47c69046d","69f10c5d5c1b9b3130e33fee","0.5","desktop","0","0","0","","","","","","luck_game","","null","<div id=""score-counter"">TOTAL SCORE: &pound;0.10</div><div class=""experiment-container""><div class=""center-zone""><div class=""cross""></div><div class=""triangle-grid""><div class=""machine top-center blue-outline""></div><div class=""machine bottom-left green""></div><div class=""machine bottom-right red""></div></div></div></div>","null","","","","","","","","","","","","","","","","","","","","","","","","","","","","","","","",""
"html-keyboard-response","53","676816","0.0-5.0-67.0-0.0","6980d9a70a7862a47c69046d","69f10c5d5c1b9b3130e33fee","0.5","desktop","0","0","0","","","","","","luck_game","","null","<div id=""score-counter"">TOTAL SCORE: &pound;0.10</div><div class=""experiment-container""><div class=""center-zone""><div class=""cross""></div></div></div>","null","","","","","","","","","","","","","","","","","","","","","","","","","","","","","","","",""
"html-keyboard-response","54","677825","0.0-5.0-68.0-0.0","6980d9a70a7862a47c69046d","69f10c5d5c1b9b3130e33fee","0.5","desktop","0","0","0","","","","","","luck_game","","null","<div id=""score-counter"">TOTAL SCORE: &pound;0.05</div><div class=""experiment-container""><div class=""center-zone""><div class=""cross""></div>
                <div style=""position: absolute; z-index: 10; display: flex; flex-direction: column; align-items: center; justify-content: center;"">
                    <div class=""lose-text"" style=""font-size: 48px; font-weight: bold; margin-bottom: 20px; text-shadow: 2px 2px 4px #000;"">LOSE</div>
                    <img src=""images/coin_no_reward.png"" class=""reward-img"" style=""background-color: black; border-radius: 50%;"">
                    <div class=""lose-text"" style=""font-size: 48px; font-weight: bold; margin-top: 20px; text-shadow: 2px 2px 4px #000;"">-0.05&pound;</div>
                </div></div></div>","null","","","","","","","","","","","","","","","","","","","","","","","","","","","","","","","",""
"html-keyboard-response","55","678222","0.0-5.0-71.0","6980d9a70a7862a47c69046d","69f10c5d5c1b9b3130e33fee","0.5","desktop","0","0","0","","","","","","luck_game","","395","<div id=""score-counter"">TOTAL SCORE: &pound;0.05</div><div class=""experiment-container""><div class=""center-zone""><div class=""cross""></div><div class=""triangle-grid""><div class=""machine top-center blue""></div><div class=""machine bottom-left green""></div><div class=""machine bottom-right red-outline""></div></div></div></div>","arrowleft","","","","gambling_choice","1","8","arrowleft","bottom-left","green","arrowright","bottom-right","red","arrowright","bottom-right","red","arrowup","top-center","blue","0","0","0","0.05","-0.05","-0.05","true","false","","","","","",""
"html-keyboard-response","56","678339","0.0-5.0-72.0-0.0","6980d9a70a7862a47c69046d","69f10c5d5c1b9b3130e33fee","0.5","desktop","0","0","0","","","","","","luck_game","","null","<div id=""score-counter"">TOTAL SCORE: &pound;0.05</div><div class=""experiment-container""><div class=""center-zone""><div class=""cross""></div><div class=""triangle-grid""><div class=""machine top-center blue""></div><div class=""machine bottom-left green""></div><div class=""machine bottom-right red-outline""></div></div></div></div>","null","","","","","","","","","","","","","","","","","","","","","","","","","","","","","","","",""
"html-keyboard-response","57","678849","0.0-5.0-73.0-0.0","6980d9a70a7862a47c69046d","69f10c5d5c1b9b3130e33fee","0.5","desktop","0","0","0","","","","","","luck_game","","null","<div id=""score-counter"">TOTAL SCORE: &pound;0.05</div><div class=""experiment-container""><div class=""center-zone""><div class=""cross""></div></div></div>","null","","","","","","","","","","","","","","","","","","","","","","","","","","","","","","","",""
"html-keyboard-response","58","679861","0.0-5.0-74.0-0.0","6980d9a70a7862a47c69046d","69f10c5d5c1b9b3130e33fee","0.5","desktop","0","0","0","","","","","","luck_game","","null","<div id=""score-counter"">TOTAL SCORE: &pound;0.00</div><div class=""experiment-container""><div class=""center-zone""><div class=""cross""></div>
                <div style=""position: absolute; z-index: 10; display: flex; flex-direction: column; align-items: center; justify-content: center;"">
                    <div class=""lose-text"" style=""font-size: 48px; font-weight: bold; margin-bottom: 20px; text-shadow: 2px 2px 4px #000;"">LOSE</div>
                    <img src=""images/coin_no_reward.png"" class=""reward-img"" style=""background-color: black; border-radius: 50%;"">
                    <div class=""lose-text"" style=""font-size: 48px; font-weight: bold; margin-top: 20px; text-shadow: 2px 2px 4px #000;"">-0.05&pound;</div>
                </div></div></div>","null","","","","","","","","","","","","","","","","","","","","","","","","","","","","","","","",""
"html-keyboard-response","59","680339","0.0-5.0-77.0","6980d9a70a7862a47c69046d","69f10c5d5c1b9b3130e33fee","0.5","desktop","0","0","0","","","","","","luck_game","","476","<div id=""score-counter"">TOTAL SCORE: &pound;0.00</div><div class=""experiment-container""><div class=""center-zone""><div class=""cross""></div><div class=""triangle-grid""><div class=""machine top-center blue""></div><div class=""machine bottom-left green""></div><div class=""machine bottom-right red-outline""></div></div></div></div>","arrowup","","","","gambling_choice","1","9","arrowup","top-center","blue","arrowleft","bottom-left","green","arrowright","bottom-right","red","arrowright","bottom-right","red","0","1","0.05","0","0.05","-0.05","true","false","","","","","",""
"html-keyboard-response","60","680453","0.0-5.0-78.0-0.0","6980d9a70a7862a47c69046d","69f10c5d5c1b9b3130e33fee","0.5","desktop","0","0","0","","","","","","luck_game","","null","<div id=""score-counter"">TOTAL SCORE: &pound;0.00</div><div class=""experiment-container""><div class=""center-zone""><div class=""cross""></div><div class=""triangle-grid""><div class=""machine top-center blue""></div><div class=""machine bottom-left green""></div><div class=""machine bottom-right red-outline""></div></div></div></div>","null","","","","","","","","","","","","","","","","","","","","","","","","","","","","","","","",""
"html-keyboard-response","61","680965","0.0-5.0-79.0-0.0","6980d9a70a7862a47c69046d","69f10c5d5c1b9b3130e33fee","0.5","desktop","0","0","0","","","","","","luck_game","","null","<div id=""score-counter"">TOTAL SCORE: &pound;0.00</div><div class=""experiment-container""><div class=""center-zone""><div class=""cross""></div></div></div>","null","","","","","","","","","","","","","","","","","","","","","","","","","","","","","","","",""
"html-keyboard-response","62","681976","0.0-5.0-80.0-0.0","6980d9a70a7862a47c69046d","69f10c5d5c1b9b3130e33fee","0.5","desktop","0","0","0","","","","","","luck_game","","null","<div id=""score-counter"">TOTAL SCORE: &pound;0.05</div><div class=""experiment-container""><div class=""center-zone""><div class=""cross""></div>
                <div style=""position: absolute; z-index: 10; display: flex; flex-direction: column; align-items: center; justify-content: center;"">
                    <div class=""win-text"" style=""font-size: 48px; font-weight: bold; margin-bottom: 20px; text-shadow: 2px 2px 4px #000;"">WIN</div>
                    <img src=""images/coin_reward.png"" class=""reward-img"" style=""background-color: black; border-radius: 50%;"">
                    <div class=""win-text"" style=""font-size: 48px; font-weight: bold; margin-top: 20px; text-shadow: 2px 2px 4px #000;"">+0.05&pound;</div>
                </div></div></div>","null","","","","","","","","","","","","","","","","","","","","","","","","","","","","","","","",""
"html-keyboard-response","63","682494","0.0-5.0-83.0","6980d9a70a7862a47c69046d","69f10c5d5c1b9b3130e33fee","0.5","desktop","0","0","0","","","","","","luck_game","","516","<div id=""score-counter"">TOTAL SCORE: &pound;0.05</div><div class=""experiment-container""><div class=""center-zone""><div class=""cross""></div><div class=""triangle-grid""><div class=""machine top-center blue""></div><div class=""machine bottom-left green""></div><div class=""machine bottom-right red-outline""></div></div></div></div>","arrowup","","","","gambling_choice","1","10","arrowup","top-center","blue","arrowup","top-center","blue","arrowright","bottom-right","red","arrowright","bottom-right","red","1","1","0.1","0.05","0.05","0.05","true","false","","","","","",""
"html-keyboard-response","64","682598","0.0-5.0-84.0-0.0","6980d9a70a7862a47c69046d","69f10c5d5c1b9b3130e33fee","0.5","desktop","0","0","0","","","","","","luck_game","","null","<div id=""score-counter"">TOTAL SCORE: &pound;0.05</div><div class=""experiment-container""><div class=""center-zone""><div class=""cross""></div><div class=""triangle-grid""><div class=""machine top-center blue""></div><div class=""machine bottom-left green""></div><div class=""machine bottom-right red-outline""></div></div></div></div>","null","","","","","","","","","","","","","","","","","","","","","","","","","","","","","","","",""
"html-keyboard-response","65","683111","0.0-5.0-85.0-0.0","6980d9a70a7862a47c69046d","69f10c5d5c1b9b3130e33fee","0.5","desktop","0","0","0","","","","","","luck_game","","null","<div id=""score-counter"">TOTAL SCORE: &pound;0.05</div><div class=""experiment-container""><div class=""center-zone""><div class=""cross""></div></div></div>","null","","","","","","","","","","","","","","","","","","","","","","","","","","","","","","","",""
"html-keyboard-response","66","684125","0.0-5.0-86.0-0.0","6980d9a70a7862a47c69046d","69f10c5d5c1b9b3130e33fee","0.5","desktop","0","0","0","","","","","","luck_game","","null","<div id=""score-counter"">TOTAL SCORE: &pound;0.10</div><div class=""experiment-container""><div class=""center-zone""><div class=""cross""></div>
                <div style=""position: absolute; z-index: 10; display: flex; flex-direction: column; align-items: center; justify-content: center;"">
                    <div class=""win-text"" style=""font-size: 48px; font-weight: bold; margin-bottom: 20px; text-shadow: 2px 2px 4px #000;"">WIN</div>
                    <img src=""images/coin_reward.png"" class=""reward-img"" style=""background-color: black; border-radius: 50%;"">
                    <div class=""win-text"" style=""font-size: 48px; font-weight: bold; margin-top: 20px; text-shadow: 2px 2px 4px #000;"">+0.05&pound;</div>
                </div></div></div>","null","","","","","","","","","","","","","","","","","","","","","","","","","","","","","","","",""
"html-keyboard-response","67","684527","0.0-5.0-89.0","6980d9a70a7862a47c69046d","69f10c5d5c1b9b3130e33fee","0.5","desktop","0","0","0","","","","","","luck_game","","401","<div id=""score-counter"">TOTAL SCORE: &pound;0.10</div><div class=""experiment-container""><div class=""center-zone""><div class=""cross""></div><div class=""triangle-grid""><div class=""machine top-center blue""></div><div class=""machine bottom-left green""></div><div class=""machine bottom-right red-outline""></div></div></div></div>","arrowup","","","","gambling_choice","1","11","arrowup","top-center","blue","arrowup","top-center","blue","arrowright","bottom-right","red","arrowright","bottom-right","red","1","1","0.15","0.1","0.05","0.05","true","false","","","","","",""
"html-keyboard-response","68","684637","0.0-5.0-90.0-0.0","6980d9a70a7862a47c69046d","69f10c5d5c1b9b3130e33fee","0.5","desktop","0","0","0","","","","","","luck_game","","null","<div id=""score-counter"">TOTAL SCORE: &pound;0.10</div><div class=""experiment-container""><div class=""center-zone""><div class=""cross""></div><div class=""triangle-grid""><div class=""machine top-center blue""></div><div class=""machine bottom-left green""></div><div class=""machine bottom-right red-outline""></div></div></div></div>","null","","","","","","","","","","","","","","","","","","","","","","","","","","","","","","","",""
"html-keyboard-response","69","685152","0.0-5.0-91.0-0.0","6980d9a70a7862a47c69046d","69f10c5d5c1b9b3130e33fee","0.5","desktop","0","0","0","","","","","","luck_game","","null","<div id=""score-counter"">TOTAL SCORE: &pound;0.10</div><div class=""experiment-container""><div class=""center-zone""><div class=""cross""></div></div></div>","null","","","","","","","","","","","","","","","","","","","","","","","","","","","","","","","",""
"html-keyboard-response","70","686164","0.0-5.0-92.0-0.0","6980d9a70a7862a47c69046d","69f10c5d5c1b9b3130e33fee","0.5","desktop","0","0","0","","","","","","luck_game","","null","<div id=""score-counter"">TOTAL SCORE: &pound;0.15</div><div class=""experiment-container""><div class=""center-zone""><div class=""cross""></div>
                <div style=""position: absolute; z-index: 10; display: flex; flex-direction: column; align-items: center; justify-content: center;"">
                    <div class=""win-text"" style=""font-size: 48px; font-weight: bold; margin-bottom: 20px; text-shadow: 2px 2px 4px #000;"">WIN</div>
                    <img src=""images/coin_reward.png"" class=""reward-img"" style=""background-color: black; border-radius: 50%;"">
                    <div class=""win-text"" style=""font-size: 48px; font-weight: bold; margin-top: 20px; text-shadow: 2px 2px 4px #000;"">+0.05&pound;</div>
                </div></div></div>","null","","","","","","","","","","","","","","","","","","","","","","","","","","","","","","","",""
"html-keyboard-response","71","688144","0.0-5.0-95.0","6980d9a70a7862a47c69046d","69f10c5d5c1b9b3130e33fee","0.5","desktop","0","0","0","","","","","","luck_game","","1979","<div id=""score-counter"">TOTAL SCORE: &pound;0.15</div><div class=""experiment-container""><div class=""center-zone""><div class=""cross""></div><div class=""triangle-grid""><div class=""machine top-center blue-outline""></div><div class=""machine bottom-left green""></div><div class=""machine bottom-right red""></div></div></div></div>","arrowleft","","","","gambling_choice","1","12","arrowleft","bottom-left","green","arrowup","top-center","blue","arrowup","top-center","blue","arrowright","bottom-right","red","1","0","0.1","0.15","-0.05","0.05","true","false","","","","","",""
"html-keyboard-response","72","688247","0.0-5.0-96.0-0.0","6980d9a70a7862a47c69046d","69f10c5d5c1b9b3130e33fee","0.5","desktop","0","0","0","","","","","","luck_game","","null","<div id=""score-counter"">TOTAL SCORE: &pound;0.15</div><div class=""experiment-container""><div class=""center-zone""><div class=""cross""></div><div class=""triangle-grid""><div class=""machine top-center blue-outline""></div><div class=""machine bottom-left green""></div><div class=""machine bottom-right red""></div></div></div></div>","null","","","","","","","","","","","","","","","","","","","","","","","","","","","","","","","",""
"html-keyboard-response","73","688762","0.0-5.0-97.0-0.0","6980d9a70a7862a47c69046d","69f10c5d5c1b9b3130e33fee","0.5","desktop","0","0","0","","","","","","luck_game","","null","<div id=""score-counter"">TOTAL SCORE: &pound;0.15</div><div class=""experiment-container""><div class=""center-zone""><div class=""cross""></div></div></div>","null","","","","","","","","","","","","","","","","","","","","","","","","","","","","","","","",""
"html-keyboard-response","74","689775","0.0-5.0-98.0-0.0","6980d9a70a7862a47c69046d","69f10c5d5c1b9b3130e33fee","0.5","desktop","0","0","0","","","","","","luck_game","","null","<div id=""score-counter"">TOTAL SCORE: &pound;0.10</div><div class=""experiment-container""><div class=""center-zone""><div class=""cross""></div>
                <div style=""position: absolute; z-index: 10; display: flex; flex-direction: column; align-items: center; justify-content: center;"">
                    <div class=""lose-text"" style=""font-size: 48px; font-weight: bold; margin-bottom: 20px; text-shadow: 2px 2px 4px #000;"">LOSE</div>
                    <img src=""images/coin_no_reward.png"" class=""reward-img"" style=""background-color: black; border-radius: 50%;"">
                    <div class=""lose-text"" style=""font-size: 48px; font-weight: bold; margin-top: 20px; text-shadow: 2px 2px 4px #000;"">-0.05&pound;</div>
                </div></div></div>","null","","","","","","","","","","","","","","","","","","","","","","","","","","","","","","","",""
"html-keyboard-response","75","690578","0.0-5.0-101.0","6980d9a70a7862a47c69046d","69f10c5d5c1b9b3130e33fee","0.5","desktop","0","0","0","","","","","","luck_game","","801","<div id=""score-counter"">TOTAL SCORE: &pound;0.10</div><div class=""experiment-container""><div class=""center-zone""><div class=""cross""></div><div class=""triangle-grid""><div class=""machine top-center blue""></div><div class=""machine bottom-left green""></div><div class=""machine bottom-right red-outline""></div></div></div></div>","arrowup","","","","gambling_choice","1","13","arrowup","top-center","blue","arrowleft","bottom-left","green","arrowright","bottom-right","red","arrowup","top-center","blue","0","1","0.15","0.1","0.05","-0.05","true","false","","","","","",""
"html-keyboard-response","76","690694","0.0-5.0-102.0-0.0","6980d9a70a7862a47c69046d","69f10c5d5c1b9b3130e33fee","0.5","desktop","0","0","0","","","","","","luck_game","","null","<div id=""score-counter"">TOTAL SCORE: &pound;0.10</div><div class=""experiment-container""><div class=""center-zone""><div class=""cross""></div><div class=""triangle-grid""><div class=""machine top-center blue""></div><div class=""machine bottom-left green""></div><div class=""machine bottom-right red-outline""></div></div></div></div>","null","","","","","","","","","","","","","","","","","","","","","","","","","","","","","","","",""
"html-keyboard-response","77","691207","0.0-5.0-103.0-0.0","6980d9a70a7862a47c69046d","69f10c5d5c1b9b3130e33fee","0.5","desktop","0","0","0","","","","","","luck_game","","null","<div id=""score-counter"">TOTAL SCORE: &pound;0.10</div><div class=""experiment-container""><div class=""center-zone""><div class=""cross""></div></div></div>","null","","","","","","","","","","","","","","","","","","","","","","","","","","","","","","","",""
"html-keyboard-response","78","692221","0.0-5.0-104.0-0.0","6980d9a70a7862a47c69046d","69f10c5d5c1b9b3130e33fee","0.5","desktop","0","0","0","","","","","","luck_game","","null","<div id=""score-counter"">TOTAL SCORE: &pound;0.15</div><div class=""experiment-container""><div class=""center-zone""><div class=""cross""></div>
                <div style=""position: absolute; z-index: 10; display: flex; flex-direction: column; align-items: center; justify-content: center;"">
                    <div class=""win-text"" style=""font-size: 48px; font-weight: bold; margin-bottom: 20px; text-shadow: 2px 2px 4px #000;"">WIN</div>
                    <img src=""images/coin_reward.png"" class=""reward-img"" style=""background-color: black; border-radius: 50%;"">
                    <div class=""win-text"" style=""font-size: 48px; font-weight: bold; margin-top: 20px; text-shadow: 2px 2px 4px #000;"">+0.05&pound;</div>
                </div></div></div>","null","","","","","","","","","","","","","","","","","","","","","","","","","","","","","","","",""
"html-keyboard-response","79","692764","0.0-5.0-107.0","6980d9a70a7862a47c69046d","69f10c5d5c1b9b3130e33fee","0.5","desktop","0","0","0","","","","","","luck_game","","542","<div id=""score-counter"">TOTAL SCORE: &pound;0.15</div><div class=""experiment-container""><div class=""center-zone""><div class=""cross""></div><div class=""triangle-grid""><div class=""machine top-center blue""></div><div class=""machine bottom-left green""></div><div class=""machine bottom-right red-outline""></div></div></div></div>","arrowup","","","","gambling_choice","1","14","arrowup","top-center","blue","arrowup","top-center","blue","arrowright","bottom-right","red","arrowright","bottom-right","red","1","0","0.1","0.15","-0.05","0.05","true","false","","","","","",""
"html-keyboard-response","80","692873","0.0-5.0-108.0-0.0","6980d9a70a7862a47c69046d","69f10c5d5c1b9b3130e33fee","0.5","desktop","0","0","0","","","","","","luck_game","","null","<div id=""score-counter"">TOTAL SCORE: &pound;0.15</div><div class=""experiment-container""><div class=""center-zone""><div class=""cross""></div><div class=""triangle-grid""><div class=""machine top-center blue""></div><div class=""machine bottom-left green""></div><div class=""machine bottom-right red-outline""></div></div></div></div>","null","","","","","","","","","","","","","","","","","","","","","","","","","","","","","","","",""
"html-keyboard-response","81","693382","0.0-5.0-109.0-0.0","6980d9a70a7862a47c69046d","69f10c5d5c1b9b3130e33fee","0.5","desktop","0","0","0","","","","","","luck_game","","null","<div id=""score-counter"">TOTAL SCORE: &pound;0.15</div><div class=""experiment-container""><div class=""center-zone""><div class=""cross""></div></div></div>","null","","","","","","","","","","","","","","","","","","","","","","","","","","","","","","","",""
"html-keyboard-response","82","694395","0.0-5.0-110.0-0.0","6980d9a70a7862a47c69046d","69f10c5d5c1b9b3130e33fee","0.5","desktop","0","0","0","","","","","","luck_game","","null","<div id=""score-counter"">TOTAL SCORE: &pound;0.10</div><div class=""experiment-container""><div class=""center-zone""><div class=""cross""></div>
                <div style=""position: absolute; z-index: 10; display: flex; flex-direction: column; align-items: center; justify-content: center;"">
                    <div class=""lose-text"" style=""font-size: 48px; font-weight: bold; margin-bottom: 20px; text-shadow: 2px 2px 4px #000;"">LOSE</div>
                    <img src=""images/coin_no_reward.png"" class=""reward-img"" style=""background-color: black; border-radius: 50%;"">
                    <div class=""lose-text"" style=""font-size: 48px; font-weight: bold; margin-top: 20px; text-shadow: 2px 2px 4px #000;"">-0.05&pound;</div>
                </div></div></div>","null","","","","","","","","","","","","","","","","","","","","","","","","","","","","","","","",""
"html-keyboard-response","83","694952","0.0-5.0-113.0","6980d9a70a7862a47c69046d","69f10c5d5c1b9b3130e33fee","0.5","desktop","0","0","0","","","","","","luck_game","","555","<div id=""score-counter"">TOTAL SCORE: &pound;0.10</div><div class=""experiment-container""><div class=""center-zone""><div class=""cross""></div><div class=""triangle-grid""><div class=""machine top-center blue""></div><div class=""machine bottom-left green""></div><div class=""machine bottom-right red-outline""></div></div></div></div>","arrowleft","","","","gambling_choice","1","15","arrowleft","bottom-left","green","arrowup","top-center","blue","arrowright","bottom-right","red","arrowright","bottom-right","red","0","1","0.15","0.1","0.05","-0.05","true","false","","","","","",""
"html-keyboard-response","84","695065","0.0-5.0-114.0-0.0","6980d9a70a7862a47c69046d","69f10c5d5c1b9b3130e33fee","0.5","desktop","0","0","0","","","","","","luck_game","","null","<div id=""score-counter"">TOTAL SCORE: &pound;0.10</div><div class=""experiment-container""><div class=""center-zone""><div class=""cross""></div><div class=""triangle-grid""><div class=""machine top-center blue""></div><div class=""machine bottom-left green""></div><div class=""machine bottom-right red-outline""></div></div></div></div>","null","","","","","","","","","","","","","","","","","","","","","","","","","","","","","","","",""
"html-keyboard-response","85","695577","0.0-5.0-115.0-0.0","6980d9a70a7862a47c69046d","69f10c5d5c1b9b3130e33fee","0.5","desktop","0","0","0","","","","","","luck_game","","null","<div id=""score-counter"">TOTAL SCORE: &pound;0.10</div><div class=""experiment-container""><div class=""center-zone""><div class=""cross""></div></div></div>","null","","","","","","","","","","","","","","","","","","","","","","","","","","","","","","","",""
"html-keyboard-response","86","696591","0.0-5.0-116.0-0.0","6980d9a70a7862a47c69046d","69f10c5d5c1b9b3130e33fee","0.5","desktop","0","0","0","","","","","","luck_game","","null","<div id=""score-counter"">TOTAL SCORE: &pound;0.15</div><div class=""experiment-container""><div class=""center-zone""><div class=""cross""></div>
                <div style=""position: absolute; z-index: 10; display: flex; flex-direction: column; align-items: center; justify-content: center;"">
                    <div class=""win-text"" style=""font-size: 48px; font-weight: bold; margin-bottom: 20px; text-shadow: 2px 2px 4px #000;"">WIN</div>
                    <img src=""images/coin_reward.png"" class=""reward-img"" style=""background-color: black; border-radius: 50%;"">
                    <div class=""win-text"" style=""font-size: 48px; font-weight: bold; margin-top: 20px; text-shadow: 2px 2px 4px #000;"">+0.05&pound;</div>
                </div></div></div>","null","","","","","","","","","","","","","","","","","","","","","","","","","","","","","","","",""
"html-keyboard-response","87","697405","0.0-5.0-119.0","6980d9a70a7862a47c69046d","69f10c5d5c1b9b3130e33fee","0.5","desktop","0","0","0","","","","","","luck_game","","813","<div id=""score-counter"">TOTAL SCORE: &pound;0.15</div><div class=""experiment-container""><div class=""center-zone""><div class=""cross""></div><div class=""triangle-grid""><div class=""machine top-center blue""></div><div class=""machine bottom-left green-outline""></div><div class=""machine bottom-right red""></div></div></div></div>","arrowright","","","","gambling_choice","1","16","arrowright","bottom-right","red","arrowleft","bottom-left","green","arrowleft","bottom-left","green","arrowright","bottom-right","red","1","1","0.2","0.15","0.05","0.05","true","false","","","","","",""
"html-keyboard-response","88","697512","0.0-5.0-120.0-0.0","6980d9a70a7862a47c69046d","69f10c5d5c1b9b3130e33fee","0.5","desktop","0","0","0","","","","","","luck_game","","null","<div id=""score-counter"">TOTAL SCORE: &pound;0.15</div><div class=""experiment-container""><div class=""center-zone""><div class=""cross""></div><div class=""triangle-grid""><div class=""machine top-center blue""></div><div class=""machine bottom-left green-outline""></div><div class=""machine bottom-right red""></div></div></div></div>","null","","","","","","","","","","","","","","","","","","","","","","","","","","","","","","","",""
"html-keyboard-response","89","698026","0.0-5.0-121.0-0.0","6980d9a70a7862a47c69046d","69f10c5d5c1b9b3130e33fee","0.5","desktop","0","0","0","","","","","","luck_game","","null","<div id=""score-counter"">TOTAL SCORE: &pound;0.15</div><div class=""experiment-container""><div class=""center-zone""><div class=""cross""></div></div></div>","null","","","","","","","","","","","","","","","","","","","","","","","","","","","","","","","",""
"html-keyboard-response","90","699038","0.0-5.0-122.0-0.0","6980d9a70a7862a47c69046d","69f10c5d5c1b9b3130e33fee","0.5","desktop","0","0","0","","","","","","luck_game","","null","<div id=""score-counter"">TOTAL SCORE: &pound;0.20</div><div class=""experiment-container""><div class=""center-zone""><div class=""cross""></div>
                <div style=""position: absolute; z-index: 10; display: flex; flex-direction: column; align-items: center; justify-content: center;"">
                    <div class=""win-text"" style=""font-size: 48px; font-weight: bold; margin-bottom: 20px; text-shadow: 2px 2px 4px #000;"">WIN</div>
                    <img src=""images/coin_reward.png"" class=""reward-img"" style=""background-color: black; border-radius: 50%;"">
                    <div class=""win-text"" style=""font-size: 48px; font-weight: bold; margin-top: 20px; text-shadow: 2px 2px 4px #000;"">+0.05&pound;</div>
                </div></div></div>","null","","","","","","","","","","","","","","","","","","","","","","","","","","","","","","","",""
"html-keyboard-response","91","699642","0.0-5.0-125.0","6980d9a70a7862a47c69046d","69f10c5d5c1b9b3130e33fee","0.5","desktop","0","0","0","","","","","","luck_game","","603","<div id=""score-counter"">TOTAL SCORE: &pound;0.20</div><div class=""experiment-container""><div class=""center-zone""><div class=""cross""></div><div class=""triangle-grid""><div class=""machine top-center blue""></div><div class=""machine bottom-left green""></div><div class=""machine bottom-right red-outline""></div></div></div></div>","arrowleft","","","","gambling_choice","1","17","arrowleft","bottom-left","green","arrowright","bottom-right","red","arrowright","bottom-right","red","arrowleft","bottom-left","green","1","1","0.25","0.2","0.05","0.05","true","false","","","","","",""
"html-keyboard-response","92","699754","0.0-5.0-126.0-0.0","6980d9a70a7862a47c69046d","69f10c5d5c1b9b3130e33fee","0.5","desktop","0","0","0","","","","","","luck_game","","null","<div id=""score-counter"">TOTAL SCORE: &pound;0.20</div><div class=""experiment-container""><div class=""center-zone""><div class=""cross""></div><div class=""triangle-grid""><div class=""machine top-center blue""></div><div class=""machine bottom-left green""></div><div class=""machine bottom-right red-outline""></div></div></div></div>","null","","","","","","","","","","","","","","","","","","","","","","","","","","","","","","","",""
"html-keyboard-response","93","700269","0.0-5.0-127.0-0.0","6980d9a70a7862a47c69046d","69f10c5d5c1b9b3130e33fee","0.5","desktop","0","0","0","","","","","","luck_game","","null","<div id=""score-counter"">TOTAL SCORE: &pound;0.20</div><div class=""experiment-container""><div class=""center-zone""><div class=""cross""></div></div></div>","null","","","","","","","","","","","","","","","","","","","","","","","","","","","","","","","",""
"html-keyboard-response","94","701279","0.0-5.0-128.0-0.0","6980d9a70a7862a47c69046d","69f10c5d5c1b9b3130e33fee","0.5","desktop","0","0","0","","","","","","luck_game","","null","<div id=""score-counter"">TOTAL SCORE: &pound;0.25</div><div class=""experiment-container""><div class=""center-zone""><div class=""cross""></div>
                <div style=""position: absolute; z-index: 10; display: flex; flex-direction: column; align-items: center; justify-content: center;"">
                    <div class=""win-text"" style=""font-size: 48px; font-weight: bold; margin-bottom: 20px; text-shadow: 2px 2px 4px #000;"">WIN</div>
                    <img src=""images/coin_reward.png"" class=""reward-img"" style=""background-color: black; border-radius: 50%;"">
                    <div class=""win-text"" style=""font-size: 48px; font-weight: bold; margin-top: 20px; text-shadow: 2px 2px 4px #000;"">+0.05&pound;</div>
                </div></div></div>","null","","","","","","","","","","","","","","","","","","","","","","","","","","","","","","","",""
"html-keyboard-response","95","701863","0.0-5.0-131.0","6980d9a70a7862a47c69046d","69f10c5d5c1b9b3130e33fee","0.5","desktop","0","0","0","","","","","","luck_game","","582","<div id=""score-counter"">TOTAL SCORE: &pound;0.25</div><div class=""experiment-container""><div class=""center-zone""><div class=""cross""></div><div class=""triangle-grid""><div class=""machine top-center blue""></div><div class=""machine bottom-left green-outline""></div><div class=""machine bottom-right red""></div></div></div></div>","arrowup","","","","gambling_choice","1","18","arrowup","top-center","blue","arrowleft","bottom-left","green","arrowleft","bottom-left","green","arrowright","bottom-right","red","1","1","0.3","0.25","0.05","0.05","true","false","","","","","",""
"html-keyboard-response","96","701977","0.0-5.0-132.0-0.0","6980d9a70a7862a47c69046d","69f10c5d5c1b9b3130e33fee","0.5","desktop","0","0","0","","","","","","luck_game","","null","<div id=""score-counter"">TOTAL SCORE: &pound;0.25</div><div class=""experiment-container""><div class=""center-zone""><div class=""cross""></div><div class=""triangle-grid""><div class=""machine top-center blue""></div><div class=""machine bottom-left green-outline""></div><div class=""machine bottom-right red""></div></div></div></div>","null","","","","","","","","","","","","","","","","","","","","","","","","","","","","","","","",""
"html-keyboard-response","97","702492","0.0-5.0-133.0-0.0","6980d9a70a7862a47c69046d","69f10c5d5c1b9b3130e33fee","0.5","desktop","0","0","0","","","","","","luck_game","","null","<div id=""score-counter"">TOTAL SCORE: &pound;0.25</div><div class=""experiment-container""><div class=""center-zone""><div class=""cross""></div></div></div>","null","","","","","","","","","","","","","","","","","","","","","","","","","","","","","","","",""
"html-keyboard-response","98","703500","0.0-5.0-134.0-0.0","6980d9a70a7862a47c69046d","69f10c5d5c1b9b3130e33fee","0.5","desktop","0","0","0","","","","","","luck_game","","null","<div id=""score-counter"">TOTAL SCORE: &pound;0.30</div><div class=""experiment-container""><div class=""center-zone""><div class=""cross""></div>
                <div style=""position: absolute; z-index: 10; display: flex; flex-direction: column; align-items: center; justify-content: center;"">
                    <div class=""win-text"" style=""font-size: 48px; font-weight: bold; margin-bottom: 20px; text-shadow: 2px 2px 4px #000;"">WIN</div>
                    <img src=""images/coin_reward.png"" class=""reward-img"" style=""background-color: black; border-radius: 50%;"">
                    <div class=""win-text"" style=""font-size: 48px; font-weight: bold; margin-top: 20px; text-shadow: 2px 2px 4px #000;"">+0.05&pound;</div>
                </div></div></div>","null","","","","","","","","","","","","","","","","","","","","","","","","","","","","","","","",""
"html-keyboard-response","99","704254","0.0-5.0-137.0","6980d9a70a7862a47c69046d","69f10c5d5c1b9b3130e33fee","0.5","desktop","0","0","0","","","","","","luck_game","","753","<div id=""score-counter"">TOTAL SCORE: &pound;0.30</div><div class=""experiment-container""><div class=""center-zone""><div class=""cross""></div><div class=""triangle-grid""><div class=""machine top-center blue-outline""></div><div class=""machine bottom-left green""></div><div class=""machine bottom-right red""></div></div></div></div>","arrowleft","","","","gambling_choice","1","19","arrowleft","bottom-left","green","arrowup","top-center","blue","arrowup","top-center","blue","arrowleft","bottom-left","green","1","1","0.35","0.3","0.05","0.05","true","false","","","","","",""
"html-keyboard-response","100","704367","0.0-5.0-138.0-0.0","6980d9a70a7862a47c69046d","69f10c5d5c1b9b3130e33fee","0.5","desktop","0","0","0","","","","","","luck_game","","null","<div id=""score-counter"">TOTAL SCORE: &pound;0.30</div><div class=""experiment-container""><div class=""center-zone""><div class=""cross""></div><div class=""triangle-grid""><div class=""machine top-center blue-outline""></div><div class=""machine bottom-left green""></div><div class=""machine bottom-right red""></div></div></div></div>","null","","","","","","","","","","","","","","","","","","","","","","","","","","","","","","","",""
"html-keyboard-response","101","704878","0.0-5.0-139.0-0.0","6980d9a70a7862a47c69046d","69f10c5d5c1b9b3130e33fee","0.5","desktop","0","0","0","","","","","","luck_game","","null","<div id=""score-counter"">TOTAL SCORE: &pound;0.30</div><div class=""experiment-container""><div class=""center-zone""><div class=""cross""></div></div></div>","null","","","","","","","","","","","","","","","","","","","","","","","","","","","","","","","",""
"html-keyboard-response","102","705888","0.0-5.0-140.0-0.0","6980d9a70a7862a47c69046d","69f10c5d5c1b9b3130e33fee","0.5","desktop","0","0","0","","","","","","luck_game","","null","<div id=""score-counter"">TOTAL SCORE: &pound;0.35</div><div class=""experiment-container""><div class=""center-zone""><div class=""cross""></div>
                <div style=""position: absolute; z-index: 10; display: flex; flex-direction: column; align-items: center; justify-content: center;"">
                    <div class=""win-text"" style=""font-size: 48px; font-weight: bold; margin-bottom: 20px; text-shadow: 2px 2px 4px #000;"">WIN</div>
                    <img src=""images/coin_reward.png"" class=""reward-img"" style=""background-color: black; border-radius: 50%;"">
                    <div class=""win-text"" style=""font-size: 48px; font-weight: bold; margin-top: 20px; text-shadow: 2px 2px 4px #000;"">+0.05&pound;</div>
                </div></div></div>","null","","","","","","","","","","","","","","","","","","","","","","","","","","","","","","","",""
"html-keyboard-response","103","706958","0.0-5.0-143.0","6980d9a70a7862a47c69046d","69f10c5d5c1b9b3130e33fee","0.5","desktop","0","0","0","","","","","","luck_game","","1069","<div id=""score-counter"">TOTAL SCORE: &pound;0.35</div><div class=""experiment-container""><div class=""center-zone""><div class=""cross""></div><div class=""triangle-grid""><div class=""machine top-center blue""></div><div class=""machine bottom-left green""></div><div class=""machine bottom-right red-outline""></div></div></div></div>","arrowleft","","","","gambling_choice","1","20","arrowleft","bottom-left","green","arrowleft","bottom-left","green","arrowright","bottom-right","red","arrowup","top-center","blue","1","0","0.3","0.35","-0.05","0.05","true","false","","","","","",""
"html-keyboard-response","104","707070","0.0-5.0-144.0-0.0","6980d9a70a7862a47c69046d","69f10c5d5c1b9b3130e33fee","0.5","desktop","0","0","0","","","","","","luck_game","","null","<div id=""score-counter"">TOTAL SCORE: &pound;0.35</div><div class=""experiment-container""><div class=""center-zone""><div class=""cross""></div><div class=""triangle-grid""><div class=""machine top-center blue""></div><div class=""machine bottom-left green""></div><div class=""machine bottom-right red-outline""></div></div></div></div>","null","","","","","","","","","","","","","","","","","","","","","","","","","","","","","","","",""
"html-keyboard-response","105","707581","0.0-5.0-145.0-0.0","6980d9a70a7862a47c69046d","69f10c5d5c1b9b3130e33fee","0.5","desktop","0","0","0","","","","","","luck_game","","null","<div id=""score-counter"">TOTAL SCORE: &pound;0.35</div><div class=""experiment-container""><div class=""center-zone""><div class=""cross""></div></div></div>","null","","","","","","","","","","","","","","","","","","","","","","","","","","","","","","","",""
"html-keyboard-response","106","708593","0.0-5.0-146.0-0.0","6980d9a70a7862a47c69046d","69f10c5d5c1b9b3130e33fee","0.5","desktop","0","0","0","","","","","","luck_game","","null","<div id=""score-counter"">TOTAL SCORE: &pound;0.30</div><div class=""experiment-container""><div class=""center-zone""><div class=""cross""></div>
                <div style=""position: absolute; z-index: 10; display: flex; flex-direction: column; align-items: center; justify-content: center;"">
                    <div class=""lose-text"" style=""font-size: 48px; font-weight: bold; margin-bottom: 20px; text-shadow: 2px 2px 4px #000;"">LOSE</div>
                    <img src=""images/coin_no_reward.png"" class=""reward-img"" style=""background-color: black; border-radius: 50%;"">
                    <div class=""lose-text"" style=""font-size: 48px; font-weight: bold; margin-top: 20px; text-shadow: 2px 2px 4px #000;"">-0.05&pound;</div>
                </div></div></div>","null","","","","","","","","","","","","","","","","","","","","","","","","","","","","","","","",""
"html-keyboard-response","107","709341","0.0-5.0-149.0","6980d9a70a7862a47c69046d","69f10c5d5c1b9b3130e33fee","0.5","desktop","0","0","0","","","","","","luck_game","","747","<div id=""score-counter"">TOTAL SCORE: &pound;0.30</div><div class=""experiment-container""><div class=""center-zone""><div class=""cross""></div><div class=""triangle-grid""><div class=""machine top-center blue-outline""></div><div class=""machine bottom-left green""></div><div class=""machine bottom-right red""></div></div></div></div>","arrowright","","","","gambling_choice","1","21","arrowright","bottom-right","red","arrowleft","bottom-left","green","arrowup","top-center","blue","arrowright","bottom-right","red","0","1","0.35","0.3","0.05","-0.05","true","false","","","","","",""
"html-keyboard-response","108","709450","0.0-5.0-150.0-0.0","6980d9a70a7862a47c69046d","69f10c5d5c1b9b3130e33fee","0.5","desktop","0","0","0","","","","","","luck_game","","null","<div id=""score-counter"">TOTAL SCORE: &pound;0.30</div><div class=""experiment-container""><div class=""center-zone""><div class=""cross""></div><div class=""triangle-grid""><div class=""machine top-center blue-outline""></div><div class=""machine bottom-left green""></div><div class=""machine bottom-right red""></div></div></div></div>","null","","","","","","","","","","","","","","","","","","","","","","","","","","","","","","","",""
"html-keyboard-response","109","709963","0.0-5.0-151.0-0.0","6980d9a70a7862a47c69046d","69f10c5d5c1b9b3130e33fee","0.5","desktop","0","0","0","","","","","","luck_game","","null","<div id=""score-counter"">TOTAL SCORE: &pound;0.30</div><div class=""experiment-container""><div class=""center-zone""><div class=""cross""></div></div></div>","null","","","","","","","","","","","","","","","","","","","","","","","","","","","","","","","",""
"html-keyboard-response","110","710971","0.0-5.0-152.0-0.0","6980d9a70a7862a47c69046d","69f10c5d5c1b9b3130e33fee","0.5","desktop","0","0","0","","","","","","luck_game","","null","<div id=""score-counter"">TOTAL SCORE: &pound;0.35</div><div class=""experiment-container""><div class=""center-zone""><div class=""cross""></div>
                <div style=""position: absolute; z-index: 10; display: flex; flex-direction: column; align-items: center; justify-content: center;"">
                    <div class=""win-text"" style=""font-size: 48px; font-weight: bold; margin-bottom: 20px; text-shadow: 2px 2px 4px #000;"">WIN</div>
                    <img src=""images/coin_reward.png"" class=""reward-img"" style=""background-color: black; border-radius: 50%;"">
                    <div class=""win-text"" style=""font-size: 48px; font-weight: bold; margin-top: 20px; text-shadow: 2px 2px 4px #000;"">+0.05&pound;</div>
                </div></div></div>","null","","","","","","","","","","","","","","","","","","","","","","","","","","","","","","","",""
"html-keyboard-response","111","711439","0.0-5.0-155.0","6980d9a70a7862a47c69046d","69f10c5d5c1b9b3130e33fee","0.5","desktop","0","0","0","","","","","","luck_game","","467","<div id=""score-counter"">TOTAL SCORE: &pound;0.35</div><div class=""experiment-container""><div class=""center-zone""><div class=""cross""></div><div class=""triangle-grid""><div class=""machine top-center blue""></div><div class=""machine bottom-left green""></div><div class=""machine bottom-right red-outline""></div></div></div></div>","arrowleft","","","","gambling_choice","1","22","arrowleft","bottom-left","green","arrowright","bottom-right","red","arrowright","bottom-right","red","arrowup","top-center","blue","1","0","0.3","0.35","-0.05","0.05","true","false","","","","","",""
"html-keyboard-response","112","711546","0.0-5.0-156.0-0.0","6980d9a70a7862a47c69046d","69f10c5d5c1b9b3130e33fee","0.5","desktop","0","0","0","","","","","","luck_game","","null","<div id=""score-counter"">TOTAL SCORE: &pound;0.35</div><div class=""experiment-container""><div class=""center-zone""><div class=""cross""></div><div class=""triangle-grid""><div class=""machine top-center blue""></div><div class=""machine bottom-left green""></div><div class=""machine bottom-right red-outline""></div></div></div></div>","null","","","","","","","","","","","","","","","","","","","","","","","","","","","","","","","",""
"html-keyboard-response","113","712056","0.0-5.0-157.0-0.0","6980d9a70a7862a47c69046d","69f10c5d5c1b9b3130e33fee","0.5","desktop","0","0","0","","","","","","luck_game","","null","<div id=""score-counter"">TOTAL SCORE: &pound;0.35</div><div class=""experiment-container""><div class=""center-zone""><div class=""cross""></div></div></div>","null","","","","","","","","","","","","","","","","","","","","","","","","","","","","","","","",""
"html-keyboard-response","114","713070","0.0-5.0-158.0-0.0","6980d9a70a7862a47c69046d","69f10c5d5c1b9b3130e33fee","0.5","desktop","0","0","0","","","","","","luck_game","","null","<div id=""score-counter"">TOTAL SCORE: &pound;0.30</div><div class=""experiment-container""><div class=""center-zone""><div class=""cross""></div>
                <div style=""position: absolute; z-index: 10; display: flex; flex-direction: column; align-items: center; justify-content: center;"">
                    <div class=""lose-text"" style=""font-size: 48px; font-weight: bold; margin-bottom: 20px; text-shadow: 2px 2px 4px #000;"">LOSE</div>
                    <img src=""images/coin_no_reward.png"" class=""reward-img"" style=""background-color: black; border-radius: 50%;"">
                    <div class=""lose-text"" style=""font-size: 48px; font-weight: bold; margin-top: 20px; text-shadow: 2px 2px 4px #000;"">-0.05&pound;</div>
                </div></div></div>","null","","","","","","","","","","","","","","","","","","","","","","","","","","","","","","","",""
"html-keyboard-response","115","713658","0.0-5.0-161.0","6980d9a70a7862a47c69046d","69f10c5d5c1b9b3130e33fee","0.5","desktop","0","0","0","","","","","","luck_game","","586","<div id=""score-counter"">TOTAL SCORE: &pound;0.30</div><div class=""experiment-container""><div class=""center-zone""><div class=""cross""></div><div class=""triangle-grid""><div class=""machine top-center blue-outline""></div><div class=""machine bottom-left green""></div><div class=""machine bottom-right red""></div></div></div></div>","arrowright","","","","gambling_choice","1","23","arrowright","bottom-right","red","arrowleft","bottom-left","green","arrowup","top-center","blue","arrowright","bottom-right","red","0","1","0.35","0.3","0.05","-0.05","true","false","","","","","",""
"html-keyboard-response","116","713770","0.0-5.0-162.0-0.0","6980d9a70a7862a47c69046d","69f10c5d5c1b9b3130e33fee","0.5","desktop","0","0","0","","","","","","luck_game","","null","<div id=""score-counter"">TOTAL SCORE: &pound;0.30</div><div class=""experiment-container""><div class=""center-zone""><div class=""cross""></div><div class=""triangle-grid""><div class=""machine top-center blue-outline""></div><div class=""machine bottom-left green""></div><div class=""machine bottom-right red""></div></div></div></div>","null","","","","","","","","","","","","","","","","","","","","","","","","","","","","","","","",""
"html-keyboard-response","117","714286","0.0-5.0-163.0-0.0","6980d9a70a7862a47c69046d","69f10c5d5c1b9b3130e33fee","0.5","desktop","0","0","0","","","","","","luck_game","","null","<div id=""score-counter"">TOTAL SCORE: &pound;0.30</div><div class=""experiment-container""><div class=""center-zone""><div class=""cross""></div></div></div>","null","","","","","","","","","","","","","","","","","","","","","","","","","","","","","","","",""
"html-keyboard-response","118","715296","0.0-5.0-164.0-0.0","6980d9a70a7862a47c69046d","69f10c5d5c1b9b3130e33fee","0.5","desktop","0","0","0","","","","","","luck_game","","null","<div id=""score-counter"">TOTAL SCORE: &pound;0.35</div><div class=""experiment-container""><div class=""center-zone""><div class=""cross""></div>
                <div style=""position: absolute; z-index: 10; display: flex; flex-direction: column; align-items: center; justify-content: center;"">
                    <div class=""win-text"" style=""font-size: 48px; font-weight: bold; margin-bottom: 20px; text-shadow: 2px 2px 4px #000;"">WIN</div>
                    <img src=""images/coin_reward.png"" class=""reward-img"" style=""background-color: black; border-radius: 50%;"">
                    <div class=""win-text"" style=""font-size: 48px; font-weight: bold; margin-top: 20px; text-shadow: 2px 2px 4px #000;"">+0.05&pound;</div>
                </div></div></div>","null","","","","","","","","","","","","","","","","","","","","","","","","","","","","","","","",""
"html-keyboard-response","119","716009","0.0-5.0-167.0","6980d9a70a7862a47c69046d","69f10c5d5c1b9b3130e33fee","0.5","desktop","0","0","0","","","","","","luck_game","","711","<div id=""score-counter"">TOTAL SCORE: &pound;0.35</div><div class=""experiment-container""><div class=""center-zone""><div class=""cross""></div><div class=""triangle-grid""><div class=""machine top-center blue""></div><div class=""machine bottom-left green-outline""></div><div class=""machine bottom-right red""></div></div></div></div>","arrowup","","","","gambling_choice","1","24","arrowup","top-center","blue","arrowright","bottom-right","red","arrowleft","bottom-left","green","arrowup","top-center","blue","1","0","0.3","0.35","-0.05","0.05","true","false","","","","","",""
"html-keyboard-response","120","716121","0.0-5.0-168.0-0.0","6980d9a70a7862a47c69046d","69f10c5d5c1b9b3130e33fee","0.5","desktop","0","0","0","","","","","","luck_game","","null","<div id=""score-counter"">TOTAL SCORE: &pound;0.35</div><div class=""experiment-container""><div class=""center-zone""><div class=""cross""></div><div class=""triangle-grid""><div class=""machine top-center blue""></div><div class=""machine bottom-left green-outline""></div><div class=""machine bottom-right red""></div></div></div></div>","null","","","","","","","","","","","","","","","","","","","","","","","","","","","","","","","",""
"html-keyboard-response","121","716633","0.0-5.0-169.0-0.0","6980d9a70a7862a47c69046d","69f10c5d5c1b9b3130e33fee","0.5","desktop","0","0","0","","","","","","luck_game","","null","<div id=""score-counter"">TOTAL SCORE: &pound;0.35</div><div class=""experiment-container""><div class=""center-zone""><div class=""cross""></div></div></div>","null","","","","","","","","","","","","","","","","","","","","","","","","","","","","","","","",""
"html-keyboard-response","122","717644","0.0-5.0-170.0-0.0","6980d9a70a7862a47c69046d","69f10c5d5c1b9b3130e33fee","0.5","desktop","0","0","0","","","","","","luck_game","","null","<div id=""score-counter"">TOTAL SCORE: &pound;0.30</div><div class=""experiment-container""><div class=""center-zone""><div class=""cross""></div>
                <div style=""position: absolute; z-index: 10; display: flex; flex-direction: column; align-items: center; justify-content: center;"">
                    <div class=""lose-text"" style=""font-size: 48px; font-weight: bold; margin-bottom: 20px; text-shadow: 2px 2px 4px #000;"">LOSE</div>
                    <img src=""images/coin_no_reward.png"" class=""reward-img"" style=""background-color: black; border-radius: 50%;"">
                    <div class=""lose-text"" style=""font-size: 48px; font-weight: bold; margin-top: 20px; text-shadow: 2px 2px 4px #000;"">-0.05&pound;</div>
                </div></div></div>","null","","","","","","","","","","","","","","","","","","","","","","","","","","","","","","","",""
"html-keyboard-response","123","718159","0.0-5.0-173.0","6980d9a70a7862a47c69046d","69f10c5d5c1b9b3130e33fee","0.5","desktop","0","0","0","","","","","","luck_game","","514","<div id=""score-counter"">TOTAL SCORE: &pound;0.30</div><div class=""experiment-container""><div class=""center-zone""><div class=""cross""></div><div class=""triangle-grid""><div class=""machine top-center blue-outline""></div><div class=""machine bottom-left green""></div><div class=""machine bottom-right red""></div></div></div></div>","arrowleft","","","","gambling_choice","1","25","arrowleft","bottom-left","green","arrowup","top-center","blue","arrowup","top-center","blue","arrowleft","bottom-left","green","0","0","0.25","0.3","-0.05","-0.05","true","false","","","","","",""
"html-keyboard-response","124","718264","0.0-5.0-174.0-0.0","6980d9a70a7862a47c69046d","69f10c5d5c1b9b3130e33fee","0.5","desktop","0","0","0","","","","","","luck_game","","null","<div id=""score-counter"">TOTAL SCORE: &pound;0.30</div><div class=""experiment-container""><div class=""center-zone""><div class=""cross""></div><div class=""triangle-grid""><div class=""machine top-center blue-outline""></div><div class=""machine bottom-left green""></div><div class=""machine bottom-right red""></div></div></div></div>","null","","","","","","","","","","","","","","","","","","","","","","","","","","","","","","","",""
"html-keyboard-response","125","718777","0.0-5.0-175.0-0.0","6980d9a70a7862a47c69046d","69f10c5d5c1b9b3130e33fee","0.5","desktop","0","0","0","","","","","","luck_game","","null","<div id=""score-counter"">TOTAL SCORE: &pound;0.30</div><div class=""experiment-container""><div class=""center-zone""><div class=""cross""></div></div></div>","null","","","","","","","","","","","","","","","","","","","","","","","","","","","","","","","",""
"html-keyboard-response","126","719788","0.0-5.0-176.0-0.0","6980d9a70a7862a47c69046d","69f10c5d5c1b9b3130e33fee","0.5","desktop","0","0","0","","","","","","luck_game","","null","<div id=""score-counter"">TOTAL SCORE: &pound;0.25</div><div class=""experiment-container""><div class=""center-zone""><div class=""cross""></div>
                <div style=""position: absolute; z-index: 10; display: flex; flex-direction: column; align-items: center; justify-content: center;"">
                    <div class=""lose-text"" style=""font-size: 48px; font-weight: bold; margin-bottom: 20px; text-shadow: 2px 2px 4px #000;"">LOSE</div>
                    <img src=""images/coin_no_reward.png"" class=""reward-img"" style=""background-color: black; border-radius: 50%;"">
                    <div class=""lose-text"" style=""font-size: 48px; font-weight: bold; margin-top: 20px; text-shadow: 2px 2px 4px #000;"">-0.05&pound;</div>
                </div></div></div>","null","","","","","","","","","","","","","","","","","","","","","","","","","","","","","","","",""
"html-keyboard-response","127","757084","0.0-5.0-179.0","6980d9a70a7862a47c69046d","69f10c5d5c1b9b3130e33fee","0.5","desktop","0","0","0","","","","","","luck_game","","37294","
            <div class=""experiment-container"">
                <div style=""text-align: center; font-family: sans-serif;"">
                    <h2 style=""color: white; font-size: 40px; margin-bottom: 20px;"">Rest phase.</h2>
                    <p style=""font-size: 24px; color: white;"">Take as much time as needed.</p>
                    <p style=""font-size: 24px; color: white; margin-top: 40px;"">When ready, press <strong>Space</strong> to continue.</p>
                </div>
            </div>"," ","","","","rest_break","","","","","","","","","","","","","","","","","","","","","","","","","","","",""
"html-keyboard-response","128","758216","0.0-5.0-180.0","6980d9a70a7862a47c69046d","69f10c5d5c1b9b3130e33fee","0.5","desktop","0","0","0","","","","","","luck_game","","1130","<div id=""score-counter"">TOTAL SCORE: &pound;0.25</div><div class=""experiment-container""><div class=""center-zone""><div class=""cross""></div><div class=""triangle-grid""><div class=""machine top-center blue""></div><div class=""machine bottom-left green-outline""></div><div class=""machine bottom-right red""></div></div></div></div>","arrowup","","","","gambling_choice","2","1","arrowup","top-center","blue","arrowleft","bottom-left","green","arrowleft","bottom-left","green","arrowup","top-center","blue","0","0","0.2","0.25","-0.05","-0.05","true","false","","","","","",""
"html-keyboard-response","129","758327","0.0-5.0-181.0-0.0","6980d9a70a7862a47c69046d","69f10c5d5c1b9b3130e33fee","0.5","desktop","0","0","0","","","","","","luck_game","","null","<div id=""score-counter"">TOTAL SCORE: &pound;0.25</div><div class=""experiment-container""><div class=""center-zone""><div class=""cross""></div><div class=""triangle-grid""><div class=""machine top-center blue""></div><div class=""machine bottom-left green-outline""></div><div class=""machine bottom-right red""></div></div></div></div>","null","","","","","","","","","","","","","","","","","","","","","","","","","","","","","","","",""
"html-keyboard-response","130","758839","0.0-5.0-182.0-0.0","6980d9a70a7862a47c69046d","69f10c5d5c1b9b3130e33fee","0.5","desktop","0","0","0","","","","","","luck_game","","null","<div id=""score-counter"">TOTAL SCORE: &pound;0.25</div><div class=""experiment-container""><div class=""center-zone""><div class=""cross""></div></div></div>","null","","","","","","","","","","","","","","","","","","","","","","","","","","","","","","","",""
"html-keyboard-response","131","759852","0.0-5.0-183.0-0.0","6980d9a70a7862a47c69046d","69f10c5d5c1b9b3130e33fee","0.5","desktop","0","0","0","","","","","","luck_game","","null","<div id=""score-counter"">TOTAL SCORE: &pound;0.20</div><div class=""experiment-container""><div class=""center-zone""><div class=""cross""></div>
                <div style=""position: absolute; z-index: 10; display: flex; flex-direction: column; align-items: center; justify-content: center;"">
                    <div class=""lose-text"" style=""font-size: 48px; font-weight: bold; margin-bottom: 20px; text-shadow: 2px 2px 4px #000;"">LOSE</div>
                    <img src=""images/coin_no_reward.png"" class=""reward-img"" style=""background-color: black; border-radius: 50%;"">
                    <div class=""lose-text"" style=""font-size: 48px; font-weight: bold; margin-top: 20px; text-shadow: 2px 2px 4px #000;"">-0.05&pound;</div>
                </div></div></div>","null","","","","","","","","","","","","","","","","","","","","","","","","","","","","","","","",""
"html-keyboard-response","132","760373","0.0-5.0-186.0","6980d9a70a7862a47c69046d","69f10c5d5c1b9b3130e33fee","0.5","desktop","0","0","0","","","","","","luck_game","","520","<div id=""score-counter"">TOTAL SCORE: &pound;0.20</div><div class=""experiment-container""><div class=""center-zone""><div class=""cross""></div><div class=""triangle-grid""><div class=""machine top-center blue-outline""></div><div class=""machine bottom-left green""></div><div class=""machine bottom-right red""></div></div></div></div>","arrowleft","","","","gambling_choice","2","2","arrowleft","bottom-left","green","arrowup","top-center","blue","arrowup","top-center","blue","arrowleft","bottom-left","green","0","0","0.15","0.2","-0.05","-0.05","true","false","","","","","",""
"html-keyboard-response","133","760489","0.0-5.0-187.0-0.0","6980d9a70a7862a47c69046d","69f10c5d5c1b9b3130e33fee","0.5","desktop","0","0","0","","","","","","luck_game","","null","<div id=""score-counter"">TOTAL SCORE: &pound;0.20</div><div class=""experiment-container""><div class=""center-zone""><div class=""cross""></div><div class=""triangle-grid""><div class=""machine top-center blue-outline""></div><div class=""machine bottom-left green""></div><div class=""machine bottom-right red""></div></div></div></div>","null","","","","","","","","","","","","","","","","","","","","","","","","","","","","","","","",""
"html-keyboard-response","134","761000","0.0-5.0-188.0-0.0","6980d9a70a7862a47c69046d","69f10c5d5c1b9b3130e33fee","0.5","desktop","0","0","0","","","","","","luck_game","","null","<div id=""score-counter"">TOTAL SCORE: &pound;0.20</div><div class=""experiment-container""><div class=""center-zone""><div class=""cross""></div></div></div>","null","","","","","","","","","","","","","","","","","","","","","","","","","","","","","","","",""
"html-keyboard-response","135","762012","0.0-5.0-189.0-0.0","6980d9a70a7862a47c69046d","69f10c5d5c1b9b3130e33fee","0.5","desktop","0","0","0","","","","","","luck_game","","null","<div id=""score-counter"">TOTAL SCORE: &pound;0.15</div><div class=""experiment-container""><div class=""center-zone""><div class=""cross""></div>
                <div style=""position: absolute; z-index: 10; display: flex; flex-direction: column; align-items: center; justify-content: center;"">
                    <div class=""lose-text"" style=""font-size: 48px; font-weight: bold; margin-bottom: 20px; text-shadow: 2px 2px 4px #000;"">LOSE</div>
                    <img src=""images/coin_no_reward.png"" class=""reward-img"" style=""background-color: black; border-radius: 50%;"">
                    <div class=""lose-text"" style=""font-size: 48px; font-weight: bold; margin-top: 20px; text-shadow: 2px 2px 4px #000;"">-0.05&pound;</div>
                </div></div></div>","null","","","","","","","","","","","","","","","","","","","","","","","","","","","","","","","",""
"html-keyboard-response","136","762458","0.0-5.0-192.0","6980d9a70a7862a47c69046d","69f10c5d5c1b9b3130e33fee","0.5","desktop","0","0","0","","","","","","luck_game","","445","<div id=""score-counter"">TOTAL SCORE: &pound;0.15</div><div class=""experiment-container""><div class=""center-zone""><div class=""cross""></div><div class=""triangle-grid""><div class=""machine top-center blue-outline""></div><div class=""machine bottom-left green""></div><div class=""machine bottom-right red""></div></div></div></div>","arrowright","","","","gambling_choice","2","3","arrowright","bottom-right","red","arrowleft","bottom-left","green","arrowup","top-center","blue","arrowup","top-center","blue","0","1","0.2","0.15","0.05","-0.05","true","false","","","","","",""
"html-keyboard-response","137","762573","0.0-5.0-193.0-0.0","6980d9a70a7862a47c69046d","69f10c5d5c1b9b3130e33fee","0.5","desktop","0","0","0","","","","","","luck_game","","null","<div id=""score-counter"">TOTAL SCORE: &pound;0.15</div><div class=""experiment-container""><div class=""center-zone""><div class=""cross""></div><div class=""triangle-grid""><div class=""machine top-center blue-outline""></div><div class=""machine bottom-left green""></div><div class=""machine bottom-right red""></div></div></div></div>","null","","","","","","","","","","","","","","","","","","","","","","","","","","","","","","","",""
"html-keyboard-response","138","763081","0.0-5.0-194.0-0.0","6980d9a70a7862a47c69046d","69f10c5d5c1b9b3130e33fee","0.5","desktop","0","0","0","","","","","","luck_game","","null","<div id=""score-counter"">TOTAL SCORE: &pound;0.15</div><div class=""experiment-container""><div class=""center-zone""><div class=""cross""></div></div></div>","null","","","","","","","","","","","","","","","","","","","","","","","","","","","","","","","",""
"html-keyboard-response","139","764093","0.0-5.0-195.0-0.0","6980d9a70a7862a47c69046d","69f10c5d5c1b9b3130e33fee","0.5","desktop","0","0","0","","","","","","luck_game","","null","<div id=""score-counter"">TOTAL SCORE: &pound;0.20</div><div class=""experiment-container""><div class=""center-zone""><div class=""cross""></div>
                <div style=""position: absolute; z-index: 10; display: flex; flex-direction: column; align-items: center; justify-content: center;"">
                    <div class=""win-text"" style=""font-size: 48px; font-weight: bold; margin-bottom: 20px; text-shadow: 2px 2px 4px #000;"">WIN</div>
                    <img src=""images/coin_reward.png"" class=""reward-img"" style=""background-color: black; border-radius: 50%;"">
                    <div class=""win-text"" style=""font-size: 48px; font-weight: bold; margin-top: 20px; text-shadow: 2px 2px 4px #000;"">+0.05&pound;</div>
                </div></div></div>","null","","","","","","","","","","","","","","","","","","","","","","","","","","","","","","","",""
