"trial_type","trial_index","time_elapsed","internal_node_id","subject_id","study_id","win_chance","device_type","blur_count","fullscreen_exit_count","failed_attention_checks","success","timeout","failed_images","failed_audio","failed_video","phase","view_history","rt","stimulus","response","question_order","trial_name","value","task","block_number","trial_number","choice_key","choice_location","choice_color","choice_key_oneback","choice_location_oneback","choice_color_oneback","unavailable_key","unavailable_location","unavailable_color","unavailable_key_oneback","unavailable_location_oneback","unavailable_color_oneback","reward_oneback","reward","total_score","total_score_oneback","coin_earned","coin_earned_oneback","is_choice_valid","is_timeout_reached","prompt","flipped","attention","expected_answer","category","question_index"
"pavlovia","0","915","0.0-0.0","6984a9246122d3bd4ca0833e","69f10c5d5c1b9b3130e33fee","0.5","desktop","0","0","0","","","","","","","","","","","","","","","","","","","","","","","","","","","","","","","","","","","","","","","","","",""
"preload","1","1751","0.0-2.0","6984a9246122d3bd4ca0833e","69f10c5d5c1b9b3130e33fee","0.5","desktop","0","0","0","true","false","[]","[]","[]","","","","","","","","","","","","","","","","","","","","","","","","","","","","","","","","","","","","",""
"html-keyboard-response","2","29450","0.0-3.0-0.0","6984a9246122d3bd4ca0833e","69f10c5d5c1b9b3130e33fee","0.5","desktop","0","0","0","","","","","","captcha","","","","","","","","","","","","","","","","","","","","","","","","","","","","","","","","","","","",""
"fullscreen","3","32046","0.0-4.0","6984a9246122d3bd4ca0833e","69f10c5d5c1b9b3130e33fee","0.5","desktop","0","0","0","true","","","","","setup","","","","","","","","","","","","","","","","","","","","","","","","","","","","","","","","","","","",""
"instructions","4","73497","0.0-5.0-0.0-0.0-0.0","6984a9246122d3bd4ca0833e","69f10c5d5c1b9b3130e33fee","0.5","desktop","0","0","0","","","","","","luck_game","[{""page_index"":0,""viewing_time"":4749},{""page_index"":1,""viewing_time"":3861},{""page_index"":2,""viewing_time"":3921},{""page_index"":3,""viewing_time"":3709},{""page_index"":4,""viewing_time"":4158},{""page_index"":5,""viewing_time"":3393},{""page_index"":6,""viewing_time"":3469},{""page_index"":7,""viewing_time"":3777},{""page_index"":8,""viewing_time"":3457},{""page_index"":9,""viewing_time"":3488},{""page_index"":10,""viewing_time"":3466}]","41449","","","","","","","","","","","","","","","","","","","","","","","","","","","","","","","","","",""
"html-button-response","5","75348","0.0-5.0-0.0-1.0","6984a9246122d3bd4ca0833e","69f10c5d5c1b9b3130e33fee","0.5","desktop","0","0","0","","","","","","luck_game","","1849","<div style=""max-width:640px; margin:0 auto; text-align:left;
                               font-family:sans-serif; color:white; padding:10px;"">
            <h3 style=""color:white; text-align:center;"">Quick Reminder</h3>
            <ul style=""line-height:2.1; font-size:1.05em;"">
                <li>There are <strong>3 luck machines</strong>:
                    <span style=""color:#5599ff""><strong>Blue</strong></span> (&uarr; Up),
                    <span style=""color:#55cc55""><strong>Green</strong></span> (&larr; Left),
                    <span style=""color:#ff5555""><strong>Red</strong></span> (&rarr; Right)</li>
                <li>Each turn, <strong>2 machines are READY</strong> and 1 is
                    <strong>unavailable</strong> (shown as a colored outline)</li>
                <li>Press the corresponding arrow key to activate a READY machine</li>
                <li>Activating an <strong>unavailable</strong> machine: lose your turn + time penalty</li>
                <li>Activating a READY machine: <strong class=""win-text"">50% win +&pound;0.05</strong>
                    / <strong class=""lose-text"">50% lose &minus;&pound;0.05</strong></li>
                <li><strong>Time limit:</strong> 6 seconds per turn &mdash; don&rsquo;t miss your chance!</li>
                <li><strong>Goal:</strong> Quickly activate READY machines, avoid unavailable ones</li>
            </ul>
        </div>","0","","","","","","","","","","","","","","","","","","","","","","","","","","","","","","","",""
"survey-multi-choice","6","108920","0.0-5.0-0.0-2.0","6984a9246122d3bd4ca0833e","69f10c5d5c1b9b3130e33fee","0.5","desktop","0","0","0","","","","","","luck_game","","33568","","{""q_total_machines"":""3"",""q_ready_machines"":""2"",""q_blue_key"":""↑ Up arrow key"",""q_red_key"":""→ Right arrow key"",""q_outcome"":""The red machine is unavailable. I will lose my turn and chance to win coins, and get a time penalty."",""q_ready_outcome"":""I will either win a coin (+0.05£) or lose a coin (−0.05£)."",""q_goal"":""My goal is to quickly activate available luck machines, avoiding unavailable machines. If I am lucky, I will get rewarded."",""q_win_rates"":""Red: 50% win rate — Blue: 50% win rate — Green: 50% win rate""}","[0,1,2,3,4,5,6,7]","luck_game_quiz","","","","","","","","","","","","","","","","","","","","","","","","","","","","","",""
"html-keyboard-response","7","109996","0.0-5.0-1.0","6984a9246122d3bd4ca0833e","69f10c5d5c1b9b3130e33fee","0.5","desktop","0","0","0","","","","","","luck_game","","1073","
            <div style=""max-width: 600px; margin: 0 auto; text-align: center; font-family: sans-serif;"">
                <h2 style=""color: white;"">Good job, you learned the instructions!</h2>
                <p>We will now move to a short <strong>training phase</strong> to get you familiar with the game.</p>
                <p>Your score will <strong>not</strong> be counted during training.</p>
                <br>
                <p><strong>Press Space to start training.</strong></p>
            </div>"," ","","","","","","","","","","","","","","","","","","","","","","","","","","","","","","","",""
"call-function","8","109998","0.0-5.0-2.0","6984a9246122d3bd4ca0833e","69f10c5d5c1b9b3130e33fee","0.5","desktop","0","0","0","","","","","","luck_game","","","","","","","","","","","","","","","","","","","","","","","","","","","","","","","","","","","",""
"html-keyboard-response","9","111066","0.0-5.0-3.0","6984a9246122d3bd4ca0833e","69f10c5d5c1b9b3130e33fee","0.5","desktop","0","0","0","","","","","","luck_game","","1066","<div class=""experiment-container""><div class=""center-zone""><div class=""cross""></div><div class=""triangle-grid""><div class=""machine top-center blue-outline""></div><div class=""machine bottom-left green""></div><div class=""machine bottom-right red""></div></div></div></div>","arrowleft","","","","gambling_choice","training","1","arrowleft","bottom-left","green","null","null","null","arrowup","top-center","blue","null","null","null","null","0","0","0","-0.05","null","true","false","","","","","",""
"html-keyboard-response","10","111177","0.0-5.0-4.0-0.0","6984a9246122d3bd4ca0833e","69f10c5d5c1b9b3130e33fee","0.5","desktop","0","0","0","","","","","","luck_game","","null","<div class=""experiment-container""><div class=""center-zone""><div class=""cross""></div><div class=""triangle-grid""><div class=""machine top-center blue-outline""></div><div class=""machine bottom-left green""></div><div class=""machine bottom-right red""></div></div></div></div>","null","","","","","","","","","","","","","","","","","","","","","","","","","","","","","","","",""
"html-keyboard-response","11","111689","0.0-5.0-5.0-0.0","6984a9246122d3bd4ca0833e","69f10c5d5c1b9b3130e33fee","0.5","desktop","0","0","0","","","","","","luck_game","","null","<div class=""experiment-container""><div class=""center-zone""><div class=""cross""></div></div></div>","null","","","","","","","","","","","","","","","","","","","","","","","","","","","","","","","",""
"html-keyboard-response","12","112700","0.0-5.0-6.0-0.0","6984a9246122d3bd4ca0833e","69f10c5d5c1b9b3130e33fee","0.5","desktop","0","0","0","","","","","","luck_game","","null","<div class=""experiment-container""><div class=""center-zone""><div class=""cross""></div>
                <div style=""position: absolute; z-index: 10; display: flex; flex-direction: column; align-items: center; justify-content: center;"">
                    <div class=""lose-text"" style=""font-size: 48px; font-weight: bold; margin-bottom: 20px; text-shadow: 2px 2px 4px #000;"">LOSE</div>
                    <img src=""images/coin_no_reward.png"" class=""reward-img"" style=""background-color: black; border-radius: 50%;"">
                    <div class=""lose-text"" style=""font-size: 48px; font-weight: bold; margin-top: 20px; text-shadow: 2px 2px 4px #000;"">-0.05&pound;</div>
                </div></div></div>","null","","","","","","","","","","","","","","","","","","","","","","","","","","","","","","","",""
"html-keyboard-response","13","113195","0.0-5.0-9.0","6984a9246122d3bd4ca0833e","69f10c5d5c1b9b3130e33fee","0.5","desktop","0","0","0","","","","","","luck_game","","493","<div class=""experiment-container""><div class=""center-zone""><div class=""cross""></div><div class=""triangle-grid""><div class=""machine top-center blue-outline""></div><div class=""machine bottom-left green""></div><div class=""machine bottom-right red""></div></div></div></div>","arrowright","","","","gambling_choice","training","2","arrowright","bottom-right","red","arrowleft","bottom-left","green","arrowup","top-center","blue","arrowup","top-center","blue","0","0","0","0","-0.05","-0.05","true","false","","","","","",""
"html-keyboard-response","14","113308","0.0-5.0-10.0-0.0","6984a9246122d3bd4ca0833e","69f10c5d5c1b9b3130e33fee","0.5","desktop","0","0","0","","","","","","luck_game","","null","<div class=""experiment-container""><div class=""center-zone""><div class=""cross""></div><div class=""triangle-grid""><div class=""machine top-center blue-outline""></div><div class=""machine bottom-left green""></div><div class=""machine bottom-right red""></div></div></div></div>","null","","","","","","","","","","","","","","","","","","","","","","","","","","","","","","","",""
"html-keyboard-response","15","113821","0.0-5.0-11.0-0.0","6984a9246122d3bd4ca0833e","69f10c5d5c1b9b3130e33fee","0.5","desktop","0","0","0","","","","","","luck_game","","null","<div class=""experiment-container""><div class=""center-zone""><div class=""cross""></div></div></div>","null","","","","","","","","","","","","","","","","","","","","","","","","","","","","","","","",""
"html-keyboard-response","16","114830","0.0-5.0-12.0-0.0","6984a9246122d3bd4ca0833e","69f10c5d5c1b9b3130e33fee","0.5","desktop","0","0","0","","","","","","luck_game","","null","<div class=""experiment-container""><div class=""center-zone""><div class=""cross""></div>
                <div style=""position: absolute; z-index: 10; display: flex; flex-direction: column; align-items: center; justify-content: center;"">
                    <div class=""lose-text"" style=""font-size: 48px; font-weight: bold; margin-bottom: 20px; text-shadow: 2px 2px 4px #000;"">LOSE</div>
                    <img src=""images/coin_no_reward.png"" class=""reward-img"" style=""background-color: black; border-radius: 50%;"">
                    <div class=""lose-text"" style=""font-size: 48px; font-weight: bold; margin-top: 20px; text-shadow: 2px 2px 4px #000;"">-0.05&pound;</div>
                </div></div></div>","null","","","","","","","","","","","","","","","","","","","","","","","","","","","","","","","",""
"html-keyboard-response","17","115160","0.0-5.0-15.0","6984a9246122d3bd4ca0833e","69f10c5d5c1b9b3130e33fee","0.5","desktop","0","0","0","","","","","","luck_game","","328","<div class=""experiment-container""><div class=""center-zone""><div class=""cross""></div><div class=""triangle-grid""><div class=""machine top-center blue""></div><div class=""machine bottom-left green""></div><div class=""machine bottom-right red-outline""></div></div></div></div>","arrowleft","","","","gambling_choice","training","3","arrowleft","bottom-left","green","arrowright","bottom-right","red","arrowright","bottom-right","red","arrowup","top-center","blue","0","0","0","0","-0.05","-0.05","true","false","","","","","",""
"html-keyboard-response","18","115264","0.0-5.0-16.0-0.0","6984a9246122d3bd4ca0833e","69f10c5d5c1b9b3130e33fee","0.5","desktop","0","0","0","","","","","","luck_game","","null","<div class=""experiment-container""><div class=""center-zone""><div class=""cross""></div><div class=""triangle-grid""><div class=""machine top-center blue""></div><div class=""machine bottom-left green""></div><div class=""machine bottom-right red-outline""></div></div></div></div>","null","","","","","","","","","","","","","","","","","","","","","","","","","","","","","","","",""
"html-keyboard-response","19","115775","0.0-5.0-17.0-0.0","6984a9246122d3bd4ca0833e","69f10c5d5c1b9b3130e33fee","0.5","desktop","0","0","0","","","","","","luck_game","","null","<div class=""experiment-container""><div class=""center-zone""><div class=""cross""></div></div></div>","null","","","","","","","","","","","","","","","","","","","","","","","","","","","","","","","",""
"html-keyboard-response","20","116787","0.0-5.0-18.0-0.0","6984a9246122d3bd4ca0833e","69f10c5d5c1b9b3130e33fee","0.5","desktop","0","0","0","","","","","","luck_game","","null","<div class=""experiment-container""><div class=""center-zone""><div class=""cross""></div>
                <div style=""position: absolute; z-index: 10; display: flex; flex-direction: column; align-items: center; justify-content: center;"">
                    <div class=""lose-text"" style=""font-size: 48px; font-weight: bold; margin-bottom: 20px; text-shadow: 2px 2px 4px #000;"">LOSE</div>
                    <img src=""images/coin_no_reward.png"" class=""reward-img"" style=""background-color: black; border-radius: 50%;"">
                    <div class=""lose-text"" style=""font-size: 48px; font-weight: bold; margin-top: 20px; text-shadow: 2px 2px 4px #000;"">-0.05&pound;</div>
                </div></div></div>","null","","","","","","","","","","","","","","","","","","","","","","","","","","","","","","","",""
"html-keyboard-response","21","117477","0.0-5.0-21.0","6984a9246122d3bd4ca0833e","69f10c5d5c1b9b3130e33fee","0.5","desktop","0","0","0","","","","","","luck_game","","689","<div class=""experiment-container""><div class=""center-zone""><div class=""cross""></div><div class=""triangle-grid""><div class=""machine top-center blue""></div><div class=""machine bottom-left green""></div><div class=""machine bottom-right red-outline""></div></div></div></div>","arrowup","","","","gambling_choice","training","4","arrowup","top-center","blue","arrowleft","bottom-left","green","arrowright","bottom-right","red","arrowright","bottom-right","red","0","0","0","0","-0.05","-0.05","true","false","","","","","",""
"html-keyboard-response","22","117580","0.0-5.0-22.0-0.0","6984a9246122d3bd4ca0833e","69f10c5d5c1b9b3130e33fee","0.5","desktop","0","0","0","","","","","","luck_game","","null","<div class=""experiment-container""><div class=""center-zone""><div class=""cross""></div><div class=""triangle-grid""><div class=""machine top-center blue""></div><div class=""machine bottom-left green""></div><div class=""machine bottom-right red-outline""></div></div></div></div>","null","","","","","","","","","","","","","","","","","","","","","","","","","","","","","","","",""
"html-keyboard-response","23","118095","0.0-5.0-23.0-0.0","6984a9246122d3bd4ca0833e","69f10c5d5c1b9b3130e33fee","0.5","desktop","0","0","0","","","","","","luck_game","","null","<div class=""experiment-container""><div class=""center-zone""><div class=""cross""></div></div></div>","null","","","","","","","","","","","","","","","","","","","","","","","","","","","","","","","",""
"html-keyboard-response","24","119104","0.0-5.0-24.0-0.0","6984a9246122d3bd4ca0833e","69f10c5d5c1b9b3130e33fee","0.5","desktop","0","0","0","","","","","","luck_game","","null","<div class=""experiment-container""><div class=""center-zone""><div class=""cross""></div>
                <div style=""position: absolute; z-index: 10; display: flex; flex-direction: column; align-items: center; justify-content: center;"">
                    <div class=""lose-text"" style=""font-size: 48px; font-weight: bold; margin-bottom: 20px; text-shadow: 2px 2px 4px #000;"">LOSE</div>
                    <img src=""images/coin_no_reward.png"" class=""reward-img"" style=""background-color: black; border-radius: 50%;"">
                    <div class=""lose-text"" style=""font-size: 48px; font-weight: bold; margin-top: 20px; text-shadow: 2px 2px 4px #000;"">-0.05&pound;</div>
                </div></div></div>","null","","","","","","","","","","","","","","","","","","","","","","","","","","","","","","","",""
"call-function","25","119106","0.0-5.0-27.0","6984a9246122d3bd4ca0833e","69f10c5d5c1b9b3130e33fee","0.5","desktop","0","0","0","","","","","","luck_game","","","","","","","","","","","","","","","","","","","","","","","","","","","","","","","","","","","",""
"html-keyboard-response","26","120283","0.0-5.0-28.0","6984a9246122d3bd4ca0833e","69f10c5d5c1b9b3130e33fee","0.5","desktop","0","0","0","","","","","","luck_game","","1176","
            <div style=""max-width: 600px; margin: 0 auto; text-align: center; font-family: sans-serif;"">
                <h2 style=""color: white;"">Training Complete</h2>
                <p>You will now start the real game.</p>
                <br>
                <p><strong>Press Space to begin.</strong></p>
            </div>"," ","","","","","","","","","","","","","","","","","","","","","","","","","","","","","","","",""
"html-keyboard-response","27","121038","0.0-5.0-29.0","6984a9246122d3bd4ca0833e","69f10c5d5c1b9b3130e33fee","0.5","desktop","0","0","0","","","","","","luck_game","","754","<div id=""score-counter"">TOTAL SCORE: &pound;0.00</div><div class=""experiment-container""><div class=""center-zone""><div class=""cross""></div><div class=""triangle-grid""><div class=""machine top-center blue-outline""></div><div class=""machine bottom-left green""></div><div class=""machine bottom-right red""></div></div></div></div>","arrowleft","","","","gambling_choice","1","1","arrowleft","bottom-left","green","arrowup","top-center","blue","arrowup","top-center","blue","arrowright","bottom-right","red","0","1","0.05","0","0.05","-0.05","true","false","","","","","",""
"html-keyboard-response","28","121144","0.0-5.0-30.0-0.0","6984a9246122d3bd4ca0833e","69f10c5d5c1b9b3130e33fee","0.5","desktop","0","0","0","","","","","","luck_game","","null","<div id=""score-counter"">TOTAL SCORE: &pound;0.00</div><div class=""experiment-container""><div class=""center-zone""><div class=""cross""></div><div class=""triangle-grid""><div class=""machine top-center blue-outline""></div><div class=""machine bottom-left green""></div><div class=""machine bottom-right red""></div></div></div></div>","null","","","","","","","","","","","","","","","","","","","","","","","","","","","","","","","",""
"html-keyboard-response","29","121655","0.0-5.0-31.0-0.0","6984a9246122d3bd4ca0833e","69f10c5d5c1b9b3130e33fee","0.5","desktop","0","0","0","","","","","","luck_game","","null","<div id=""score-counter"">TOTAL SCORE: &pound;0.00</div><div class=""experiment-container""><div class=""center-zone""><div class=""cross""></div></div></div>","null","","","","","","","","","","","","","","","","","","","","","","","","","","","","","","","",""
"html-keyboard-response","30","122667","0.0-5.0-32.0-0.0","6984a9246122d3bd4ca0833e","69f10c5d5c1b9b3130e33fee","0.5","desktop","0","0","0","","","","","","luck_game","","null","<div id=""score-counter"">TOTAL SCORE: &pound;0.05</div><div class=""experiment-container""><div class=""center-zone""><div class=""cross""></div>
                <div style=""position: absolute; z-index: 10; display: flex; flex-direction: column; align-items: center; justify-content: center;"">
                    <div class=""win-text"" style=""font-size: 48px; font-weight: bold; margin-bottom: 20px; text-shadow: 2px 2px 4px #000;"">WIN</div>
                    <img src=""images/coin_reward.png"" class=""reward-img"" style=""background-color: black; border-radius: 50%;"">
                    <div class=""win-text"" style=""font-size: 48px; font-weight: bold; margin-top: 20px; text-shadow: 2px 2px 4px #000;"">+0.05&pound;</div>
                </div></div></div>","null","","","","","","","","","","","","","","","","","","","","","","","","","","","","","","","",""
"html-keyboard-response","31","123186","0.0-5.0-35.0","6984a9246122d3bd4ca0833e","69f10c5d5c1b9b3130e33fee","0.5","desktop","0","0","0","","","","","","luck_game","","517","<div id=""score-counter"">TOTAL SCORE: &pound;0.05</div><div class=""experiment-container""><div class=""center-zone""><div class=""cross""></div><div class=""triangle-grid""><div class=""machine top-center blue""></div><div class=""machine bottom-left green""></div><div class=""machine bottom-right red-outline""></div></div></div></div>","arrowleft","","","","gambling_choice","1","2","arrowleft","bottom-left","green","arrowleft","bottom-left","green","arrowright","bottom-right","red","arrowup","top-center","blue","1","1","0.1","0.05","0.05","0.05","true","false","","","","","",""
"html-keyboard-response","32","123291","0.0-5.0-36.0-0.0","6984a9246122d3bd4ca0833e","69f10c5d5c1b9b3130e33fee","0.5","desktop","0","0","0","","","","","","luck_game","","null","<div id=""score-counter"">TOTAL SCORE: &pound;0.05</div><div class=""experiment-container""><div class=""center-zone""><div class=""cross""></div><div class=""triangle-grid""><div class=""machine top-center blue""></div><div class=""machine bottom-left green""></div><div class=""machine bottom-right red-outline""></div></div></div></div>","null","","","","","","","","","","","","","","","","","","","","","","","","","","","","","","","",""
"html-keyboard-response","33","123804","0.0-5.0-37.0-0.0","6984a9246122d3bd4ca0833e","69f10c5d5c1b9b3130e33fee","0.5","desktop","0","0","0","","","","","","luck_game","","null","<div id=""score-counter"">TOTAL SCORE: &pound;0.05</div><div class=""experiment-container""><div class=""center-zone""><div class=""cross""></div></div></div>","null","","","","","","","","","","","","","","","","","","","","","","","","","","","","","","","",""
"html-keyboard-response","34","124816","0.0-5.0-38.0-0.0","6984a9246122d3bd4ca0833e","69f10c5d5c1b9b3130e33fee","0.5","desktop","0","0","0","","","","","","luck_game","","null","<div id=""score-counter"">TOTAL SCORE: &pound;0.10</div><div class=""experiment-container""><div class=""center-zone""><div class=""cross""></div>
                <div style=""position: absolute; z-index: 10; display: flex; flex-direction: column; align-items: center; justify-content: center;"">
                    <div class=""win-text"" style=""font-size: 48px; font-weight: bold; margin-bottom: 20px; text-shadow: 2px 2px 4px #000;"">WIN</div>
                    <img src=""images/coin_reward.png"" class=""reward-img"" style=""background-color: black; border-radius: 50%;"">
                    <div class=""win-text"" style=""font-size: 48px; font-weight: bold; margin-top: 20px; text-shadow: 2px 2px 4px #000;"">+0.05&pound;</div>
                </div></div></div>","null","","","","","","","","","","","","","","","","","","","","","","","","","","","","","","","",""
"html-keyboard-response","35","125254","0.0-5.0-41.0","6984a9246122d3bd4ca0833e","69f10c5d5c1b9b3130e33fee","0.5","desktop","0","0","0","","","","","","luck_game","","436","<div id=""score-counter"">TOTAL SCORE: &pound;0.10</div><div class=""experiment-container""><div class=""center-zone""><div class=""cross""></div><div class=""triangle-grid""><div class=""machine top-center blue""></div><div class=""machine bottom-left green""></div><div class=""machine bottom-right red-outline""></div></div></div></div>","arrowleft","","","","gambling_choice","1","3","arrowleft","bottom-left","green","arrowleft","bottom-left","green","arrowright","bottom-right","red","arrowright","bottom-right","red","1","0","0.05","0.1","-0.05","0.05","true","false","","","","","",""
"html-keyboard-response","36","125360","0.0-5.0-42.0-0.0","6984a9246122d3bd4ca0833e","69f10c5d5c1b9b3130e33fee","0.5","desktop","0","0","0","","","","","","luck_game","","null","<div id=""score-counter"">TOTAL SCORE: &pound;0.10</div><div class=""experiment-container""><div class=""center-zone""><div class=""cross""></div><div class=""triangle-grid""><div class=""machine top-center blue""></div><div class=""machine bottom-left green""></div><div class=""machine bottom-right red-outline""></div></div></div></div>","null","","","","","","","","","","","","","","","","","","","","","","","","","","","","","","","",""
"html-keyboard-response","37","125873","0.0-5.0-43.0-0.0","6984a9246122d3bd4ca0833e","69f10c5d5c1b9b3130e33fee","0.5","desktop","0","0","0","","","","","","luck_game","","null","<div id=""score-counter"">TOTAL SCORE: &pound;0.10</div><div class=""experiment-container""><div class=""center-zone""><div class=""cross""></div></div></div>","null","","","","","","","","","","","","","","","","","","","","","","","","","","","","","","","",""
"html-keyboard-response","38","126884","0.0-5.0-44.0-0.0","6984a9246122d3bd4ca0833e","69f10c5d5c1b9b3130e33fee","0.5","desktop","0","0","0","","","","","","luck_game","","null","<div id=""score-counter"">TOTAL SCORE: &pound;0.05</div><div class=""experiment-container""><div class=""center-zone""><div class=""cross""></div>
                <div style=""position: absolute; z-index: 10; display: flex; flex-direction: column; align-items: center; justify-content: center;"">
                    <div class=""lose-text"" style=""font-size: 48px; font-weight: bold; margin-bottom: 20px; text-shadow: 2px 2px 4px #000;"">LOSE</div>
                    <img src=""images/coin_no_reward.png"" class=""reward-img"" style=""background-color: black; border-radius: 50%;"">
                    <div class=""lose-text"" style=""font-size: 48px; font-weight: bold; margin-top: 20px; text-shadow: 2px 2px 4px #000;"">-0.05&pound;</div>
                </div></div></div>","null","","","","","","","","","","","","","","","","","","","","","","","","","","","","","","","",""
"html-keyboard-response","39","127208","0.0-5.0-47.0","6984a9246122d3bd4ca0833e","69f10c5d5c1b9b3130e33fee","0.5","desktop","0","0","0","","","","","","luck_game","","323","<div id=""score-counter"">TOTAL SCORE: &pound;0.05</div><div class=""experiment-container""><div class=""center-zone""><div class=""cross""></div><div class=""triangle-grid""><div class=""machine top-center blue""></div><div class=""machine bottom-left green-outline""></div><div class=""machine bottom-right red""></div></div></div></div>","arrowup","","","","gambling_choice","1","4","arrowup","top-center","blue","arrowleft","bottom-left","green","arrowleft","bottom-left","green","arrowright","bottom-right","red","0","0","0","0.05","-0.05","-0.05","true","false","","","","","",""
"html-keyboard-response","40","127318","0.0-5.0-48.0-0.0","6984a9246122d3bd4ca0833e","69f10c5d5c1b9b3130e33fee","0.5","desktop","0","0","0","","","","","","luck_game","","null","<div id=""score-counter"">TOTAL SCORE: &pound;0.05</div><div class=""experiment-container""><div class=""center-zone""><div class=""cross""></div><div class=""triangle-grid""><div class=""machine top-center blue""></div><div class=""machine bottom-left green-outline""></div><div class=""machine bottom-right red""></div></div></div></div>","null","","","","","","","","","","","","","","","","","","","","","","","","","","","","","","","",""
"html-keyboard-response","41","127831","0.0-5.0-49.0-0.0","6984a9246122d3bd4ca0833e","69f10c5d5c1b9b3130e33fee","0.5","desktop","0","0","0","","","","","","luck_game","","null","<div id=""score-counter"">TOTAL SCORE: &pound;0.05</div><div class=""experiment-container""><div class=""center-zone""><div class=""cross""></div></div></div>","null","","","","","","","","","","","","","","","","","","","","","","","","","","","","","","","",""
"html-keyboard-response","42","128843","0.0-5.0-50.0-0.0","6984a9246122d3bd4ca0833e","69f10c5d5c1b9b3130e33fee","0.5","desktop","0","0","0","","","","","","luck_game","","null","<div id=""score-counter"">TOTAL SCORE: &pound;0.00</div><div class=""experiment-container""><div class=""center-zone""><div class=""cross""></div>
                <div style=""position: absolute; z-index: 10; display: flex; flex-direction: column; align-items: center; justify-content: center;"">
                    <div class=""lose-text"" style=""font-size: 48px; font-weight: bold; margin-bottom: 20px; text-shadow: 2px 2px 4px #000;"">LOSE</div>
                    <img src=""images/coin_no_reward.png"" class=""reward-img"" style=""background-color: black; border-radius: 50%;"">
                    <div class=""lose-text"" style=""font-size: 48px; font-weight: bold; margin-top: 20px; text-shadow: 2px 2px 4px #000;"">-0.05&pound;</div>
                </div></div></div>","null","","","","","","","","","","","","","","","","","","","","","","","","","","","","","","","",""
"html-keyboard-response","43","129362","0.0-5.0-53.0","6984a9246122d3bd4ca0833e","69f10c5d5c1b9b3130e33fee","0.5","desktop","0","0","0","","","","","","luck_game","","517","<div id=""score-counter"">TOTAL SCORE: &pound;0.00</div><div class=""experiment-container""><div class=""center-zone""><div class=""cross""></div><div class=""triangle-grid""><div class=""machine top-center blue""></div><div class=""machine bottom-left green-outline""></div><div class=""machine bottom-right red""></div></div></div></div>","arrowup","","","","gambling_choice","1","5","arrowup","top-center","blue","arrowup","top-center","blue","arrowleft","bottom-left","green","arrowleft","bottom-left","green","0","0","0","0","-0.05","-0.05","true","false","","","","","",""
"html-keyboard-response","44","129465","0.0-5.0-54.0-0.0","6984a9246122d3bd4ca0833e","69f10c5d5c1b9b3130e33fee","0.5","desktop","0","0","0","","","","","","luck_game","","null","<div id=""score-counter"">TOTAL SCORE: &pound;0.00</div><div class=""experiment-container""><div class=""center-zone""><div class=""cross""></div><div class=""triangle-grid""><div class=""machine top-center blue""></div><div class=""machine bottom-left green-outline""></div><div class=""machine bottom-right red""></div></div></div></div>","null","","","","","","","","","","","","","","","","","","","","","","","","","","","","","","","",""
"html-keyboard-response","45","129978","0.0-5.0-55.0-0.0","6984a9246122d3bd4ca0833e","69f10c5d5c1b9b3130e33fee","0.5","desktop","0","0","0","","","","","","luck_game","","null","<div id=""score-counter"">TOTAL SCORE: &pound;0.00</div><div class=""experiment-container""><div class=""center-zone""><div class=""cross""></div></div></div>","null","","","","","","","","","","","","","","","","","","","","","","","","","","","","","","","",""
"html-keyboard-response","46","130985","0.0-5.0-56.0-0.0","6984a9246122d3bd4ca0833e","69f10c5d5c1b9b3130e33fee","0.5","desktop","0","0","0","","","","","","luck_game","","null","<div id=""score-counter"">TOTAL SCORE: &pound;0.00</div><div class=""experiment-container""><div class=""center-zone""><div class=""cross""></div>
                <div style=""position: absolute; z-index: 10; display: flex; flex-direction: column; align-items: center; justify-content: center;"">
                    <div class=""lose-text"" style=""font-size: 48px; font-weight: bold; margin-bottom: 20px; text-shadow: 2px 2px 4px #000;"">LOSE</div>
                    <img src=""images/coin_no_reward.png"" class=""reward-img"" style=""background-color: black; border-radius: 50%;"">
                    <div class=""lose-text"" style=""font-size: 48px; font-weight: bold; margin-top: 20px; text-shadow: 2px 2px 4px #000;"">-0.05&pound;</div>
                </div></div></div>","null","","","","","","","","","","","","","","","","","","","","","","","","","","","","","","","",""
"html-keyboard-response","47","131654","0.0-5.0-59.0","6984a9246122d3bd4ca0833e","69f10c5d5c1b9b3130e33fee","0.5","desktop","0","0","0","","","","","","luck_game","","667","<div id=""score-counter"">TOTAL SCORE: &pound;0.00</div><div class=""experiment-container""><div class=""center-zone""><div class=""cross""></div><div class=""triangle-grid""><div class=""machine top-center blue""></div><div class=""machine bottom-left green-outline""></div><div class=""machine bottom-right red""></div></div></div></div>","arrowup","","","","gambling_choice","1","6","arrowup","top-center","blue","arrowup","top-center","blue","arrowleft","bottom-left","green","arrowleft","bottom-left","green","0","0","0","0","-0.05","-0.05","true","false","","","","","",""
"html-keyboard-response","48","131765","0.0-5.0-60.0-0.0","6984a9246122d3bd4ca0833e","69f10c5d5c1b9b3130e33fee","0.5","desktop","0","0","0","","","","","","luck_game","","null","<div id=""score-counter"">TOTAL SCORE: &pound;0.00</div><div class=""experiment-container""><div class=""center-zone""><div class=""cross""></div><div class=""triangle-grid""><div class=""machine top-center blue""></div><div class=""machine bottom-left green-outline""></div><div class=""machine bottom-right red""></div></div></div></div>","null","","","","","","","","","","","","","","","","","","","","","","","","","","","","","","","",""
"html-keyboard-response","49","132277","0.0-5.0-61.0-0.0","6984a9246122d3bd4ca0833e","69f10c5d5c1b9b3130e33fee","0.5","desktop","0","0","0","","","","","","luck_game","","null","<div id=""score-counter"">TOTAL SCORE: &pound;0.00</div><div class=""experiment-container""><div class=""center-zone""><div class=""cross""></div></div></div>","null","","","","","","","","","","","","","","","","","","","","","","","","","","","","","","","",""
"html-keyboard-response","50","133284","0.0-5.0-62.0-0.0","6984a9246122d3bd4ca0833e","69f10c5d5c1b9b3130e33fee","0.5","desktop","0","0","0","","","","","","luck_game","","null","<div id=""score-counter"">TOTAL SCORE: &pound;0.00</div><div class=""experiment-container""><div class=""center-zone""><div class=""cross""></div>
                <div style=""position: absolute; z-index: 10; display: flex; flex-direction: column; align-items: center; justify-content: center;"">
                    <div class=""lose-text"" style=""font-size: 48px; font-weight: bold; margin-bottom: 20px; text-shadow: 2px 2px 4px #000;"">LOSE</div>
                    <img src=""images/coin_no_reward.png"" class=""reward-img"" style=""background-color: black; border-radius: 50%;"">
                    <div class=""lose-text"" style=""font-size: 48px; font-weight: bold; margin-top: 20px; text-shadow: 2px 2px 4px #000;"">-0.05&pound;</div>
                </div></div></div>","null","","","","","","","","","","","","","","","","","","","","","","","","","","","","","","","",""
"html-keyboard-response","51","133779","0.0-5.0-65.0","6984a9246122d3bd4ca0833e","69f10c5d5c1b9b3130e33fee","0.5","desktop","0","0","0","","","","","","luck_game","","493","<div id=""score-counter"">TOTAL SCORE: &pound;0.00</div><div class=""experiment-container""><div class=""center-zone""><div class=""cross""></div><div class=""triangle-grid""><div class=""machine top-center blue-outline""></div><div class=""machine bottom-left green""></div><div class=""machine bottom-right red""></div></div></div></div>","arrowleft","","","","gambling_choice","1","7","arrowleft","bottom-left","green","arrowup","top-center","blue","arrowup","top-center","blue","arrowleft","bottom-left","green","0","1","0.05","0","0.05","-0.05","true","false","","","","","",""
"html-keyboard-response","52","133889","0.0-5.0-66.0-0.0","6984a9246122d3bd4ca0833e","69f10c5d5c1b9b3130e33fee","0.5","desktop","0","0","0","","","","","","luck_game","","null","<div id=""score-counter"">TOTAL SCORE: &pound;0.00</div><div class=""experiment-container""><div class=""center-zone""><div class=""cross""></div><div class=""triangle-grid""><div class=""machine top-center blue-outline""></div><div class=""machine bottom-left green""></div><div class=""machine bottom-right red""></div></div></div></div>","null","","","","","","","","","","","","","","","","","","","","","","","","","","","","","","","",""
"html-keyboard-response","53","134398","0.0-5.0-67.0-0.0","6984a9246122d3bd4ca0833e","69f10c5d5c1b9b3130e33fee","0.5","desktop","0","0","0","","","","","","luck_game","","null","<div id=""score-counter"">TOTAL SCORE: &pound;0.00</div><div class=""experiment-container""><div class=""center-zone""><div class=""cross""></div></div></div>","null","","","","","","","","","","","","","","","","","","","","","","","","","","","","","","","",""
"html-keyboard-response","54","135410","0.0-5.0-68.0-0.0","6984a9246122d3bd4ca0833e","69f10c5d5c1b9b3130e33fee","0.5","desktop","0","0","0","","","","","","luck_game","","null","<div id=""score-counter"">TOTAL SCORE: &pound;0.05</div><div class=""experiment-container""><div class=""center-zone""><div class=""cross""></div>
                <div style=""position: absolute; z-index: 10; display: flex; flex-direction: column; align-items: center; justify-content: center;"">
                    <div class=""win-text"" style=""font-size: 48px; font-weight: bold; margin-bottom: 20px; text-shadow: 2px 2px 4px #000;"">WIN</div>
                    <img src=""images/coin_reward.png"" class=""reward-img"" style=""background-color: black; border-radius: 50%;"">
                    <div class=""win-text"" style=""font-size: 48px; font-weight: bold; margin-top: 20px; text-shadow: 2px 2px 4px #000;"">+0.05&pound;</div>
                </div></div></div>","null","","","","","","","","","","","","","","","","","","","","","","","","","","","","","","","",""
"html-keyboard-response","55","136289","0.0-5.0-71.0","6984a9246122d3bd4ca0833e","69f10c5d5c1b9b3130e33fee","0.5","desktop","0","0","0","","","","","","luck_game","","878","<div id=""score-counter"">TOTAL SCORE: &pound;0.05</div><div class=""experiment-container""><div class=""center-zone""><div class=""cross""></div><div class=""triangle-grid""><div class=""machine top-center blue""></div><div class=""machine bottom-left green-outline""></div><div class=""machine bottom-right red""></div></div></div></div>","arrowright","","","","gambling_choice","1","8","arrowright","bottom-right","red","arrowleft","bottom-left","green","arrowleft","bottom-left","green","arrowup","top-center","blue","1","0","0","0.05","-0.05","0.05","true","false","","","","","",""
"html-keyboard-response","56","136392","0.0-5.0-72.0-0.0","6984a9246122d3bd4ca0833e","69f10c5d5c1b9b3130e33fee","0.5","desktop","0","0","0","","","","","","luck_game","","null","<div id=""score-counter"">TOTAL SCORE: &pound;0.05</div><div class=""experiment-container""><div class=""center-zone""><div class=""cross""></div><div class=""triangle-grid""><div class=""machine top-center blue""></div><div class=""machine bottom-left green-outline""></div><div class=""machine bottom-right red""></div></div></div></div>","null","","","","","","","","","","","","","","","","","","","","","","","","","","","","","","","",""
"html-keyboard-response","57","136906","0.0-5.0-73.0-0.0","6984a9246122d3bd4ca0833e","69f10c5d5c1b9b3130e33fee","0.5","desktop","0","0","0","","","","","","luck_game","","null","<div id=""score-counter"">TOTAL SCORE: &pound;0.05</div><div class=""experiment-container""><div class=""center-zone""><div class=""cross""></div></div></div>","null","","","","","","","","","","","","","","","","","","","","","","","","","","","","","","","",""
"html-keyboard-response","58","137919","0.0-5.0-74.0-0.0","6984a9246122d3bd4ca0833e","69f10c5d5c1b9b3130e33fee","0.5","desktop","0","0","0","","","","","","luck_game","","null","<div id=""score-counter"">TOTAL SCORE: &pound;0.00</div><div class=""experiment-container""><div class=""center-zone""><div class=""cross""></div>
                <div style=""position: absolute; z-index: 10; display: flex; flex-direction: column; align-items: center; justify-content: center;"">
                    <div class=""lose-text"" style=""font-size: 48px; font-weight: bold; margin-bottom: 20px; text-shadow: 2px 2px 4px #000;"">LOSE</div>
                    <img src=""images/coin_no_reward.png"" class=""reward-img"" style=""background-color: black; border-radius: 50%;"">
                    <div class=""lose-text"" style=""font-size: 48px; font-weight: bold; margin-top: 20px; text-shadow: 2px 2px 4px #000;"">-0.05&pound;</div>
                </div></div></div>","null","","","","","","","","","","","","","","","","","","","","","","","","","","","","","","","",""
"html-keyboard-response","59","138344","0.0-5.0-77.0","6984a9246122d3bd4ca0833e","69f10c5d5c1b9b3130e33fee","0.5","desktop","0","0","0","","","","","","luck_game","","423","<div id=""score-counter"">TOTAL SCORE: &pound;0.00</div><div class=""experiment-container""><div class=""center-zone""><div class=""cross""></div><div class=""triangle-grid""><div class=""machine top-center blue-outline""></div><div class=""machine bottom-left green""></div><div class=""machine bottom-right red""></div></div></div></div>","arrowleft","","","","gambling_choice","1","9","arrowleft","bottom-left","green","arrowright","bottom-right","red","arrowup","top-center","blue","arrowleft","bottom-left","green","0","1","0.05","0","0.05","-0.05","true","false","","","","","",""
"html-keyboard-response","60","138446","0.0-5.0-78.0-0.0","6984a9246122d3bd4ca0833e","69f10c5d5c1b9b3130e33fee","0.5","desktop","0","0","0","","","","","","luck_game","","null","<div id=""score-counter"">TOTAL SCORE: &pound;0.00</div><div class=""experiment-container""><div class=""center-zone""><div class=""cross""></div><div class=""triangle-grid""><div class=""machine top-center blue-outline""></div><div class=""machine bottom-left green""></div><div class=""machine bottom-right red""></div></div></div></div>","null","","","","","","","","","","","","","","","","","","","","","","","","","","","","","","","",""
"html-keyboard-response","61","138959","0.0-5.0-79.0-0.0","6984a9246122d3bd4ca0833e","69f10c5d5c1b9b3130e33fee","0.5","desktop","0","0","0","","","","","","luck_game","","null","<div id=""score-counter"">TOTAL SCORE: &pound;0.00</div><div class=""experiment-container""><div class=""center-zone""><div class=""cross""></div></div></div>","null","","","","","","","","","","","","","","","","","","","","","","","","","","","","","","","",""
"html-keyboard-response","62","139971","0.0-5.0-80.0-0.0","6984a9246122d3bd4ca0833e","69f10c5d5c1b9b3130e33fee","0.5","desktop","0","0","0","","","","","","luck_game","","null","<div id=""score-counter"">TOTAL SCORE: &pound;0.05</div><div class=""experiment-container""><div class=""center-zone""><div class=""cross""></div>
                <div style=""position: absolute; z-index: 10; display: flex; flex-direction: column; align-items: center; justify-content: center;"">
                    <div class=""win-text"" style=""font-size: 48px; font-weight: bold; margin-bottom: 20px; text-shadow: 2px 2px 4px #000;"">WIN</div>
                    <img src=""images/coin_reward.png"" class=""reward-img"" style=""background-color: black; border-radius: 50%;"">
                    <div class=""win-text"" style=""font-size: 48px; font-weight: bold; margin-top: 20px; text-shadow: 2px 2px 4px #000;"">+0.05&pound;</div>
                </div></div></div>","null","","","","","","","","","","","","","","","","","","","","","","","","","","","","","","","",""
"html-keyboard-response","63","140515","0.0-5.0-83.0","6984a9246122d3bd4ca0833e","69f10c5d5c1b9b3130e33fee","0.5","desktop","0","0","0","","","","","","luck_game","","542","<div id=""score-counter"">TOTAL SCORE: &pound;0.05</div><div class=""experiment-container""><div class=""center-zone""><div class=""cross""></div><div class=""triangle-grid""><div class=""machine top-center blue""></div><div class=""machine bottom-left green-outline""></div><div class=""machine bottom-right red""></div></div></div></div>","arrowup","","","","gambling_choice","1","10","arrowup","top-center","blue","arrowleft","bottom-left","green","arrowleft","bottom-left","green","arrowup","top-center","blue","1","0","0","0.05","-0.05","0.05","true","false","","","","","",""
"html-keyboard-response","64","140624","0.0-5.0-84.0-0.0","6984a9246122d3bd4ca0833e","69f10c5d5c1b9b3130e33fee","0.5","desktop","0","0","0","","","","","","luck_game","","null","<div id=""score-counter"">TOTAL SCORE: &pound;0.05</div><div class=""experiment-container""><div class=""center-zone""><div class=""cross""></div><div class=""triangle-grid""><div class=""machine top-center blue""></div><div class=""machine bottom-left green-outline""></div><div class=""machine bottom-right red""></div></div></div></div>","null","","","","","","","","","","","","","","","","","","","","","","","","","","","","","","","",""
"html-keyboard-response","65","141139","0.0-5.0-85.0-0.0","6984a9246122d3bd4ca0833e","69f10c5d5c1b9b3130e33fee","0.5","desktop","0","0","0","","","","","","luck_game","","null","<div id=""score-counter"">TOTAL SCORE: &pound;0.05</div><div class=""experiment-container""><div class=""center-zone""><div class=""cross""></div></div></div>","null","","","","","","","","","","","","","","","","","","","","","","","","","","","","","","","",""
"html-keyboard-response","66","142150","0.0-5.0-86.0-0.0","6984a9246122d3bd4ca0833e","69f10c5d5c1b9b3130e33fee","0.5","desktop","0","0","0","","","","","","luck_game","","null","<div id=""score-counter"">TOTAL SCORE: &pound;0.00</div><div class=""experiment-container""><div class=""center-zone""><div class=""cross""></div>
                <div style=""position: absolute; z-index: 10; display: flex; flex-direction: column; align-items: center; justify-content: center;"">
                    <div class=""lose-text"" style=""font-size: 48px; font-weight: bold; margin-bottom: 20px; text-shadow: 2px 2px 4px #000;"">LOSE</div>
                    <img src=""images/coin_no_reward.png"" class=""reward-img"" style=""background-color: black; border-radius: 50%;"">
                    <div class=""lose-text"" style=""font-size: 48px; font-weight: bold; margin-top: 20px; text-shadow: 2px 2px 4px #000;"">-0.05&pound;</div>
                </div></div></div>","null","","","","","","","","","","","","","","","","","","","","","","","","","","","","","","","",""
"html-keyboard-response","67","142536","0.0-5.0-89.0","6984a9246122d3bd4ca0833e","69f10c5d5c1b9b3130e33fee","0.5","desktop","0","0","0","","","","","","luck_game","","384","<div id=""score-counter"">TOTAL SCORE: &pound;0.00</div><div class=""experiment-container""><div class=""center-zone""><div class=""cross""></div><div class=""triangle-grid""><div class=""machine top-center blue""></div><div class=""machine bottom-left green""></div><div class=""machine bottom-right red-outline""></div></div></div></div>","arrowleft","","","","gambling_choice","1","11","arrowleft","bottom-left","green","arrowup","top-center","blue","arrowright","bottom-right","red","arrowleft","bottom-left","green","0","0","0","0","-0.05","-0.05","true","false","","","","","",""
"html-keyboard-response","68","142648","0.0-5.0-90.0-0.0","6984a9246122d3bd4ca0833e","69f10c5d5c1b9b3130e33fee","0.5","desktop","0","0","0","","","","","","luck_game","","null","<div id=""score-counter"">TOTAL SCORE: &pound;0.00</div><div class=""experiment-container""><div class=""center-zone""><div class=""cross""></div><div class=""triangle-grid""><div class=""machine top-center blue""></div><div class=""machine bottom-left green""></div><div class=""machine bottom-right red-outline""></div></div></div></div>","null","","","","","","","","","","","","","","","","","","","","","","","","","","","","","","","",""
"html-keyboard-response","69","143161","0.0-5.0-91.0-0.0","6984a9246122d3bd4ca0833e","69f10c5d5c1b9b3130e33fee","0.5","desktop","0","0","0","","","","","","luck_game","","null","<div id=""score-counter"">TOTAL SCORE: &pound;0.00</div><div class=""experiment-container""><div class=""center-zone""><div class=""cross""></div></div></div>","null","","","","","","","","","","","","","","","","","","","","","","","","","","","","","","","",""
"html-keyboard-response","70","144171","0.0-5.0-92.0-0.0","6984a9246122d3bd4ca0833e","69f10c5d5c1b9b3130e33fee","0.5","desktop","0","0","0","","","","","","luck_game","","null","<div id=""score-counter"">TOTAL SCORE: &pound;0.00</div><div class=""experiment-container""><div class=""center-zone""><div class=""cross""></div>
                <div style=""position: absolute; z-index: 10; display: flex; flex-direction: column; align-items: center; justify-content: center;"">
                    <div class=""lose-text"" style=""font-size: 48px; font-weight: bold; margin-bottom: 20px; text-shadow: 2px 2px 4px #000;"">LOSE</div>
                    <img src=""images/coin_no_reward.png"" class=""reward-img"" style=""background-color: black; border-radius: 50%;"">
                    <div class=""lose-text"" style=""font-size: 48px; font-weight: bold; margin-top: 20px; text-shadow: 2px 2px 4px #000;"">-0.05&pound;</div>
                </div></div></div>","null","","","","","","","","","","","","","","","","","","","","","","","","","","","","","","","",""
"html-keyboard-response","71","144603","0.0-5.0-95.0","6984a9246122d3bd4ca0833e","69f10c5d5c1b9b3130e33fee","0.5","desktop","0","0","0","","","","","","luck_game","","430","<div id=""score-counter"">TOTAL SCORE: &pound;0.00</div><div class=""experiment-container""><div class=""center-zone""><div class=""cross""></div><div class=""triangle-grid""><div class=""machine top-center blue""></div><div class=""machine bottom-left green""></div><div class=""machine bottom-right red-outline""></div></div></div></div>","arrowup","","","","gambling_choice","1","12","arrowup","top-center","blue","arrowleft","bottom-left","green","arrowright","bottom-right","red","arrowright","bottom-right","red","0","0","0","0","-0.05","-0.05","true","false","","","","","",""
"html-keyboard-response","72","144711","0.0-5.0-96.0-0.0","6984a9246122d3bd4ca0833e","69f10c5d5c1b9b3130e33fee","0.5","desktop","0","0","0","","","","","","luck_game","","null","<div id=""score-counter"">TOTAL SCORE: &pound;0.00</div><div class=""experiment-container""><div class=""center-zone""><div class=""cross""></div><div class=""triangle-grid""><div class=""machine top-center blue""></div><div class=""machine bottom-left green""></div><div class=""machine bottom-right red-outline""></div></div></div></div>","null","","","","","","","","","","","","","","","","","","","","","","","","","","","","","","","",""
"html-keyboard-response","73","145222","0.0-5.0-97.0-0.0","6984a9246122d3bd4ca0833e","69f10c5d5c1b9b3130e33fee","0.5","desktop","0","0","0","","","","","","luck_game","","null","<div id=""score-counter"">TOTAL SCORE: &pound;0.00</div><div class=""experiment-container""><div class=""center-zone""><div class=""cross""></div></div></div>","null","","","","","","","","","","","","","","","","","","","","","","","","","","","","","","","",""
"html-keyboard-response","74","146233","0.0-5.0-98.0-0.0","6984a9246122d3bd4ca0833e","69f10c5d5c1b9b3130e33fee","0.5","desktop","0","0","0","","","","","","luck_game","","null","<div id=""score-counter"">TOTAL SCORE: &pound;0.00</div><div class=""experiment-container""><div class=""center-zone""><div class=""cross""></div>
                <div style=""position: absolute; z-index: 10; display: flex; flex-direction: column; align-items: center; justify-content: center;"">
                    <div class=""lose-text"" style=""font-size: 48px; font-weight: bold; margin-bottom: 20px; text-shadow: 2px 2px 4px #000;"">LOSE</div>
                    <img src=""images/coin_no_reward.png"" class=""reward-img"" style=""background-color: black; border-radius: 50%;"">
                    <div class=""lose-text"" style=""font-size: 48px; font-weight: bold; margin-top: 20px; text-shadow: 2px 2px 4px #000;"">-0.05&pound;</div>
                </div></div></div>","null","","","","","","","","","","","","","","","","","","","","","","","","","","","","","","","",""
"html-keyboard-response","75","149401","0.0-5.0-101.0","6984a9246122d3bd4ca0833e","69f10c5d5c1b9b3130e33fee","0.5","desktop","0","0","0","","","","","","luck_game","","3167","<div id=""score-counter"">TOTAL SCORE: &pound;0.00</div><div class=""experiment-container""><div class=""center-zone""><div class=""cross""></div><div class=""triangle-grid""><div class=""machine top-center blue""></div><div class=""machine bottom-left green-outline""></div><div class=""machine bottom-right red""></div></div></div></div>","arrowup","","","","gambling_choice","1","13","arrowup","top-center","blue","arrowup","top-center","blue","arrowleft","bottom-left","green","arrowright","bottom-right","red","0","0","0","0","-0.05","-0.05","true","false","","","","","",""
"html-keyboard-response","76","149515","0.0-5.0-102.0-0.0","6984a9246122d3bd4ca0833e","69f10c5d5c1b9b3130e33fee","0.5","desktop","0","0","0","","","","","","luck_game","","null","<div id=""score-counter"">TOTAL SCORE: &pound;0.00</div><div class=""experiment-container""><div class=""center-zone""><div class=""cross""></div><div class=""triangle-grid""><div class=""machine top-center blue""></div><div class=""machine bottom-left green-outline""></div><div class=""machine bottom-right red""></div></div></div></div>","null","","","","","","","","","","","","","","","","","","","","","","","","","","","","","","","",""
"html-keyboard-response","77","150027","0.0-5.0-103.0-0.0","6984a9246122d3bd4ca0833e","69f10c5d5c1b9b3130e33fee","0.5","desktop","0","0","0","","","","","","luck_game","","null","<div id=""score-counter"">TOTAL SCORE: &pound;0.00</div><div class=""experiment-container""><div class=""center-zone""><div class=""cross""></div></div></div>","null","","","","","","","","","","","","","","","","","","","","","","","","","","","","","","","",""
"html-keyboard-response","78","151037","0.0-5.0-104.0-0.0","6984a9246122d3bd4ca0833e","69f10c5d5c1b9b3130e33fee","0.5","desktop","0","0","0","","","","","","luck_game","","null","<div id=""score-counter"">TOTAL SCORE: &pound;0.00</div><div class=""experiment-container""><div class=""center-zone""><div class=""cross""></div>
                <div style=""position: absolute; z-index: 10; display: flex; flex-direction: column; align-items: center; justify-content: center;"">
                    <div class=""lose-text"" style=""font-size: 48px; font-weight: bold; margin-bottom: 20px; text-shadow: 2px 2px 4px #000;"">LOSE</div>
                    <img src=""images/coin_no_reward.png"" class=""reward-img"" style=""background-color: black; border-radius: 50%;"">
                    <div class=""lose-text"" style=""font-size: 48px; font-weight: bold; margin-top: 20px; text-shadow: 2px 2px 4px #000;"">-0.05&pound;</div>
                </div></div></div>","null","","","","","","","","","","","","","","","","","","","","","","","","","","","","","","","",""
"html-keyboard-response","79","151429","0.0-5.0-107.0","6984a9246122d3bd4ca0833e","69f10c5d5c1b9b3130e33fee","0.5","desktop","0","0","0","","","","","","luck_game","","390","<div id=""score-counter"">TOTAL SCORE: &pound;0.00</div><div class=""experiment-container""><div class=""center-zone""><div class=""cross""></div><div class=""triangle-grid""><div class=""machine top-center blue""></div><div class=""machine bottom-left green""></div><div class=""machine bottom-right red-outline""></div></div></div></div>","arrowleft","","","","gambling_choice","1","14","arrowleft","bottom-left","green","arrowup","top-center","blue","arrowright","bottom-right","red","arrowleft","bottom-left","green","0","0","0","0","-0.05","-0.05","true","false","","","","","",""
"html-keyboard-response","80","151535","0.0-5.0-108.0-0.0","6984a9246122d3bd4ca0833e","69f10c5d5c1b9b3130e33fee","0.5","desktop","0","0","0","","","","","","luck_game","","null","<div id=""score-counter"">TOTAL SCORE: &pound;0.00</div><div class=""experiment-container""><div class=""center-zone""><div class=""cross""></div><div class=""triangle-grid""><div class=""machine top-center blue""></div><div class=""machine bottom-left green""></div><div class=""machine bottom-right red-outline""></div></div></div></div>","null","","","","","","","","","","","","","","","","","","","","","","","","","","","","","","","",""
"html-keyboard-response","81","152049","0.0-5.0-109.0-0.0","6984a9246122d3bd4ca0833e","69f10c5d5c1b9b3130e33fee","0.5","desktop","0","0","0","","","","","","luck_game","","null","<div id=""score-counter"">TOTAL SCORE: &pound;0.00</div><div class=""experiment-container""><div class=""center-zone""><div class=""cross""></div></div></div>","null","","","","","","","","","","","","","","","","","","","","","","","","","","","","","","","",""
"html-keyboard-response","82","153061","0.0-5.0-110.0-0.0","6984a9246122d3bd4ca0833e","69f10c5d5c1b9b3130e33fee","0.5","desktop","0","0","0","","","","","","luck_game","","null","<div id=""score-counter"">TOTAL SCORE: &pound;0.00</div><div class=""experiment-container""><div class=""center-zone""><div class=""cross""></div>
                <div style=""position: absolute; z-index: 10; display: flex; flex-direction: column; align-items: center; justify-content: center;"">
                    <div class=""lose-text"" style=""font-size: 48px; font-weight: bold; margin-bottom: 20px; text-shadow: 2px 2px 4px #000;"">LOSE</div>
                    <img src=""images/coin_no_reward.png"" class=""reward-img"" style=""background-color: black; border-radius: 50%;"">
                    <div class=""lose-text"" style=""font-size: 48px; font-weight: bold; margin-top: 20px; text-shadow: 2px 2px 4px #000;"">-0.05&pound;</div>
                </div></div></div>","null","","","","","","","","","","","","","","","","","","","","","","","","","","","","","","","",""
"html-keyboard-response","83","153565","0.0-5.0-113.0","6984a9246122d3bd4ca0833e","69f10c5d5c1b9b3130e33fee","0.5","desktop","0","0","0","","","","","","luck_game","","502","<div id=""score-counter"">TOTAL SCORE: &pound;0.00</div><div class=""experiment-container""><div class=""center-zone""><div class=""cross""></div><div class=""triangle-grid""><div class=""machine top-center blue-outline""></div><div class=""machine bottom-left green""></div><div class=""machine bottom-right red""></div></div></div></div>","arrowleft","","","","gambling_choice","1","15","arrowleft","bottom-left","green","arrowleft","bottom-left","green","arrowup","top-center","blue","arrowright","bottom-right","red","0","1","0.05","0","0.05","-0.05","true","false","","","","","",""
"html-keyboard-response","84","153671","0.0-5.0-114.0-0.0","6984a9246122d3bd4ca0833e","69f10c5d5c1b9b3130e33fee","0.5","desktop","0","0","0","","","","","","luck_game","","null","<div id=""score-counter"">TOTAL SCORE: &pound;0.00</div><div class=""experiment-container""><div class=""center-zone""><div class=""cross""></div><div class=""triangle-grid""><div class=""machine top-center blue-outline""></div><div class=""machine bottom-left green""></div><div class=""machine bottom-right red""></div></div></div></div>","null","","","","","","","","","","","","","","","","","","","","","","","","","","","","","","","",""
"html-keyboard-response","85","154182","0.0-5.0-115.0-0.0","6984a9246122d3bd4ca0833e","69f10c5d5c1b9b3130e33fee","0.5","desktop","0","0","0","","","","","","luck_game","","null","<div id=""score-counter"">TOTAL SCORE: &pound;0.00</div><div class=""experiment-container""><div class=""center-zone""><div class=""cross""></div></div></div>","null","","","","","","","","","","","","","","","","","","","","","","","","","","","","","","","",""
"html-keyboard-response","86","155198","0.0-5.0-116.0-0.0","6984a9246122d3bd4ca0833e","69f10c5d5c1b9b3130e33fee","0.5","desktop","0","0","0","","","","","","luck_game","","null","<div id=""score-counter"">TOTAL SCORE: &pound;0.05</div><div class=""experiment-container""><div class=""center-zone""><div class=""cross""></div>
                <div style=""position: absolute; z-index: 10; display: flex; flex-direction: column; align-items: center; justify-content: center;"">
                    <div class=""win-text"" style=""font-size: 48px; font-weight: bold; margin-bottom: 20px; text-shadow: 2px 2px 4px #000;"">WIN</div>
                    <img src=""images/coin_reward.png"" class=""reward-img"" style=""background-color: black; border-radius: 50%;"">
                    <div class=""win-text"" style=""font-size: 48px; font-weight: bold; margin-top: 20px; text-shadow: 2px 2px 4px #000;"">+0.05&pound;</div>
                </div></div></div>","null","","","","","","","","","","","","","","","","","","","","","","","","","","","","","","","",""
"html-keyboard-response","87","155720","0.0-5.0-119.0","6984a9246122d3bd4ca0833e","69f10c5d5c1b9b3130e33fee","0.5","desktop","0","0","0","","","","","","luck_game","","521","<div id=""score-counter"">TOTAL SCORE: &pound;0.05</div><div class=""experiment-container""><div class=""center-zone""><div class=""cross""></div><div class=""triangle-grid""><div class=""machine top-center blue""></div><div class=""machine bottom-left green-outline""></div><div class=""machine bottom-right red""></div></div></div></div>","arrowup","","","","gambling_choice","1","16","arrowup","top-center","blue","arrowleft","bottom-left","green","arrowleft","bottom-left","green","arrowup","top-center","blue","1","1","0.1","0.05","0.05","0.05","true","false","","","","","",""
"html-keyboard-response","88","155833","0.0-5.0-120.0-0.0","6984a9246122d3bd4ca0833e","69f10c5d5c1b9b3130e33fee","0.5","desktop","0","0","0","","","","","","luck_game","","null","<div id=""score-counter"">TOTAL SCORE: &pound;0.05</div><div class=""experiment-container""><div class=""center-zone""><div class=""cross""></div><div class=""triangle-grid""><div class=""machine top-center blue""></div><div class=""machine bottom-left green-outline""></div><div class=""machine bottom-right red""></div></div></div></div>","null","","","","","","","","","","","","","","","","","","","","","","","","","","","","","","","",""
"html-keyboard-response","89","156347","0.0-5.0-121.0-0.0","6984a9246122d3bd4ca0833e","69f10c5d5c1b9b3130e33fee","0.5","desktop","0","0","0","","","","","","luck_game","","null","<div id=""score-counter"">TOTAL SCORE: &pound;0.05</div><div class=""experiment-container""><div class=""center-zone""><div class=""cross""></div></div></div>","null","","","","","","","","","","","","","","","","","","","","","","","","","","","","","","","",""
"html-keyboard-response","90","157361","0.0-5.0-122.0-0.0","6984a9246122d3bd4ca0833e","69f10c5d5c1b9b3130e33fee","0.5","desktop","0","0","0","","","","","","luck_game","","null","<div id=""score-counter"">TOTAL SCORE: &pound;0.10</div><div class=""experiment-container""><div class=""center-zone""><div class=""cross""></div>
                <div style=""position: absolute; z-index: 10; display: flex; flex-direction: column; align-items: center; justify-content: center;"">
                    <div class=""win-text"" style=""font-size: 48px; font-weight: bold; margin-bottom: 20px; text-shadow: 2px 2px 4px #000;"">WIN</div>
                    <img src=""images/coin_reward.png"" class=""reward-img"" style=""background-color: black; border-radius: 50%;"">
                    <div class=""win-text"" style=""font-size: 48px; font-weight: bold; margin-top: 20px; text-shadow: 2px 2px 4px #000;"">+0.05&pound;</div>
                </div></div></div>","null","","","","","","","","","","","","","","","","","","","","","","","","","","","","","","","",""
"html-keyboard-response","91","157762","0.0-5.0-125.0","6984a9246122d3bd4ca0833e","69f10c5d5c1b9b3130e33fee","0.5","desktop","0","0","0","","","","","","luck_game","","399","<div id=""score-counter"">TOTAL SCORE: &pound;0.10</div><div class=""experiment-container""><div class=""center-zone""><div class=""cross""></div><div class=""triangle-grid""><div class=""machine top-center blue""></div><div class=""machine bottom-left green-outline""></div><div class=""machine bottom-right red""></div></div></div></div>","arrowup","","","","gambling_choice","1","17","arrowup","top-center","blue","arrowup","top-center","blue","arrowleft","bottom-left","green","arrowleft","bottom-left","green","1","1","0.15","0.1","0.05","0.05","true","false","","","","","",""
"html-keyboard-response","92","157874","0.0-5.0-126.0-0.0","6984a9246122d3bd4ca0833e","69f10c5d5c1b9b3130e33fee","0.5","desktop","0","0","0","","","","","","luck_game","","null","<div id=""score-counter"">TOTAL SCORE: &pound;0.10</div><div class=""experiment-container""><div class=""center-zone""><div class=""cross""></div><div class=""triangle-grid""><div class=""machine top-center blue""></div><div class=""machine bottom-left green-outline""></div><div class=""machine bottom-right red""></div></div></div></div>","null","","","","","","","","","","","","","","","","","","","","","","","","","","","","","","","",""
"html-keyboard-response","93","158390","0.0-5.0-127.0-0.0","6984a9246122d3bd4ca0833e","69f10c5d5c1b9b3130e33fee","0.5","desktop","0","0","0","","","","","","luck_game","","null","<div id=""score-counter"">TOTAL SCORE: &pound;0.10</div><div class=""experiment-container""><div class=""center-zone""><div class=""cross""></div></div></div>","null","","","","","","","","","","","","","","","","","","","","","","","","","","","","","","","",""
"html-keyboard-response","94","159404","0.0-5.0-128.0-0.0","6984a9246122d3bd4ca0833e","69f10c5d5c1b9b3130e33fee","0.5","desktop","0","0","0","","","","","","luck_game","","null","<div id=""score-counter"">TOTAL SCORE: &pound;0.15</div><div class=""experiment-container""><div class=""center-zone""><div class=""cross""></div>
                <div style=""position: absolute; z-index: 10; display: flex; flex-direction: column; align-items: center; justify-content: center;"">
                    <div class=""win-text"" style=""font-size: 48px; font-weight: bold; margin-bottom: 20px; text-shadow: 2px 2px 4px #000;"">WIN</div>
                    <img src=""images/coin_reward.png"" class=""reward-img"" style=""background-color: black; border-radius: 50%;"">
                    <div class=""win-text"" style=""font-size: 48px; font-weight: bold; margin-top: 20px; text-shadow: 2px 2px 4px #000;"">+0.05&pound;</div>
                </div></div></div>","null","","","","","","","","","","","","","","","","","","","","","","","","","","","","","","","",""
"html-keyboard-response","95","159846","0.0-5.0-131.0","6984a9246122d3bd4ca0833e","69f10c5d5c1b9b3130e33fee","0.5","desktop","0","0","0","","","","","","luck_game","","440","<div id=""score-counter"">TOTAL SCORE: &pound;0.15</div><div class=""experiment-container""><div class=""center-zone""><div class=""cross""></div><div class=""triangle-grid""><div class=""machine top-center blue""></div><div class=""machine bottom-left green-outline""></div><div class=""machine bottom-right red""></div></div></div></div>","arrowup","","","","gambling_choice","1","18","arrowup","top-center","blue","arrowup","top-center","blue","arrowleft","bottom-left","green","arrowleft","bottom-left","green","1","1","0.2","0.15","0.05","0.05","true","false","","","","","",""
"html-keyboard-response","96","159948","0.0-5.0-132.0-0.0","6984a9246122d3bd4ca0833e","69f10c5d5c1b9b3130e33fee","0.5","desktop","0","0","0","","","","","","luck_game","","null","<div id=""score-counter"">TOTAL SCORE: &pound;0.15</div><div class=""experiment-container""><div class=""center-zone""><div class=""cross""></div><div class=""triangle-grid""><div class=""machine top-center blue""></div><div class=""machine bottom-left green-outline""></div><div class=""machine bottom-right red""></div></div></div></div>","null","","","","","","","","","","","","","","","","","","","","","","","","","","","","","","","",""
"html-keyboard-response","97","160459","0.0-5.0-133.0-0.0","6984a9246122d3bd4ca0833e","69f10c5d5c1b9b3130e33fee","0.5","desktop","0","0","0","","","","","","luck_game","","null","<div id=""score-counter"">TOTAL SCORE: &pound;0.15</div><div class=""experiment-container""><div class=""center-zone""><div class=""cross""></div></div></div>","null","","","","","","","","","","","","","","","","","","","","","","","","","","","","","","","",""
"html-keyboard-response","98","161470","0.0-5.0-134.0-0.0","6984a9246122d3bd4ca0833e","69f10c5d5c1b9b3130e33fee","0.5","desktop","0","0","0","","","","","","luck_game","","null","<div id=""score-counter"">TOTAL SCORE: &pound;0.20</div><div class=""experiment-container""><div class=""center-zone""><div class=""cross""></div>
                <div style=""position: absolute; z-index: 10; display: flex; flex-direction: column; align-items: center; justify-content: center;"">
                    <div class=""win-text"" style=""font-size: 48px; font-weight: bold; margin-bottom: 20px; text-shadow: 2px 2px 4px #000;"">WIN</div>
                    <img src=""images/coin_reward.png"" class=""reward-img"" style=""background-color: black; border-radius: 50%;"">
                    <div class=""win-text"" style=""font-size: 48px; font-weight: bold; margin-top: 20px; text-shadow: 2px 2px 4px #000;"">+0.05&pound;</div>
                </div></div></div>","null","","","","","","","","","","","","","","","","","","","","","","","","","","","","","","","",""
"html-keyboard-response","99","161897","0.0-5.0-137.0","6984a9246122d3bd4ca0833e","69f10c5d5c1b9b3130e33fee","0.5","desktop","0","0","0","","","","","","luck_game","","425","<div id=""score-counter"">TOTAL SCORE: &pound;0.20</div><div class=""experiment-container""><div class=""center-zone""><div class=""cross""></div><div class=""triangle-grid""><div class=""machine top-center blue-outline""></div><div class=""machine bottom-left green""></div><div class=""machine bottom-right red""></div></div></div></div>","arrowleft","","","","gambling_choice","1","19","arrowleft","bottom-left","green","arrowup","top-center","blue","arrowup","top-center","blue","arrowleft","bottom-left","green","1","1","0.25","0.2","0.05","0.05","true","false","","","","","",""
"html-keyboard-response","100","162013","0.0-5.0-138.0-0.0","6984a9246122d3bd4ca0833e","69f10c5d5c1b9b3130e33fee","0.5","desktop","0","0","0","","","","","","luck_game","","null","<div id=""score-counter"">TOTAL SCORE: &pound;0.20</div><div class=""experiment-container""><div class=""center-zone""><div class=""cross""></div><div class=""triangle-grid""><div class=""machine top-center blue-outline""></div><div class=""machine bottom-left green""></div><div class=""machine bottom-right red""></div></div></div></div>","null","","","","","","","","","","","","","","","","","","","","","","","","","","","","","","","",""
"html-keyboard-response","101","162528","0.0-5.0-139.0-0.0","6984a9246122d3bd4ca0833e","69f10c5d5c1b9b3130e33fee","0.5","desktop","0","0","0","","","","","","luck_game","","null","<div id=""score-counter"">TOTAL SCORE: &pound;0.20</div><div class=""experiment-container""><div class=""center-zone""><div class=""cross""></div></div></div>","null","","","","","","","","","","","","","","","","","","","","","","","","","","","","","","","",""
"html-keyboard-response","102","163540","0.0-5.0-140.0-0.0","6984a9246122d3bd4ca0833e","69f10c5d5c1b9b3130e33fee","0.5","desktop","0","0","0","","","","","","luck_game","","null","<div id=""score-counter"">TOTAL SCORE: &pound;0.25</div><div class=""experiment-container""><div class=""center-zone""><div class=""cross""></div>
                <div style=""position: absolute; z-index: 10; display: flex; flex-direction: column; align-items: center; justify-content: center;"">
                    <div class=""win-text"" style=""font-size: 48px; font-weight: bold; margin-bottom: 20px; text-shadow: 2px 2px 4px #000;"">WIN</div>
                    <img src=""images/coin_reward.png"" class=""reward-img"" style=""background-color: black; border-radius: 50%;"">
                    <div class=""win-text"" style=""font-size: 48px; font-weight: bold; margin-top: 20px; text-shadow: 2px 2px 4px #000;"">+0.05&pound;</div>
                </div></div></div>","null","","","","","","","","","","","","","","","","","","","","","","","","","","","","","","","",""
"html-keyboard-response","103","163948","0.0-5.0-143.0","6984a9246122d3bd4ca0833e","69f10c5d5c1b9b3130e33fee","0.5","desktop","0","0","0","","","","","","luck_game","","406","<div id=""score-counter"">TOTAL SCORE: &pound;0.25</div><div class=""experiment-container""><div class=""center-zone""><div class=""cross""></div><div class=""triangle-grid""><div class=""machine top-center blue-outline""></div><div class=""machine bottom-left green""></div><div class=""machine bottom-right red""></div></div></div></div>","arrowleft","","","","gambling_choice","1","20","arrowleft","bottom-left","green","arrowleft","bottom-left","green","arrowup","top-center","blue","arrowup","top-center","blue","1","0","0.2","0.25","-0.05","0.05","true","false","","","","","",""
"html-keyboard-response","104","164052","0.0-5.0-144.0-0.0","6984a9246122d3bd4ca0833e","69f10c5d5c1b9b3130e33fee","0.5","desktop","0","0","0","","","","","","luck_game","","null","<div id=""score-counter"">TOTAL SCORE: &pound;0.25</div><div class=""experiment-container""><div class=""center-zone""><div class=""cross""></div><div class=""triangle-grid""><div class=""machine top-center blue-outline""></div><div class=""machine bottom-left green""></div><div class=""machine bottom-right red""></div></div></div></div>","null","","","","","","","","","","","","","","","","","","","","","","","","","","","","","","","",""
"html-keyboard-response","105","164564","0.0-5.0-145.0-0.0","6984a9246122d3bd4ca0833e","69f10c5d5c1b9b3130e33fee","0.5","desktop","0","0","0","","","","","","luck_game","","null","<div id=""score-counter"">TOTAL SCORE: &pound;0.25</div><div class=""experiment-container""><div class=""center-zone""><div class=""cross""></div></div></div>","null","","","","","","","","","","","","","","","","","","","","","","","","","","","","","","","",""
"html-keyboard-response","106","165575","0.0-5.0-146.0-0.0","6984a9246122d3bd4ca0833e","69f10c5d5c1b9b3130e33fee","0.5","desktop","0","0","0","","","","","","luck_game","","null","<div id=""score-counter"">TOTAL SCORE: &pound;0.20</div><div class=""experiment-container""><div class=""center-zone""><div class=""cross""></div>
                <div style=""position: absolute; z-index: 10; display: flex; flex-direction: column; align-items: center; justify-content: center;"">
                    <div class=""lose-text"" style=""font-size: 48px; font-weight: bold; margin-bottom: 20px; text-shadow: 2px 2px 4px #000;"">LOSE</div>
                    <img src=""images/coin_no_reward.png"" class=""reward-img"" style=""background-color: black; border-radius: 50%;"">
                    <div class=""lose-text"" style=""font-size: 48px; font-weight: bold; margin-top: 20px; text-shadow: 2px 2px 4px #000;"">-0.05&pound;</div>
                </div></div></div>","null","","","","","","","","","","","","","","","","","","","","","","","","","","","","","","","",""
"html-keyboard-response","107","166018","0.0-5.0-149.0","6984a9246122d3bd4ca0833e","69f10c5d5c1b9b3130e33fee","0.5","desktop","0","0","0","","","","","","luck_game","","442","<div id=""score-counter"">TOTAL SCORE: &pound;0.20</div><div class=""experiment-container""><div class=""center-zone""><div class=""cross""></div><div class=""triangle-grid""><div class=""machine top-center blue""></div><div class=""machine bottom-left green-outline""></div><div class=""machine bottom-right red""></div></div></div></div>","arrowup","","","","gambling_choice","1","21","arrowup","top-center","blue","arrowleft","bottom-left","green","arrowleft","bottom-left","green","arrowup","top-center","blue","0","0","0.15","0.2","-0.05","-0.05","true","false","","","","","",""
"html-keyboard-response","108","166136","0.0-5.0-150.0-0.0","6984a9246122d3bd4ca0833e","69f10c5d5c1b9b3130e33fee","0.5","desktop","0","0","0","","","","","","luck_game","","null","<div id=""score-counter"">TOTAL SCORE: &pound;0.20</div><div class=""experiment-container""><div class=""center-zone""><div class=""cross""></div><div class=""triangle-grid""><div class=""machine top-center blue""></div><div class=""machine bottom-left green-outline""></div><div class=""machine bottom-right red""></div></div></div></div>","null","","","","","","","","","","","","","","","","","","","","","","","","","","","","","","","",""
"html-keyboard-response","109","166648","0.0-5.0-151.0-0.0","6984a9246122d3bd4ca0833e","69f10c5d5c1b9b3130e33fee","0.5","desktop","0","0","0","","","","","","luck_game","","null","<div id=""score-counter"">TOTAL SCORE: &pound;0.20</div><div class=""experiment-container""><div class=""center-zone""><div class=""cross""></div></div></div>","null","","","","","","","","","","","","","","","","","","","","","","","","","","","","","","","",""
"html-keyboard-response","110","167660","0.0-5.0-152.0-0.0","6984a9246122d3bd4ca0833e","69f10c5d5c1b9b3130e33fee","0.5","desktop","0","0","0","","","","","","luck_game","","null","<div id=""score-counter"">TOTAL SCORE: &pound;0.15</div><div class=""experiment-container""><div class=""center-zone""><div class=""cross""></div>
                <div style=""position: absolute; z-index: 10; display: flex; flex-direction: column; align-items: center; justify-content: center;"">
                    <div class=""lose-text"" style=""font-size: 48px; font-weight: bold; margin-bottom: 20px; text-shadow: 2px 2px 4px #000;"">LOSE</div>
                    <img src=""images/coin_no_reward.png"" class=""reward-img"" style=""background-color: black; border-radius: 50%;"">
                    <div class=""lose-text"" style=""font-size: 48px; font-weight: bold; margin-top: 20px; text-shadow: 2px 2px 4px #000;"">-0.05&pound;</div>
                </div></div></div>","null","","","","","","","","","","","","","","","","","","","","","","","","","","","","","","","",""
"html-keyboard-response","111","168098","0.0-5.0-155.0","6984a9246122d3bd4ca0833e","69f10c5d5c1b9b3130e33fee","0.5","desktop","0","0","0","","","","","","luck_game","","437","<div id=""score-counter"">TOTAL SCORE: &pound;0.15</div><div class=""experiment-container""><div class=""center-zone""><div class=""cross""></div><div class=""triangle-grid""><div class=""machine top-center blue""></div><div class=""machine bottom-left green""></div><div class=""machine bottom-right red-outline""></div></div></div></div>","arrowleft","","","","gambling_choice","1","22","arrowleft","bottom-left","green","arrowup","top-center","blue","arrowright","bottom-right","red","arrowleft","bottom-left","green","0","0","0.1","0.15","-0.05","-0.05","true","false","","","","","",""
"html-keyboard-response","112","168202","0.0-5.0-156.0-0.0","6984a9246122d3bd4ca0833e","69f10c5d5c1b9b3130e33fee","0.5","desktop","0","0","0","","","","","","luck_game","","null","<div id=""score-counter"">TOTAL SCORE: &pound;0.15</div><div class=""experiment-container""><div class=""center-zone""><div class=""cross""></div><div class=""triangle-grid""><div class=""machine top-center blue""></div><div class=""machine bottom-left green""></div><div class=""machine bottom-right red-outline""></div></div></div></div>","null","","","","","","","","","","","","","","","","","","","","","","","","","","","","","","","",""
"html-keyboard-response","113","168713","0.0-5.0-157.0-0.0","6984a9246122d3bd4ca0833e","69f10c5d5c1b9b3130e33fee","0.5","desktop","0","0","0","","","","","","luck_game","","null","<div id=""score-counter"">TOTAL SCORE: &pound;0.15</div><div class=""experiment-container""><div class=""center-zone""><div class=""cross""></div></div></div>","null","","","","","","","","","","","","","","","","","","","","","","","","","","","","","","","",""
"html-keyboard-response","114","169725","0.0-5.0-158.0-0.0","6984a9246122d3bd4ca0833e","69f10c5d5c1b9b3130e33fee","0.5","desktop","0","0","0","","","","","","luck_game","","null","<div id=""score-counter"">TOTAL SCORE: &pound;0.10</div><div class=""experiment-container""><div class=""center-zone""><div class=""cross""></div>
                <div style=""position: absolute; z-index: 10; display: flex; flex-direction: column; align-items: center; justify-content: center;"">
                    <div class=""lose-text"" style=""font-size: 48px; font-weight: bold; margin-bottom: 20px; text-shadow: 2px 2px 4px #000;"">LOSE</div>
                    <img src=""images/coin_no_reward.png"" class=""reward-img"" style=""background-color: black; border-radius: 50%;"">
                    <div class=""lose-text"" style=""font-size: 48px; font-weight: bold; margin-top: 20px; text-shadow: 2px 2px 4px #000;"">-0.05&pound;</div>
                </div></div></div>","null","","","","","","","","","","","","","","","","","","","","","","","","","","","","","","","",""
"html-keyboard-response","115","170226","0.0-5.0-161.0","6984a9246122d3bd4ca0833e","69f10c5d5c1b9b3130e33fee","0.5","desktop","0","0","0","","","","","","luck_game","","498","<div id=""score-counter"">TOTAL SCORE: &pound;0.10</div><div class=""experiment-container""><div class=""center-zone""><div class=""cross""></div><div class=""triangle-grid""><div class=""machine top-center blue-outline""></div><div class=""machine bottom-left green""></div><div class=""machine bottom-right red""></div></div></div></div>","arrowleft","","","","gambling_choice","1","23","arrowleft","bottom-left","green","arrowleft","bottom-left","green","arrowup","top-center","blue","arrowright","bottom-right","red","0","1","0.15","0.1","0.05","-0.05","true","false","","","","","",""
"html-keyboard-response","116","170333","0.0-5.0-162.0-0.0","6984a9246122d3bd4ca0833e","69f10c5d5c1b9b3130e33fee","0.5","desktop","0","0","0","","","","","","luck_game","","null","<div id=""score-counter"">TOTAL SCORE: &pound;0.10</div><div class=""experiment-container""><div class=""center-zone""><div class=""cross""></div><div class=""triangle-grid""><div class=""machine top-center blue-outline""></div><div class=""machine bottom-left green""></div><div class=""machine bottom-right red""></div></div></div></div>","null","","","","","","","","","","","","","","","","","","","","","","","","","","","","","","","",""
"html-keyboard-response","117","170845","0.0-5.0-163.0-0.0","6984a9246122d3bd4ca0833e","69f10c5d5c1b9b3130e33fee","0.5","desktop","0","0","0","","","","","","luck_game","","null","<div id=""score-counter"">TOTAL SCORE: &pound;0.10</div><div class=""experiment-container""><div class=""center-zone""><div class=""cross""></div></div></div>","null","","","","","","","","","","","","","","","","","","","","","","","","","","","","","","","",""
"html-keyboard-response","118","171859","0.0-5.0-164.0-0.0","6984a9246122d3bd4ca0833e","69f10c5d5c1b9b3130e33fee","0.5","desktop","0","0","0","","","","","","luck_game","","null","<div id=""score-counter"">TOTAL SCORE: &pound;0.15</div><div class=""experiment-container""><div class=""center-zone""><div class=""cross""></div>
                <div style=""position: absolute; z-index: 10; display: flex; flex-direction: column; align-items: center; justify-content: center;"">
                    <div class=""win-text"" style=""font-size: 48px; font-weight: bold; margin-bottom: 20px; text-shadow: 2px 2px 4px #000;"">WIN</div>
                    <img src=""images/coin_reward.png"" class=""reward-img"" style=""background-color: black; border-radius: 50%;"">
                    <div class=""win-text"" style=""font-size: 48px; font-weight: bold; margin-top: 20px; text-shadow: 2px 2px 4px #000;"">+0.05&pound;</div>
                </div></div></div>","null","","","","","","","","","","","","","","","","","","","","","","","","","","","","","","","",""
"html-keyboard-response","119","172356","0.0-5.0-167.0","6984a9246122d3bd4ca0833e","69f10c5d5c1b9b3130e33fee","0.5","desktop","0","0","0","","","","","","luck_game","","496","<div id=""score-counter"">TOTAL SCORE: &pound;0.15</div><div class=""experiment-container""><div class=""center-zone""><div class=""cross""></div><div class=""triangle-grid""><div class=""machine top-center blue-outline""></div><div class=""machine bottom-left green""></div><div class=""machine bottom-right red""></div></div></div></div>","arrowleft","","","","gambling_choice","1","24","arrowleft","bottom-left","green","arrowleft","bottom-left","green","arrowup","top-center","blue","arrowup","top-center","blue","1","0","0.1","0.15","-0.05","0.05","true","false","","","","","",""
"html-keyboard-response","120","172464","0.0-5.0-168.0-0.0","6984a9246122d3bd4ca0833e","69f10c5d5c1b9b3130e33fee","0.5","desktop","0","0","0","","","","","","luck_game","","null","<div id=""score-counter"">TOTAL SCORE: &pound;0.15</div><div class=""experiment-container""><div class=""center-zone""><div class=""cross""></div><div class=""triangle-grid""><div class=""machine top-center blue-outline""></div><div class=""machine bottom-left green""></div><div class=""machine bottom-right red""></div></div></div></div>","null","","","","","","","","","","","","","","","","","","","","","","","","","","","","","","","",""
"html-keyboard-response","121","172977","0.0-5.0-169.0-0.0","6984a9246122d3bd4ca0833e","69f10c5d5c1b9b3130e33fee","0.5","desktop","0","0","0","","","","","","luck_game","","null","<div id=""score-counter"">TOTAL SCORE: &pound;0.15</div><div class=""experiment-container""><div class=""center-zone""><div class=""cross""></div></div></div>","null","","","","","","","","","","","","","","","","","","","","","","","","","","","","","","","",""
"html-keyboard-response","122","173988","0.0-5.0-170.0-0.0","6984a9246122d3bd4ca0833e","69f10c5d5c1b9b3130e33fee","0.5","desktop","0","0","0","","","","","","luck_game","","null","<div id=""score-counter"">TOTAL SCORE: &pound;0.10</div><div class=""experiment-container""><div class=""center-zone""><div class=""cross""></div>
                <div style=""position: absolute; z-index: 10; display: flex; flex-direction: column; align-items: center; justify-content: center;"">
                    <div class=""lose-text"" style=""font-size: 48px; font-weight: bold; margin-bottom: 20px; text-shadow: 2px 2px 4px #000;"">LOSE</div>
                    <img src=""images/coin_no_reward.png"" class=""reward-img"" style=""background-color: black; border-radius: 50%;"">
                    <div class=""lose-text"" style=""font-size: 48px; font-weight: bold; margin-top: 20px; text-shadow: 2px 2px 4px #000;"">-0.05&pound;</div>
                </div></div></div>","null","","","","","","","","","","","","","","","","","","","","","","","","","","","","","","","",""
"html-keyboard-response","123","174413","0.0-5.0-173.0","6984a9246122d3bd4ca0833e","69f10c5d5c1b9b3130e33fee","0.5","desktop","0","0","0","","","","","","luck_game","","423","<div id=""score-counter"">TOTAL SCORE: &pound;0.10</div><div class=""experiment-container""><div class=""center-zone""><div class=""cross""></div><div class=""triangle-grid""><div class=""machine top-center blue""></div><div class=""machine bottom-left green-outline""></div><div class=""machine bottom-right red""></div></div></div></div>","arrowup","","","","gambling_choice","1","25","arrowup","top-center","blue","arrowleft","bottom-left","green","arrowleft","bottom-left","green","arrowup","top-center","blue","0","0","0.05","0.1","-0.05","-0.05","true","false","","","","","",""
"html-keyboard-response","124","174518","0.0-5.0-174.0-0.0","6984a9246122d3bd4ca0833e","69f10c5d5c1b9b3130e33fee","0.5","desktop","0","0","0","","","","","","luck_game","","null","<div id=""score-counter"">TOTAL SCORE: &pound;0.10</div><div class=""experiment-container""><div class=""center-zone""><div class=""cross""></div><div class=""triangle-grid""><div class=""machine top-center blue""></div><div class=""machine bottom-left green-outline""></div><div class=""machine bottom-right red""></div></div></div></div>","null","","","","","","","","","","","","","","","","","","","","","","","","","","","","","","","",""
"html-keyboard-response","125","175031","0.0-5.0-175.0-0.0","6984a9246122d3bd4ca0833e","69f10c5d5c1b9b3130e33fee","0.5","desktop","0","0","0","","","","","","luck_game","","null","<div id=""score-counter"">TOTAL SCORE: &pound;0.10</div><div class=""experiment-container""><div class=""center-zone""><div class=""cross""></div></div></div>","null","","","","","","","","","","","","","","","","","","","","","","","","","","","","","","","",""
"html-keyboard-response","126","176042","0.0-5.0-176.0-0.0","6984a9246122d3bd4ca0833e","69f10c5d5c1b9b3130e33fee","0.5","desktop","0","0","0","","","","","","luck_game","","null","<div id=""score-counter"">TOTAL SCORE: &pound;0.05</div><div class=""experiment-container""><div class=""center-zone""><div class=""cross""></div>
                <div style=""position: absolute; z-index: 10; display: flex; flex-direction: column; align-items: center; justify-content: center;"">
                    <div class=""lose-text"" style=""font-size: 48px; font-weight: bold; margin-bottom: 20px; text-shadow: 2px 2px 4px #000;"">LOSE</div>
                    <img src=""images/coin_no_reward.png"" class=""reward-img"" style=""background-color: black; border-radius: 50%;"">
                    <div class=""lose-text"" style=""font-size: 48px; font-weight: bold; margin-top: 20px; text-shadow: 2px 2px 4px #000;"">-0.05&pound;</div>
                </div></div></div>","null","","","","","","","","","","","","","","","","","","","","","","","","","","","","","","","",""
"html-keyboard-response","127","177386","0.0-5.0-179.0","6984a9246122d3bd4ca0833e","69f10c5d5c1b9b3130e33fee","0.5","desktop","0","0","0","","","","","","luck_game","","1342","
            <div class=""experiment-container"">
                <div style=""text-align: center; font-family: sans-serif;"">
                    <h2 style=""color: white; font-size: 40px; margin-bottom: 20px;"">Rest phase.</h2>
                    <p style=""font-size: 24px; color: white;"">Take as much time as needed.</p>
                    <p style=""font-size: 24px; color: white; margin-top: 40px;"">When ready, press <strong>Space</strong> to continue.</p>
                </div>
            </div>"," ","","","","rest_break","","","","","","","","","","","","","","","","","","","","","","","","","","","",""
"html-keyboard-response","128","178455","0.0-5.0-180.0","6984a9246122d3bd4ca0833e","69f10c5d5c1b9b3130e33fee","0.5","desktop","0","0","0","","","","","","luck_game","","1067","<div id=""score-counter"">TOTAL SCORE: &pound;0.05</div><div class=""experiment-container""><div class=""center-zone""><div class=""cross""></div><div class=""triangle-grid""><div class=""machine top-center blue-outline""></div><div class=""machine bottom-left green""></div><div class=""machine bottom-right red""></div></div></div></div>","arrowleft","","","","gambling_choice","2","1","arrowleft","bottom-left","green","arrowup","top-center","blue","arrowup","top-center","blue","arrowleft","bottom-left","green","0","1","0.1","0.05","0.05","-0.05","true","false","","","","","",""
"html-keyboard-response","129","178564","0.0-5.0-181.0-0.0","6984a9246122d3bd4ca0833e","69f10c5d5c1b9b3130e33fee","0.5","desktop","0","0","0","","","","","","luck_game","","null","<div id=""score-counter"">TOTAL SCORE: &pound;0.05</div><div class=""experiment-container""><div class=""center-zone""><div class=""cross""></div><div class=""triangle-grid""><div class=""machine top-center blue-outline""></div><div class=""machine bottom-left green""></div><div class=""machine bottom-right red""></div></div></div></div>","null","","","","","","","","","","","","","","","","","","","","","","","","","","","","","","","",""
"html-keyboard-response","130","179075","0.0-5.0-182.0-0.0","6984a9246122d3bd4ca0833e","69f10c5d5c1b9b3130e33fee","0.5","desktop","0","0","0","","","","","","luck_game","","null","<div id=""score-counter"">TOTAL SCORE: &pound;0.05</div><div class=""experiment-container""><div class=""center-zone""><div class=""cross""></div></div></div>","null","","","","","","","","","","","","","","","","","","","","","","","","","","","","","","","",""
"html-keyboard-response","131","180087","0.0-5.0-183.0-0.0","6984a9246122d3bd4ca0833e","69f10c5d5c1b9b3130e33fee","0.5","desktop","0","0","0","","","","","","luck_game","","null","<div id=""score-counter"">TOTAL SCORE: &pound;0.10</div><div class=""experiment-container""><div class=""center-zone""><div class=""cross""></div>
                <div style=""position: absolute; z-index: 10; display: flex; flex-direction: column; align-items: center; justify-content: center;"">
                    <div class=""win-text"" style=""font-size: 48px; font-weight: bold; margin-bottom: 20px; text-shadow: 2px 2px 4px #000;"">WIN</div>
                    <img src=""images/coin_reward.png"" class=""reward-img"" style=""background-color: black; border-radius: 50%;"">
                    <div class=""win-text"" style=""font-size: 48px; font-weight: bold; margin-top: 20px; text-shadow: 2px 2px 4px #000;"">+0.05&pound;</div>
                </div></div></div>","null","","","","","","","","","","","","","","","","","","","","","","","","","","","","","","","",""
"html-keyboard-response","132","180531","0.0-5.0-186.0","6984a9246122d3bd4ca0833e","69f10c5d5c1b9b3130e33fee","0.5","desktop","0","0","0","","","","","","luck_game","","442","<div id=""score-counter"">TOTAL SCORE: &pound;0.10</div><div class=""experiment-container""><div class=""center-zone""><div class=""cross""></div><div class=""triangle-grid""><div class=""machine top-center blue-outline""></div><div class=""machine bottom-left green""></div><div class=""machine bottom-right red""></div></div></div></div>","arrowleft","","","","gambling_choice","2","2","arrowleft","bottom-left","green","arrowleft","bottom-left","green","arrowup","top-center","blue","arrowup","top-center","blue","1","0","0.05","0.1","-0.05","0.05","true","false","","","","","",""
"html-keyboard-response","133","180648","0.0-5.0-187.0-0.0","6984a9246122d3bd4ca0833e","69f10c5d5c1b9b3130e33fee","0.5","desktop","0","0","0","","","","","","luck_game","","null","<div id=""score-counter"">TOTAL SCORE: &pound;0.10</div><div class=""experiment-container""><div class=""center-zone""><div class=""cross""></div><div class=""triangle-grid""><div class=""machine top-center blue-outline""></div><div class=""machine bottom-left green""></div><div class=""machine bottom-right red""></div></div></div></div>","null","","","","","","","","","","","","","","","","","","","","","","","","","","","","","","","",""
"html-keyboard-response","134","181164","0.0-5.0-188.0-0.0","6984a9246122d3bd4ca0833e","69f10c5d5c1b9b3130e33fee","0.5","desktop","0","0","0","","","","","","luck_game","","null","<div id=""score-counter"">TOTAL SCORE: &pound;0.10</div><div class=""experiment-container""><div class=""center-zone""><div class=""cross""></div></div></div>","null","","","","","","","","","","","","","","","","","","","","","","","","","","","","","","","",""
"html-keyboard-response","135","182176","0.0-5.0-189.0-0.0","6984a9246122d3bd4ca0833e","69f10c5d5c1b9b3130e33fee","0.5","desktop","0","0","0","","","","","","luck_game","","null","<div id=""score-counter"">TOTAL SCORE: &pound;0.05</div><div class=""experiment-container""><div class=""center-zone""><div class=""cross""></div>
                <div style=""position: absolute; z-index: 10; display: flex; flex-direction: column; align-items: center; justify-content: center;"">
                    <div class=""lose-text"" style=""font-size: 48px; font-weight: bold; margin-bottom: 20px; text-shadow: 2px 2px 4px #000;"">LOSE</div>
                    <img src=""images/coin_no_reward.png"" class=""reward-img"" style=""background-color: black; border-radius: 50%;"">
                    <div class=""lose-text"" style=""font-size: 48px; font-weight: bold; margin-top: 20px; text-shadow: 2px 2px 4px #000;"">-0.05&pound;</div>
                </div></div></div>","null","","","","","","","","","","","","","","","","","","","","","","","","","","","","","","","",""
"html-keyboard-response","136","182643","0.0-5.0-192.0","6984a9246122d3bd4ca0833e","69f10c5d5c1b9b3130e33fee","0.5","desktop","0","0","0","","","","","","luck_game","","465","<div id=""score-counter"">TOTAL SCORE: &pound;0.05</div><div class=""experiment-container""><div class=""center-zone""><div class=""cross""></div><div class=""triangle-grid""><div class=""machine top-center blue""></div><div class=""machine bottom-left green""></div><div class=""machine bottom-right red-outline""></div></div></div></div>","arrowup","","","","gambling_choice","2","3","arrowup","top-center","blue","arrowleft","bottom-left","green","arrowright","bottom-right","red","arrowup","top-center","blue","0","0","0","0.05","-0.05","-0.05","true","false","","","","","",""
"html-keyboard-response","137","182752","0.0-5.0-193.0-0.0","6984a9246122d3bd4ca0833e","69f10c5d5c1b9b3130e33fee","0.5","desktop","0","0","0","","","","","","luck_game","","null","<div id=""score-counter"">TOTAL SCORE: &pound;0.05</div><div class=""experiment-container""><div class=""center-zone""><div class=""cross""></div><div class=""triangle-grid""><div class=""machine top-center blue""></div><div class=""machine bottom-left green""></div><div class=""machine bottom-right red-outline""></div></div></div></div>","null","","","","","","","","","","","","","","","","","","","","","","","","","","","","","","","",""
"html-keyboard-response","138","183267","0.0-5.0-194.0-0.0","6984a9246122d3bd4ca0833e","69f10c5d5c1b9b3130e33fee","0.5","desktop","0","0","0","","","","","","luck_game","","null","<div id=""score-counter"">TOTAL SCORE: &pound;0.05</div><div class=""experiment-container""><div class=""center-zone""><div class=""cross""></div></div></div>","null","","","","","","","","","","","","","","","","","","","","","","","","","","","","","","","",""
"html-keyboard-response","139","184278","0.0-5.0-195.0-0.0","6984a9246122d3bd4ca0833e","69f10c5d5c1b9b3130e33fee","0.5","desktop","0","0","0","","","","","","luck_game","","null","<div id=""score-counter"">TOTAL SCORE: &pound;0.00</div><div class=""experiment-container""><div class=""center-zone""><div class=""cross""></div>
                <div style=""position: absolute; z-index: 10; display: flex; flex-direction: column; align-items: center; justify-content: center;"">
                    <div class=""lose-text"" style=""font-size: 48px; font-weight: bold; margin-bottom: 20px; text-shadow: 2px 2px 4px #000;"">LOSE</div>
                    <img src=""images/coin_no_reward.png"" class=""reward-img"" style=""background-color: black; border-radius: 50%;"">
                    <div class=""lose-text"" style=""font-size: 48px; font-weight: bold; margin-top: 20px; text-shadow: 2px 2px 4px #000;"">-0.05&pound;</div>
                </div></div></div>","null","","","","","","","","","","","","","","","","","","","","","","","","","","","","","","","",""
