"trial_type","trial_index","time_elapsed","internal_node_id","subject_id","study_id","win_chance","device_type","blur_count","fullscreen_exit_count","failed_attention_checks","success","timeout","failed_images","failed_audio","failed_video","phase","view_history","rt","stimulus","response","question_order","trial_name","value","task","block_number","trial_number","choice_key","choice_location","choice_color","choice_key_oneback","choice_location_oneback","choice_color_oneback","unavailable_key","unavailable_location","unavailable_color","unavailable_key_oneback","unavailable_location_oneback","unavailable_color_oneback","reward_oneback","reward","total_score","total_score_oneback","coin_earned","coin_earned_oneback","is_choice_valid","is_timeout_reached","prompt","flipped","attention","expected_answer","category","question_index"
"pavlovia","0","1409","0.0-0.0","69d555ce85e30d6215e559d9","69f10c5d5c1b9b3130e33fee","0.5","desktop","0","0","0","","","","","","","","","","","","","","","","","","","","","","","","","","","","","","","","","","","","","","","","","",""
"preload","1","4830","0.0-2.0","69d555ce85e30d6215e559d9","69f10c5d5c1b9b3130e33fee","0.5","desktop","0","0","0","true","false","[]","[]","[]","","","","","","","","","","","","","","","","","","","","","","","","","","","","","","","","","","","","",""
"html-keyboard-response","2","28820","0.0-3.0-0.0","69d555ce85e30d6215e559d9","69f10c5d5c1b9b3130e33fee","0.5","desktop","0","0","0","","","","","","captcha","","","","","","","","","","","","","","","","","","","","","","","","","","","","","","","","","","","",""
"fullscreen","3","33005","0.0-4.0","69d555ce85e30d6215e559d9","69f10c5d5c1b9b3130e33fee","0.5","desktop","0","0","0","true","","","","","setup","","","","","","","","","","","","","","","","","","","","","","","","","","","","","","","","","","","",""
"instructions","4","196631","0.0-5.0-0.0-0.0-0.0","69d555ce85e30d6215e559d9","69f10c5d5c1b9b3130e33fee","0.5","desktop","0","0","0","","","","","","luck_game","[{""page_index"":0,""viewing_time"":13891},{""page_index"":1,""viewing_time"":10669},{""page_index"":2,""viewing_time"":27014},{""page_index"":3,""viewing_time"":15604},{""page_index"":4,""viewing_time"":15885},{""page_index"":5,""viewing_time"":23219},{""page_index"":6,""viewing_time"":10243},{""page_index"":7,""viewing_time"":12652},{""page_index"":8,""viewing_time"":14765},{""page_index"":9,""viewing_time"":11812},{""page_index"":10,""viewing_time"":7871}]","163625","","","","","","","","","","","","","","","","","","","","","","","","","","","","","","","","","",""
"html-button-response","5","214071","0.0-5.0-0.0-1.0","69d555ce85e30d6215e559d9","69f10c5d5c1b9b3130e33fee","0.5","desktop","0","0","0","","","","","","luck_game","","17438","<div style=""max-width:640px; margin:0 auto; text-align:left;
                               font-family:sans-serif; color:white; padding:10px;"">
            <h3 style=""color:white; text-align:center;"">Quick Reminder</h3>
            <ul style=""line-height:2.1; font-size:1.05em;"">
                <li>There are <strong>3 luck machines</strong>:
                    <span style=""color:#5599ff""><strong>Blue</strong></span> (&uarr; Up),
                    <span style=""color:#55cc55""><strong>Green</strong></span> (&larr; Left),
                    <span style=""color:#ff5555""><strong>Red</strong></span> (&rarr; Right)</li>
                <li>Each turn, <strong>2 machines are READY</strong> and 1 is
                    <strong>unavailable</strong> (shown as a colored outline)</li>
                <li>Press the corresponding arrow key to activate a READY machine</li>
                <li>Activating an <strong>unavailable</strong> machine: lose your turn + time penalty</li>
                <li>Activating a READY machine: <strong class=""win-text"">50% win +&pound;0.05</strong>
                    / <strong class=""lose-text"">50% lose &minus;&pound;0.05</strong></li>
                <li><strong>Time limit:</strong> 6 seconds per turn &mdash; don&rsquo;t miss your chance!</li>
                <li><strong>Goal:</strong> Quickly activate READY machines, avoid unavailable ones</li>
            </ul>
        </div>","0","","","","","","","","","","","","","","","","","","","","","","","","","","","","","","","",""
"survey-multi-choice","6","338054","0.0-5.0-0.0-2.0","69d555ce85e30d6215e559d9","69f10c5d5c1b9b3130e33fee","0.5","desktop","0","0","0","","","","","","luck_game","","123976","","{""q_total_machines"":""3"",""q_ready_machines"":""2"",""q_blue_key"":""↑ Up arrow key"",""q_red_key"":""→ Right arrow key"",""q_outcome"":""The red machine is unavailable. I will lose my turn and chance to win coins, and get a time penalty."",""q_ready_outcome"":""I will either win a coin (+0.05£) or lose a coin (−0.05£)."",""q_goal"":""My goal is to quickly activate available luck machines, avoiding unavailable machines. If I am lucky, I will get rewarded."",""q_win_rates"":""Red: 50% win rate — Blue: 50% win rate — Green: 50% win rate""}","[0,1,2,3,4,5,6,7]","luck_game_quiz","","","","","","","","","","","","","","","","","","","","","","","","","","","","","",""
"html-keyboard-response","7","342037","0.0-5.0-1.0","69d555ce85e30d6215e559d9","69f10c5d5c1b9b3130e33fee","0.5","desktop","0","0","0","","","","","","luck_game","","3980","
            <div style=""max-width: 600px; margin: 0 auto; text-align: center; font-family: sans-serif;"">
                <h2 style=""color: white;"">Good job, you learned the instructions!</h2>
                <p>We will now move to a short <strong>training phase</strong> to get you familiar with the game.</p>
                <p>Your score will <strong>not</strong> be counted during training.</p>
                <br>
                <p><strong>Press Space to start training.</strong></p>
            </div>"," ","","","","","","","","","","","","","","","","","","","","","","","","","","","","","","","",""
"call-function","8","342038","0.0-5.0-2.0","69d555ce85e30d6215e559d9","69f10c5d5c1b9b3130e33fee","0.5","desktop","0","0","0","","","","","","luck_game","","","","","","","","","","","","","","","","","","","","","","","","","","","","","","","","","","","",""
"html-keyboard-response","9","343785","0.0-5.0-3.0","69d555ce85e30d6215e559d9","69f10c5d5c1b9b3130e33fee","0.5","desktop","0","0","0","","","","","","luck_game","","1747","<div class=""experiment-container""><div class=""center-zone""><div class=""cross""></div><div class=""triangle-grid""><div class=""machine top-center blue""></div><div class=""machine bottom-left green-outline""></div><div class=""machine bottom-right red""></div></div></div></div>","arrowright","","","","gambling_choice","training","1","arrowright","bottom-right","red","null","null","null","arrowleft","bottom-left","green","null","null","null","null","1","0","0","0.05","null","true","false","","","","","",""
"html-keyboard-response","10","343913","0.0-5.0-4.0-0.0","69d555ce85e30d6215e559d9","69f10c5d5c1b9b3130e33fee","0.5","desktop","0","0","0","","","","","","luck_game","","null","<div class=""experiment-container""><div class=""center-zone""><div class=""cross""></div><div class=""triangle-grid""><div class=""machine top-center blue""></div><div class=""machine bottom-left green-outline""></div><div class=""machine bottom-right red""></div></div></div></div>","null","","","","","","","","","","","","","","","","","","","","","","","","","","","","","","","",""
"html-keyboard-response","11","344429","0.0-5.0-5.0-0.0","69d555ce85e30d6215e559d9","69f10c5d5c1b9b3130e33fee","0.5","desktop","0","0","0","","","","","","luck_game","","null","<div class=""experiment-container""><div class=""center-zone""><div class=""cross""></div></div></div>","null","","","","","","","","","","","","","","","","","","","","","","","","","","","","","","","",""
"html-keyboard-response","12","345445","0.0-5.0-6.0-0.0","69d555ce85e30d6215e559d9","69f10c5d5c1b9b3130e33fee","0.5","desktop","0","0","0","","","","","","luck_game","","null","<div class=""experiment-container""><div class=""center-zone""><div class=""cross""></div>
                <div style=""position: absolute; z-index: 10; display: flex; flex-direction: column; align-items: center; justify-content: center;"">
                    <div class=""win-text"" style=""font-size: 48px; font-weight: bold; margin-bottom: 20px; text-shadow: 2px 2px 4px #000;"">WIN</div>
                    <img src=""images/coin_reward.png"" class=""reward-img"" style=""background-color: black; border-radius: 50%;"">
                    <div class=""win-text"" style=""font-size: 48px; font-weight: bold; margin-top: 20px; text-shadow: 2px 2px 4px #000;"">+0.05&pound;</div>
                </div></div></div>","null","","","","","","","","","","","","","","","","","","","","","","","","","","","","","","","",""
"html-keyboard-response","13","347421","0.0-5.0-9.0","69d555ce85e30d6215e559d9","69f10c5d5c1b9b3130e33fee","0.5","desktop","0","0","0","","","","","","luck_game","","1975","<div class=""experiment-container""><div class=""center-zone""><div class=""cross""></div><div class=""triangle-grid""><div class=""machine top-center blue""></div><div class=""machine bottom-left green""></div><div class=""machine bottom-right red-outline""></div></div></div></div>","arrowup","","","","gambling_choice","training","2","arrowup","top-center","blue","arrowright","bottom-right","red","arrowright","bottom-right","red","arrowleft","bottom-left","green","1","0","0","0","-0.05","0.05","true","false","","","","","",""
"html-keyboard-response","14","347523","0.0-5.0-10.0-0.0","69d555ce85e30d6215e559d9","69f10c5d5c1b9b3130e33fee","0.5","desktop","0","0","0","","","","","","luck_game","","null","<div class=""experiment-container""><div class=""center-zone""><div class=""cross""></div><div class=""triangle-grid""><div class=""machine top-center blue""></div><div class=""machine bottom-left green""></div><div class=""machine bottom-right red-outline""></div></div></div></div>","null","","","","","","","","","","","","","","","","","","","","","","","","","","","","","","","",""
"html-keyboard-response","15","348039","0.0-5.0-11.0-0.0","69d555ce85e30d6215e559d9","69f10c5d5c1b9b3130e33fee","0.5","desktop","0","0","0","","","","","","luck_game","","null","<div class=""experiment-container""><div class=""center-zone""><div class=""cross""></div></div></div>","null","","","","","","","","","","","","","","","","","","","","","","","","","","","","","","","",""
"html-keyboard-response","16","349053","0.0-5.0-12.0-0.0","69d555ce85e30d6215e559d9","69f10c5d5c1b9b3130e33fee","0.5","desktop","0","0","0","","","","","","luck_game","","null","<div class=""experiment-container""><div class=""center-zone""><div class=""cross""></div>
                <div style=""position: absolute; z-index: 10; display: flex; flex-direction: column; align-items: center; justify-content: center;"">
                    <div class=""lose-text"" style=""font-size: 48px; font-weight: bold; margin-bottom: 20px; text-shadow: 2px 2px 4px #000;"">LOSE</div>
                    <img src=""images/coin_no_reward.png"" class=""reward-img"" style=""background-color: black; border-radius: 50%;"">
                    <div class=""lose-text"" style=""font-size: 48px; font-weight: bold; margin-top: 20px; text-shadow: 2px 2px 4px #000;"">-0.05&pound;</div>
                </div></div></div>","null","","","","","","","","","","","","","","","","","","","","","","","","","","","","","","","",""
"html-keyboard-response","17","349815","0.0-5.0-15.0","69d555ce85e30d6215e559d9","69f10c5d5c1b9b3130e33fee","0.5","desktop","0","0","0","","","","","","luck_game","","760","<div class=""experiment-container""><div class=""center-zone""><div class=""cross""></div><div class=""triangle-grid""><div class=""machine top-center blue-outline""></div><div class=""machine bottom-left green""></div><div class=""machine bottom-right red""></div></div></div></div>","arrowleft","","","","gambling_choice","training","3","arrowleft","bottom-left","green","arrowup","top-center","blue","arrowup","top-center","blue","arrowright","bottom-right","red","0","1","0","0","0.05","-0.05","true","false","","","","","",""
"html-keyboard-response","18","349927","0.0-5.0-16.0-0.0","69d555ce85e30d6215e559d9","69f10c5d5c1b9b3130e33fee","0.5","desktop","0","0","0","","","","","","luck_game","","null","<div class=""experiment-container""><div class=""center-zone""><div class=""cross""></div><div class=""triangle-grid""><div class=""machine top-center blue-outline""></div><div class=""machine bottom-left green""></div><div class=""machine bottom-right red""></div></div></div></div>","null","","","","","","","","","","","","","","","","","","","","","","","","","","","","","","","",""
"html-keyboard-response","19","350443","0.0-5.0-17.0-0.0","69d555ce85e30d6215e559d9","69f10c5d5c1b9b3130e33fee","0.5","desktop","0","0","0","","","","","","luck_game","","null","<div class=""experiment-container""><div class=""center-zone""><div class=""cross""></div></div></div>","null","","","","","","","","","","","","","","","","","","","","","","","","","","","","","","","",""
"html-keyboard-response","20","351444","0.0-5.0-18.0-0.0","69d555ce85e30d6215e559d9","69f10c5d5c1b9b3130e33fee","0.5","desktop","0","0","0","","","","","","luck_game","","null","<div class=""experiment-container""><div class=""center-zone""><div class=""cross""></div>
                <div style=""position: absolute; z-index: 10; display: flex; flex-direction: column; align-items: center; justify-content: center;"">
                    <div class=""win-text"" style=""font-size: 48px; font-weight: bold; margin-bottom: 20px; text-shadow: 2px 2px 4px #000;"">WIN</div>
                    <img src=""images/coin_reward.png"" class=""reward-img"" style=""background-color: black; border-radius: 50%;"">
                    <div class=""win-text"" style=""font-size: 48px; font-weight: bold; margin-top: 20px; text-shadow: 2px 2px 4px #000;"">+0.05&pound;</div>
                </div></div></div>","null","","","","","","","","","","","","","","","","","","","","","","","","","","","","","","","",""
"html-keyboard-response","21","352712","0.0-5.0-21.0","69d555ce85e30d6215e559d9","69f10c5d5c1b9b3130e33fee","0.5","desktop","0","0","0","","","","","","luck_game","","1266","<div class=""experiment-container""><div class=""center-zone""><div class=""cross""></div><div class=""triangle-grid""><div class=""machine top-center blue""></div><div class=""machine bottom-left green""></div><div class=""machine bottom-right red-outline""></div></div></div></div>","arrowleft","","","","gambling_choice","training","4","arrowleft","bottom-left","green","arrowleft","bottom-left","green","arrowright","bottom-right","red","arrowup","top-center","blue","1","1","0","0","0.05","0.05","true","false","","","","","",""
"html-keyboard-response","22","352819","0.0-5.0-22.0-0.0","69d555ce85e30d6215e559d9","69f10c5d5c1b9b3130e33fee","0.5","desktop","0","0","0","","","","","","luck_game","","null","<div class=""experiment-container""><div class=""center-zone""><div class=""cross""></div><div class=""triangle-grid""><div class=""machine top-center blue""></div><div class=""machine bottom-left green""></div><div class=""machine bottom-right red-outline""></div></div></div></div>","null","","","","","","","","","","","","","","","","","","","","","","","","","","","","","","","",""
"html-keyboard-response","23","353334","0.0-5.0-23.0-0.0","69d555ce85e30d6215e559d9","69f10c5d5c1b9b3130e33fee","0.5","desktop","0","0","0","","","","","","luck_game","","null","<div class=""experiment-container""><div class=""center-zone""><div class=""cross""></div></div></div>","null","","","","","","","","","","","","","","","","","","","","","","","","","","","","","","","",""
"html-keyboard-response","24","354349","0.0-5.0-24.0-0.0","69d555ce85e30d6215e559d9","69f10c5d5c1b9b3130e33fee","0.5","desktop","0","0","0","","","","","","luck_game","","null","<div class=""experiment-container""><div class=""center-zone""><div class=""cross""></div>
                <div style=""position: absolute; z-index: 10; display: flex; flex-direction: column; align-items: center; justify-content: center;"">
                    <div class=""win-text"" style=""font-size: 48px; font-weight: bold; margin-bottom: 20px; text-shadow: 2px 2px 4px #000;"">WIN</div>
                    <img src=""images/coin_reward.png"" class=""reward-img"" style=""background-color: black; border-radius: 50%;"">
                    <div class=""win-text"" style=""font-size: 48px; font-weight: bold; margin-top: 20px; text-shadow: 2px 2px 4px #000;"">+0.05&pound;</div>
                </div></div></div>","null","","","","","","","","","","","","","","","","","","","","","","","","","","","","","","","",""
"call-function","25","354349","0.0-5.0-27.0","69d555ce85e30d6215e559d9","69f10c5d5c1b9b3130e33fee","0.5","desktop","0","0","0","","","","","","luck_game","","","","","","","","","","","","","","","","","","","","","","","","","","","","","","","","","","","",""
"html-keyboard-response","26","393950","0.0-5.0-28.0","69d555ce85e30d6215e559d9","69f10c5d5c1b9b3130e33fee","0.5","desktop","0","0","0","","","","","","luck_game","","39601","
            <div style=""max-width: 600px; margin: 0 auto; text-align: center; font-family: sans-serif;"">
                <h2 style=""color: white;"">Training Complete</h2>
                <p>You will now start the real game.</p>
                <br>
                <p><strong>Press Space to begin.</strong></p>
            </div>"," ","","","","","","","","","","","","","","","","","","","","","","","","","","","","","","","",""
"html-keyboard-response","27","395226","0.0-5.0-29.0","69d555ce85e30d6215e559d9","69f10c5d5c1b9b3130e33fee","0.5","desktop","0","0","0","","","","","","luck_game","","1275","<div id=""score-counter"">TOTAL SCORE: &pound;0.00</div><div class=""experiment-container""><div class=""center-zone""><div class=""cross""></div><div class=""triangle-grid""><div class=""machine top-center blue""></div><div class=""machine bottom-left green-outline""></div><div class=""machine bottom-right red""></div></div></div></div>","arrowup","","","","gambling_choice","1","1","arrowup","top-center","blue","arrowleft","bottom-left","green","arrowleft","bottom-left","green","arrowright","bottom-right","red","1","0","0","0","-0.05","0.05","true","false","","","","","",""
"html-keyboard-response","28","395335","0.0-5.0-30.0-0.0","69d555ce85e30d6215e559d9","69f10c5d5c1b9b3130e33fee","0.5","desktop","0","0","0","","","","","","luck_game","","null","<div id=""score-counter"">TOTAL SCORE: &pound;0.00</div><div class=""experiment-container""><div class=""center-zone""><div class=""cross""></div><div class=""triangle-grid""><div class=""machine top-center blue""></div><div class=""machine bottom-left green-outline""></div><div class=""machine bottom-right red""></div></div></div></div>","null","","","","","","","","","","","","","","","","","","","","","","","","","","","","","","","",""
"html-keyboard-response","29","395851","0.0-5.0-31.0-0.0","69d555ce85e30d6215e559d9","69f10c5d5c1b9b3130e33fee","0.5","desktop","0","0","0","","","","","","luck_game","","null","<div id=""score-counter"">TOTAL SCORE: &pound;0.00</div><div class=""experiment-container""><div class=""center-zone""><div class=""cross""></div></div></div>","null","","","","","","","","","","","","","","","","","","","","","","","","","","","","","","","",""
"html-keyboard-response","30","396868","0.0-5.0-32.0-0.0","69d555ce85e30d6215e559d9","69f10c5d5c1b9b3130e33fee","0.5","desktop","0","0","0","","","","","","luck_game","","null","<div id=""score-counter"">TOTAL SCORE: &pound;0.00</div><div class=""experiment-container""><div class=""center-zone""><div class=""cross""></div>
                <div style=""position: absolute; z-index: 10; display: flex; flex-direction: column; align-items: center; justify-content: center;"">
                    <div class=""lose-text"" style=""font-size: 48px; font-weight: bold; margin-bottom: 20px; text-shadow: 2px 2px 4px #000;"">LOSE</div>
                    <img src=""images/coin_no_reward.png"" class=""reward-img"" style=""background-color: black; border-radius: 50%;"">
                    <div class=""lose-text"" style=""font-size: 48px; font-weight: bold; margin-top: 20px; text-shadow: 2px 2px 4px #000;"">-0.05&pound;</div>
                </div></div></div>","null","","","","","","","","","","","","","","","","","","","","","","","","","","","","","","","",""
"html-keyboard-response","31","397703","0.0-5.0-35.0","69d555ce85e30d6215e559d9","69f10c5d5c1b9b3130e33fee","0.5","desktop","0","0","0","","","","","","luck_game","","834","<div id=""score-counter"">TOTAL SCORE: &pound;0.00</div><div class=""experiment-container""><div class=""center-zone""><div class=""cross""></div><div class=""triangle-grid""><div class=""machine top-center blue""></div><div class=""machine bottom-left green-outline""></div><div class=""machine bottom-right red""></div></div></div></div>","arrowright","","","","gambling_choice","1","2","arrowright","bottom-right","red","arrowup","top-center","blue","arrowleft","bottom-left","green","arrowleft","bottom-left","green","0","1","0.05","0","0.05","-0.05","true","false","","","","","",""
"html-keyboard-response","32","397805","0.0-5.0-36.0-0.0","69d555ce85e30d6215e559d9","69f10c5d5c1b9b3130e33fee","0.5","desktop","0","0","0","","","","","","luck_game","","null","<div id=""score-counter"">TOTAL SCORE: &pound;0.00</div><div class=""experiment-container""><div class=""center-zone""><div class=""cross""></div><div class=""triangle-grid""><div class=""machine top-center blue""></div><div class=""machine bottom-left green-outline""></div><div class=""machine bottom-right red""></div></div></div></div>","null","","","","","","","","","","","","","","","","","","","","","","","","","","","","","","","",""
"html-keyboard-response","33","398320","0.0-5.0-37.0-0.0","69d555ce85e30d6215e559d9","69f10c5d5c1b9b3130e33fee","0.5","desktop","0","0","0","","","","","","luck_game","","null","<div id=""score-counter"">TOTAL SCORE: &pound;0.00</div><div class=""experiment-container""><div class=""center-zone""><div class=""cross""></div></div></div>","null","","","","","","","","","","","","","","","","","","","","","","","","","","","","","","","",""
"html-keyboard-response","34","399351","0.0-5.0-38.0-0.0","69d555ce85e30d6215e559d9","69f10c5d5c1b9b3130e33fee","0.5","desktop","0","0","0","","","","","","luck_game","","null","<div id=""score-counter"">TOTAL SCORE: &pound;0.05</div><div class=""experiment-container""><div class=""center-zone""><div class=""cross""></div>
                <div style=""position: absolute; z-index: 10; display: flex; flex-direction: column; align-items: center; justify-content: center;"">
                    <div class=""win-text"" style=""font-size: 48px; font-weight: bold; margin-bottom: 20px; text-shadow: 2px 2px 4px #000;"">WIN</div>
                    <img src=""images/coin_reward.png"" class=""reward-img"" style=""background-color: black; border-radius: 50%;"">
                    <div class=""win-text"" style=""font-size: 48px; font-weight: bold; margin-top: 20px; text-shadow: 2px 2px 4px #000;"">+0.05&pound;</div>
                </div></div></div>","null","","","","","","","","","","","","","","","","","","","","","","","","","","","","","","","",""
"html-keyboard-response","35","399966","0.0-5.0-41.0","69d555ce85e30d6215e559d9","69f10c5d5c1b9b3130e33fee","0.5","desktop","0","0","0","","","","","","luck_game","","614","<div id=""score-counter"">TOTAL SCORE: &pound;0.05</div><div class=""experiment-container""><div class=""center-zone""><div class=""cross""></div><div class=""triangle-grid""><div class=""machine top-center blue-outline""></div><div class=""machine bottom-left green""></div><div class=""machine bottom-right red""></div></div></div></div>","arrowleft","","","","gambling_choice","1","3","arrowleft","bottom-left","green","arrowright","bottom-right","red","arrowup","top-center","blue","arrowleft","bottom-left","green","1","1","0.1","0.05","0.05","0.05","true","false","","","","","",""
"html-keyboard-response","36","400074","0.0-5.0-42.0-0.0","69d555ce85e30d6215e559d9","69f10c5d5c1b9b3130e33fee","0.5","desktop","0","0","0","","","","","","luck_game","","null","<div id=""score-counter"">TOTAL SCORE: &pound;0.05</div><div class=""experiment-container""><div class=""center-zone""><div class=""cross""></div><div class=""triangle-grid""><div class=""machine top-center blue-outline""></div><div class=""machine bottom-left green""></div><div class=""machine bottom-right red""></div></div></div></div>","null","","","","","","","","","","","","","","","","","","","","","","","","","","","","","","","",""
"html-keyboard-response","37","400586","0.0-5.0-43.0-0.0","69d555ce85e30d6215e559d9","69f10c5d5c1b9b3130e33fee","0.5","desktop","0","0","0","","","","","","luck_game","","null","<div id=""score-counter"">TOTAL SCORE: &pound;0.05</div><div class=""experiment-container""><div class=""center-zone""><div class=""cross""></div></div></div>","null","","","","","","","","","","","","","","","","","","","","","","","","","","","","","","","",""
"html-keyboard-response","38","401601","0.0-5.0-44.0-0.0","69d555ce85e30d6215e559d9","69f10c5d5c1b9b3130e33fee","0.5","desktop","0","0","0","","","","","","luck_game","","null","<div id=""score-counter"">TOTAL SCORE: &pound;0.10</div><div class=""experiment-container""><div class=""center-zone""><div class=""cross""></div>
                <div style=""position: absolute; z-index: 10; display: flex; flex-direction: column; align-items: center; justify-content: center;"">
                    <div class=""win-text"" style=""font-size: 48px; font-weight: bold; margin-bottom: 20px; text-shadow: 2px 2px 4px #000;"">WIN</div>
                    <img src=""images/coin_reward.png"" class=""reward-img"" style=""background-color: black; border-radius: 50%;"">
                    <div class=""win-text"" style=""font-size: 48px; font-weight: bold; margin-top: 20px; text-shadow: 2px 2px 4px #000;"">+0.05&pound;</div>
                </div></div></div>","null","","","","","","","","","","","","","","","","","","","","","","","","","","","","","","","",""
"html-keyboard-response","39","402510","0.0-5.0-47.0","69d555ce85e30d6215e559d9","69f10c5d5c1b9b3130e33fee","0.5","desktop","0","0","0","","","","","","luck_game","","908","<div id=""score-counter"">TOTAL SCORE: &pound;0.10</div><div class=""experiment-container""><div class=""center-zone""><div class=""cross""></div><div class=""triangle-grid""><div class=""machine top-center blue""></div><div class=""machine bottom-left green""></div><div class=""machine bottom-right red-outline""></div></div></div></div>","arrowleft","","","","gambling_choice","1","4","arrowleft","bottom-left","green","arrowleft","bottom-left","green","arrowright","bottom-right","red","arrowup","top-center","blue","1","0","0.05","0.1","-0.05","0.05","true","false","","","","","",""
"html-keyboard-response","40","402616","0.0-5.0-48.0-0.0","69d555ce85e30d6215e559d9","69f10c5d5c1b9b3130e33fee","0.5","desktop","0","0","0","","","","","","luck_game","","null","<div id=""score-counter"">TOTAL SCORE: &pound;0.10</div><div class=""experiment-container""><div class=""center-zone""><div class=""cross""></div><div class=""triangle-grid""><div class=""machine top-center blue""></div><div class=""machine bottom-left green""></div><div class=""machine bottom-right red-outline""></div></div></div></div>","null","","","","","","","","","","","","","","","","","","","","","","","","","","","","","","","",""
"html-keyboard-response","41","403132","0.0-5.0-49.0-0.0","69d555ce85e30d6215e559d9","69f10c5d5c1b9b3130e33fee","0.5","desktop","0","0","0","","","","","","luck_game","","null","<div id=""score-counter"">TOTAL SCORE: &pound;0.10</div><div class=""experiment-container""><div class=""center-zone""><div class=""cross""></div></div></div>","null","","","","","","","","","","","","","","","","","","","","","","","","","","","","","","","",""
"html-keyboard-response","42","404147","0.0-5.0-50.0-0.0","69d555ce85e30d6215e559d9","69f10c5d5c1b9b3130e33fee","0.5","desktop","0","0","0","","","","","","luck_game","","null","<div id=""score-counter"">TOTAL SCORE: &pound;0.05</div><div class=""experiment-container""><div class=""center-zone""><div class=""cross""></div>
                <div style=""position: absolute; z-index: 10; display: flex; flex-direction: column; align-items: center; justify-content: center;"">
                    <div class=""lose-text"" style=""font-size: 48px; font-weight: bold; margin-bottom: 20px; text-shadow: 2px 2px 4px #000;"">LOSE</div>
                    <img src=""images/coin_no_reward.png"" class=""reward-img"" style=""background-color: black; border-radius: 50%;"">
                    <div class=""lose-text"" style=""font-size: 48px; font-weight: bold; margin-top: 20px; text-shadow: 2px 2px 4px #000;"">-0.05&pound;</div>
                </div></div></div>","null","","","","","","","","","","","","","","","","","","","","","","","","","","","","","","","",""
"html-keyboard-response","43","405324","0.0-5.0-53.0","69d555ce85e30d6215e559d9","69f10c5d5c1b9b3130e33fee","0.5","desktop","0","0","0","","","","","","luck_game","","1176","<div id=""score-counter"">TOTAL SCORE: &pound;0.05</div><div class=""experiment-container""><div class=""center-zone""><div class=""cross""></div><div class=""triangle-grid""><div class=""machine top-center blue""></div><div class=""machine bottom-left green-outline""></div><div class=""machine bottom-right red""></div></div></div></div>","arrowright","","","","gambling_choice","1","5","arrowright","bottom-right","red","arrowleft","bottom-left","green","arrowleft","bottom-left","green","arrowright","bottom-right","red","0","1","0.1","0.05","0.05","-0.05","true","false","","","","","",""
"html-keyboard-response","44","405429","0.0-5.0-54.0-0.0","69d555ce85e30d6215e559d9","69f10c5d5c1b9b3130e33fee","0.5","desktop","0","0","0","","","","","","luck_game","","null","<div id=""score-counter"">TOTAL SCORE: &pound;0.05</div><div class=""experiment-container""><div class=""center-zone""><div class=""cross""></div><div class=""triangle-grid""><div class=""machine top-center blue""></div><div class=""machine bottom-left green-outline""></div><div class=""machine bottom-right red""></div></div></div></div>","null","","","","","","","","","","","","","","","","","","","","","","","","","","","","","","","",""
"html-keyboard-response","45","405945","0.0-5.0-55.0-0.0","69d555ce85e30d6215e559d9","69f10c5d5c1b9b3130e33fee","0.5","desktop","0","0","0","","","","","","luck_game","","null","<div id=""score-counter"">TOTAL SCORE: &pound;0.05</div><div class=""experiment-container""><div class=""center-zone""><div class=""cross""></div></div></div>","null","","","","","","","","","","","","","","","","","","","","","","","","","","","","","","","",""
"html-keyboard-response","46","406960","0.0-5.0-56.0-0.0","69d555ce85e30d6215e559d9","69f10c5d5c1b9b3130e33fee","0.5","desktop","0","0","0","","","","","","luck_game","","null","<div id=""score-counter"">TOTAL SCORE: &pound;0.10</div><div class=""experiment-container""><div class=""center-zone""><div class=""cross""></div>
                <div style=""position: absolute; z-index: 10; display: flex; flex-direction: column; align-items: center; justify-content: center;"">
                    <div class=""win-text"" style=""font-size: 48px; font-weight: bold; margin-bottom: 20px; text-shadow: 2px 2px 4px #000;"">WIN</div>
                    <img src=""images/coin_reward.png"" class=""reward-img"" style=""background-color: black; border-radius: 50%;"">
                    <div class=""win-text"" style=""font-size: 48px; font-weight: bold; margin-top: 20px; text-shadow: 2px 2px 4px #000;"">+0.05&pound;</div>
                </div></div></div>","null","","","","","","","","","","","","","","","","","","","","","","","","","","","","","","","",""
"html-keyboard-response","47","407983","0.0-5.0-59.0","69d555ce85e30d6215e559d9","69f10c5d5c1b9b3130e33fee","0.5","desktop","0","0","0","","","","","","luck_game","","1023","<div id=""score-counter"">TOTAL SCORE: &pound;0.10</div><div class=""experiment-container""><div class=""center-zone""><div class=""cross""></div><div class=""triangle-grid""><div class=""machine top-center blue""></div><div class=""machine bottom-left green-outline""></div><div class=""machine bottom-right red""></div></div></div></div>","arrowright","","","","gambling_choice","1","6","arrowright","bottom-right","red","arrowright","bottom-right","red","arrowleft","bottom-left","green","arrowleft","bottom-left","green","1","0","0.05","0.1","-0.05","0.05","true","false","","","","","",""
"html-keyboard-response","48","408100","0.0-5.0-60.0-0.0","69d555ce85e30d6215e559d9","69f10c5d5c1b9b3130e33fee","0.5","desktop","0","0","0","","","","","","luck_game","","null","<div id=""score-counter"">TOTAL SCORE: &pound;0.10</div><div class=""experiment-container""><div class=""center-zone""><div class=""cross""></div><div class=""triangle-grid""><div class=""machine top-center blue""></div><div class=""machine bottom-left green-outline""></div><div class=""machine bottom-right red""></div></div></div></div>","null","","","","","","","","","","","","","","","","","","","","","","","","","","","","","","","",""
"html-keyboard-response","49","408617","0.0-5.0-61.0-0.0","69d555ce85e30d6215e559d9","69f10c5d5c1b9b3130e33fee","0.5","desktop","0","0","0","","","","","","luck_game","","null","<div id=""score-counter"">TOTAL SCORE: &pound;0.10</div><div class=""experiment-container""><div class=""center-zone""><div class=""cross""></div></div></div>","null","","","","","","","","","","","","","","","","","","","","","","","","","","","","","","","",""
"html-keyboard-response","50","409632","0.0-5.0-62.0-0.0","69d555ce85e30d6215e559d9","69f10c5d5c1b9b3130e33fee","0.5","desktop","0","0","0","","","","","","luck_game","","null","<div id=""score-counter"">TOTAL SCORE: &pound;0.05</div><div class=""experiment-container""><div class=""center-zone""><div class=""cross""></div>
                <div style=""position: absolute; z-index: 10; display: flex; flex-direction: column; align-items: center; justify-content: center;"">
                    <div class=""lose-text"" style=""font-size: 48px; font-weight: bold; margin-bottom: 20px; text-shadow: 2px 2px 4px #000;"">LOSE</div>
                    <img src=""images/coin_no_reward.png"" class=""reward-img"" style=""background-color: black; border-radius: 50%;"">
                    <div class=""lose-text"" style=""font-size: 48px; font-weight: bold; margin-top: 20px; text-shadow: 2px 2px 4px #000;"">-0.05&pound;</div>
                </div></div></div>","null","","","","","","","","","","","","","","","","","","","","","","","","","","","","","","","",""
"html-keyboard-response","51","410580","0.0-5.0-65.0","69d555ce85e30d6215e559d9","69f10c5d5c1b9b3130e33fee","0.5","desktop","0","0","0","","","","","","luck_game","","947","<div id=""score-counter"">TOTAL SCORE: &pound;0.05</div><div class=""experiment-container""><div class=""center-zone""><div class=""cross""></div><div class=""triangle-grid""><div class=""machine top-center blue""></div><div class=""machine bottom-left green""></div><div class=""machine bottom-right red-outline""></div></div></div></div>","arrowleft","","","","gambling_choice","1","7","arrowleft","bottom-left","green","arrowright","bottom-right","red","arrowright","bottom-right","red","arrowleft","bottom-left","green","0","0","0","0.05","-0.05","-0.05","true","false","","","","","",""
"html-keyboard-response","52","410696","0.0-5.0-66.0-0.0","69d555ce85e30d6215e559d9","69f10c5d5c1b9b3130e33fee","0.5","desktop","0","0","0","","","","","","luck_game","","null","<div id=""score-counter"">TOTAL SCORE: &pound;0.05</div><div class=""experiment-container""><div class=""center-zone""><div class=""cross""></div><div class=""triangle-grid""><div class=""machine top-center blue""></div><div class=""machine bottom-left green""></div><div class=""machine bottom-right red-outline""></div></div></div></div>","null","","","","","","","","","","","","","","","","","","","","","","","","","","","","","","","",""
"html-keyboard-response","53","411210","0.0-5.0-67.0-0.0","69d555ce85e30d6215e559d9","69f10c5d5c1b9b3130e33fee","0.5","desktop","0","0","0","","","","","","luck_game","","null","<div id=""score-counter"">TOTAL SCORE: &pound;0.05</div><div class=""experiment-container""><div class=""center-zone""><div class=""cross""></div></div></div>","null","","","","","","","","","","","","","","","","","","","","","","","","","","","","","","","",""
"html-keyboard-response","54","412211","0.0-5.0-68.0-0.0","69d555ce85e30d6215e559d9","69f10c5d5c1b9b3130e33fee","0.5","desktop","0","0","0","","","","","","luck_game","","null","<div id=""score-counter"">TOTAL SCORE: &pound;0.00</div><div class=""experiment-container""><div class=""center-zone""><div class=""cross""></div>
                <div style=""position: absolute; z-index: 10; display: flex; flex-direction: column; align-items: center; justify-content: center;"">
                    <div class=""lose-text"" style=""font-size: 48px; font-weight: bold; margin-bottom: 20px; text-shadow: 2px 2px 4px #000;"">LOSE</div>
                    <img src=""images/coin_no_reward.png"" class=""reward-img"" style=""background-color: black; border-radius: 50%;"">
                    <div class=""lose-text"" style=""font-size: 48px; font-weight: bold; margin-top: 20px; text-shadow: 2px 2px 4px #000;"">-0.05&pound;</div>
                </div></div></div>","null","","","","","","","","","","","","","","","","","","","","","","","","","","","","","","","",""
"html-keyboard-response","55","413734","0.0-5.0-71.0","69d555ce85e30d6215e559d9","69f10c5d5c1b9b3130e33fee","0.5","desktop","0","0","0","","","","","","luck_game","","1522","<div id=""score-counter"">TOTAL SCORE: &pound;0.00</div><div class=""experiment-container""><div class=""center-zone""><div class=""cross""></div><div class=""triangle-grid""><div class=""machine top-center blue""></div><div class=""machine bottom-left green-outline""></div><div class=""machine bottom-right red""></div></div></div></div>","arrowup","","","","gambling_choice","1","8","arrowup","top-center","blue","arrowleft","bottom-left","green","arrowleft","bottom-left","green","arrowright","bottom-right","red","0","0","0","0","-0.05","-0.05","true","false","","","","","",""
"html-keyboard-response","56","413844","0.0-5.0-72.0-0.0","69d555ce85e30d6215e559d9","69f10c5d5c1b9b3130e33fee","0.5","desktop","0","0","0","","","","","","luck_game","","null","<div id=""score-counter"">TOTAL SCORE: &pound;0.00</div><div class=""experiment-container""><div class=""center-zone""><div class=""cross""></div><div class=""triangle-grid""><div class=""machine top-center blue""></div><div class=""machine bottom-left green-outline""></div><div class=""machine bottom-right red""></div></div></div></div>","null","","","","","","","","","","","","","","","","","","","","","","","","","","","","","","","",""
"html-keyboard-response","57","414350","0.0-5.0-73.0-0.0","69d555ce85e30d6215e559d9","69f10c5d5c1b9b3130e33fee","0.5","desktop","0","0","0","","","","","","luck_game","","null","<div id=""score-counter"">TOTAL SCORE: &pound;0.00</div><div class=""experiment-container""><div class=""center-zone""><div class=""cross""></div></div></div>","null","","","","","","","","","","","","","","","","","","","","","","","","","","","","","","","",""
"html-keyboard-response","58","415365","0.0-5.0-74.0-0.0","69d555ce85e30d6215e559d9","69f10c5d5c1b9b3130e33fee","0.5","desktop","0","0","0","","","","","","luck_game","","null","<div id=""score-counter"">TOTAL SCORE: &pound;0.00</div><div class=""experiment-container""><div class=""center-zone""><div class=""cross""></div>
                <div style=""position: absolute; z-index: 10; display: flex; flex-direction: column; align-items: center; justify-content: center;"">
                    <div class=""lose-text"" style=""font-size: 48px; font-weight: bold; margin-bottom: 20px; text-shadow: 2px 2px 4px #000;"">LOSE</div>
                    <img src=""images/coin_no_reward.png"" class=""reward-img"" style=""background-color: black; border-radius: 50%;"">
                    <div class=""lose-text"" style=""font-size: 48px; font-weight: bold; margin-top: 20px; text-shadow: 2px 2px 4px #000;"">-0.05&pound;</div>
                </div></div></div>","null","","","","","","","","","","","","","","","","","","","","","","","","","","","","","","","",""
"html-keyboard-response","59","416246","0.0-5.0-77.0","69d555ce85e30d6215e559d9","69f10c5d5c1b9b3130e33fee","0.5","desktop","0","0","0","","","","","","luck_game","","880","<div id=""score-counter"">TOTAL SCORE: &pound;0.00</div><div class=""experiment-container""><div class=""center-zone""><div class=""cross""></div><div class=""triangle-grid""><div class=""machine top-center blue""></div><div class=""machine bottom-left green""></div><div class=""machine bottom-right red-outline""></div></div></div></div>","arrowleft","","","","gambling_choice","1","9","arrowleft","bottom-left","green","arrowup","top-center","blue","arrowright","bottom-right","red","arrowleft","bottom-left","green","0","1","0.05","0","0.05","-0.05","true","false","","","","","",""
"html-keyboard-response","60","416358","0.0-5.0-78.0-0.0","69d555ce85e30d6215e559d9","69f10c5d5c1b9b3130e33fee","0.5","desktop","0","0","0","","","","","","luck_game","","null","<div id=""score-counter"">TOTAL SCORE: &pound;0.00</div><div class=""experiment-container""><div class=""center-zone""><div class=""cross""></div><div class=""triangle-grid""><div class=""machine top-center blue""></div><div class=""machine bottom-left green""></div><div class=""machine bottom-right red-outline""></div></div></div></div>","null","","","","","","","","","","","","","","","","","","","","","","","","","","","","","","","",""
"html-keyboard-response","61","416866","0.0-5.0-79.0-0.0","69d555ce85e30d6215e559d9","69f10c5d5c1b9b3130e33fee","0.5","desktop","0","0","0","","","","","","luck_game","","null","<div id=""score-counter"">TOTAL SCORE: &pound;0.00</div><div class=""experiment-container""><div class=""center-zone""><div class=""cross""></div></div></div>","null","","","","","","","","","","","","","","","","","","","","","","","","","","","","","","","",""
"html-keyboard-response","62","417882","0.0-5.0-80.0-0.0","69d555ce85e30d6215e559d9","69f10c5d5c1b9b3130e33fee","0.5","desktop","0","0","0","","","","","","luck_game","","null","<div id=""score-counter"">TOTAL SCORE: &pound;0.05</div><div class=""experiment-container""><div class=""center-zone""><div class=""cross""></div>
                <div style=""position: absolute; z-index: 10; display: flex; flex-direction: column; align-items: center; justify-content: center;"">
                    <div class=""win-text"" style=""font-size: 48px; font-weight: bold; margin-bottom: 20px; text-shadow: 2px 2px 4px #000;"">WIN</div>
                    <img src=""images/coin_reward.png"" class=""reward-img"" style=""background-color: black; border-radius: 50%;"">
                    <div class=""win-text"" style=""font-size: 48px; font-weight: bold; margin-top: 20px; text-shadow: 2px 2px 4px #000;"">+0.05&pound;</div>
                </div></div></div>","null","","","","","","","","","","","","","","","","","","","","","","","","","","","","","","","",""
"html-keyboard-response","63","418535","0.0-5.0-83.0","69d555ce85e30d6215e559d9","69f10c5d5c1b9b3130e33fee","0.5","desktop","0","0","0","","","","","","luck_game","","652","<div id=""score-counter"">TOTAL SCORE: &pound;0.05</div><div class=""experiment-container""><div class=""center-zone""><div class=""cross""></div><div class=""triangle-grid""><div class=""machine top-center blue""></div><div class=""machine bottom-left green-outline""></div><div class=""machine bottom-right red""></div></div></div></div>","arrowright","","","","gambling_choice","1","10","arrowright","bottom-right","red","arrowleft","bottom-left","green","arrowleft","bottom-left","green","arrowright","bottom-right","red","1","1","0.1","0.05","0.05","0.05","true","false","","","","","",""
"html-keyboard-response","64","418639","0.0-5.0-84.0-0.0","69d555ce85e30d6215e559d9","69f10c5d5c1b9b3130e33fee","0.5","desktop","0","0","0","","","","","","luck_game","","null","<div id=""score-counter"">TOTAL SCORE: &pound;0.05</div><div class=""experiment-container""><div class=""center-zone""><div class=""cross""></div><div class=""triangle-grid""><div class=""machine top-center blue""></div><div class=""machine bottom-left green-outline""></div><div class=""machine bottom-right red""></div></div></div></div>","null","","","","","","","","","","","","","","","","","","","","","","","","","","","","","","","",""
"html-keyboard-response","65","419146","0.0-5.0-85.0-0.0","69d555ce85e30d6215e559d9","69f10c5d5c1b9b3130e33fee","0.5","desktop","0","0","0","","","","","","luck_game","","null","<div id=""score-counter"">TOTAL SCORE: &pound;0.05</div><div class=""experiment-container""><div class=""center-zone""><div class=""cross""></div></div></div>","null","","","","","","","","","","","","","","","","","","","","","","","","","","","","","","","",""
"html-keyboard-response","66","420149","0.0-5.0-86.0-0.0","69d555ce85e30d6215e559d9","69f10c5d5c1b9b3130e33fee","0.5","desktop","0","0","0","","","","","","luck_game","","null","<div id=""score-counter"">TOTAL SCORE: &pound;0.10</div><div class=""experiment-container""><div class=""center-zone""><div class=""cross""></div>
                <div style=""position: absolute; z-index: 10; display: flex; flex-direction: column; align-items: center; justify-content: center;"">
                    <div class=""win-text"" style=""font-size: 48px; font-weight: bold; margin-bottom: 20px; text-shadow: 2px 2px 4px #000;"">WIN</div>
                    <img src=""images/coin_reward.png"" class=""reward-img"" style=""background-color: black; border-radius: 50%;"">
                    <div class=""win-text"" style=""font-size: 48px; font-weight: bold; margin-top: 20px; text-shadow: 2px 2px 4px #000;"">+0.05&pound;</div>
                </div></div></div>","null","","","","","","","","","","","","","","","","","","","","","","","","","","","","","","","",""
"html-keyboard-response","67","421023","0.0-5.0-89.0","69d555ce85e30d6215e559d9","69f10c5d5c1b9b3130e33fee","0.5","desktop","0","0","0","","","","","","luck_game","","873","<div id=""score-counter"">TOTAL SCORE: &pound;0.10</div><div class=""experiment-container""><div class=""center-zone""><div class=""cross""></div><div class=""triangle-grid""><div class=""machine top-center blue-outline""></div><div class=""machine bottom-left green""></div><div class=""machine bottom-right red""></div></div></div></div>","arrowright","","","","gambling_choice","1","11","arrowright","bottom-right","red","arrowright","bottom-right","red","arrowup","top-center","blue","arrowleft","bottom-left","green","1","1","0.15","0.1","0.05","0.05","true","false","","","","","",""
"html-keyboard-response","68","421131","0.0-5.0-90.0-0.0","69d555ce85e30d6215e559d9","69f10c5d5c1b9b3130e33fee","0.5","desktop","0","0","0","","","","","","luck_game","","null","<div id=""score-counter"">TOTAL SCORE: &pound;0.10</div><div class=""experiment-container""><div class=""center-zone""><div class=""cross""></div><div class=""triangle-grid""><div class=""machine top-center blue-outline""></div><div class=""machine bottom-left green""></div><div class=""machine bottom-right red""></div></div></div></div>","null","","","","","","","","","","","","","","","","","","","","","","","","","","","","","","","",""
"html-keyboard-response","69","421648","0.0-5.0-91.0-0.0","69d555ce85e30d6215e559d9","69f10c5d5c1b9b3130e33fee","0.5","desktop","0","0","0","","","","","","luck_game","","null","<div id=""score-counter"">TOTAL SCORE: &pound;0.10</div><div class=""experiment-container""><div class=""center-zone""><div class=""cross""></div></div></div>","null","","","","","","","","","","","","","","","","","","","","","","","","","","","","","","","",""
"html-keyboard-response","70","422679","0.0-5.0-92.0-0.0","69d555ce85e30d6215e559d9","69f10c5d5c1b9b3130e33fee","0.5","desktop","0","0","0","","","","","","luck_game","","null","<div id=""score-counter"">TOTAL SCORE: &pound;0.15</div><div class=""experiment-container""><div class=""center-zone""><div class=""cross""></div>
                <div style=""position: absolute; z-index: 10; display: flex; flex-direction: column; align-items: center; justify-content: center;"">
                    <div class=""win-text"" style=""font-size: 48px; font-weight: bold; margin-bottom: 20px; text-shadow: 2px 2px 4px #000;"">WIN</div>
                    <img src=""images/coin_reward.png"" class=""reward-img"" style=""background-color: black; border-radius: 50%;"">
                    <div class=""win-text"" style=""font-size: 48px; font-weight: bold; margin-top: 20px; text-shadow: 2px 2px 4px #000;"">+0.05&pound;</div>
                </div></div></div>","null","","","","","","","","","","","","","","","","","","","","","","","","","","","","","","","",""
"html-keyboard-response","71","423545","0.0-5.0-95.0","69d555ce85e30d6215e559d9","69f10c5d5c1b9b3130e33fee","0.5","desktop","0","0","0","","","","","","luck_game","","865","<div id=""score-counter"">TOTAL SCORE: &pound;0.15</div><div class=""experiment-container""><div class=""center-zone""><div class=""cross""></div><div class=""triangle-grid""><div class=""machine top-center blue-outline""></div><div class=""machine bottom-left green""></div><div class=""machine bottom-right red""></div></div></div></div>","arrowright","","","","gambling_choice","1","12","arrowright","bottom-right","red","arrowright","bottom-right","red","arrowup","top-center","blue","arrowup","top-center","blue","1","1","0.2","0.15","0.05","0.05","true","false","","","","","",""
"html-keyboard-response","72","423648","0.0-5.0-96.0-0.0","69d555ce85e30d6215e559d9","69f10c5d5c1b9b3130e33fee","0.5","desktop","0","0","0","","","","","","luck_game","","null","<div id=""score-counter"">TOTAL SCORE: &pound;0.15</div><div class=""experiment-container""><div class=""center-zone""><div class=""cross""></div><div class=""triangle-grid""><div class=""machine top-center blue-outline""></div><div class=""machine bottom-left green""></div><div class=""machine bottom-right red""></div></div></div></div>","null","","","","","","","","","","","","","","","","","","","","","","","","","","","","","","","",""
"html-keyboard-response","73","424164","0.0-5.0-97.0-0.0","69d555ce85e30d6215e559d9","69f10c5d5c1b9b3130e33fee","0.5","desktop","0","0","0","","","","","","luck_game","","null","<div id=""score-counter"">TOTAL SCORE: &pound;0.15</div><div class=""experiment-container""><div class=""center-zone""><div class=""cross""></div></div></div>","null","","","","","","","","","","","","","","","","","","","","","","","","","","","","","","","",""
"html-keyboard-response","74","425180","0.0-5.0-98.0-0.0","69d555ce85e30d6215e559d9","69f10c5d5c1b9b3130e33fee","0.5","desktop","0","0","0","","","","","","luck_game","","null","<div id=""score-counter"">TOTAL SCORE: &pound;0.20</div><div class=""experiment-container""><div class=""center-zone""><div class=""cross""></div>
                <div style=""position: absolute; z-index: 10; display: flex; flex-direction: column; align-items: center; justify-content: center;"">
                    <div class=""win-text"" style=""font-size: 48px; font-weight: bold; margin-bottom: 20px; text-shadow: 2px 2px 4px #000;"">WIN</div>
                    <img src=""images/coin_reward.png"" class=""reward-img"" style=""background-color: black; border-radius: 50%;"">
                    <div class=""win-text"" style=""font-size: 48px; font-weight: bold; margin-top: 20px; text-shadow: 2px 2px 4px #000;"">+0.05&pound;</div>
                </div></div></div>","null","","","","","","","","","","","","","","","","","","","","","","","","","","","","","","","",""
"html-keyboard-response","75","427553","0.0-5.0-101.0","69d555ce85e30d6215e559d9","69f10c5d5c1b9b3130e33fee","0.5","desktop","0","0","0","","","","","","luck_game","","2373","<div id=""score-counter"">TOTAL SCORE: &pound;0.20</div><div class=""experiment-container""><div class=""center-zone""><div class=""cross""></div><div class=""triangle-grid""><div class=""machine top-center blue""></div><div class=""machine bottom-left green-outline""></div><div class=""machine bottom-right red""></div></div></div></div>","arrowup","","","","gambling_choice","1","13","arrowup","top-center","blue","arrowright","bottom-right","red","arrowleft","bottom-left","green","arrowup","top-center","blue","1","1","0.25","0.2","0.05","0.05","true","false","","","","","",""
"html-keyboard-response","76","427663","0.0-5.0-102.0-0.0","69d555ce85e30d6215e559d9","69f10c5d5c1b9b3130e33fee","0.5","desktop","0","0","0","","","","","","luck_game","","null","<div id=""score-counter"">TOTAL SCORE: &pound;0.20</div><div class=""experiment-container""><div class=""center-zone""><div class=""cross""></div><div class=""triangle-grid""><div class=""machine top-center blue""></div><div class=""machine bottom-left green-outline""></div><div class=""machine bottom-right red""></div></div></div></div>","null","","","","","","","","","","","","","","","","","","","","","","","","","","","","","","","",""
"html-keyboard-response","77","428179","0.0-5.0-103.0-0.0","69d555ce85e30d6215e559d9","69f10c5d5c1b9b3130e33fee","0.5","desktop","0","0","0","","","","","","luck_game","","null","<div id=""score-counter"">TOTAL SCORE: &pound;0.20</div><div class=""experiment-container""><div class=""center-zone""><div class=""cross""></div></div></div>","null","","","","","","","","","","","","","","","","","","","","","","","","","","","","","","","",""
"html-keyboard-response","78","429194","0.0-5.0-104.0-0.0","69d555ce85e30d6215e559d9","69f10c5d5c1b9b3130e33fee","0.5","desktop","0","0","0","","","","","","luck_game","","null","<div id=""score-counter"">TOTAL SCORE: &pound;0.25</div><div class=""experiment-container""><div class=""center-zone""><div class=""cross""></div>
                <div style=""position: absolute; z-index: 10; display: flex; flex-direction: column; align-items: center; justify-content: center;"">
                    <div class=""win-text"" style=""font-size: 48px; font-weight: bold; margin-bottom: 20px; text-shadow: 2px 2px 4px #000;"">WIN</div>
                    <img src=""images/coin_reward.png"" class=""reward-img"" style=""background-color: black; border-radius: 50%;"">
                    <div class=""win-text"" style=""font-size: 48px; font-weight: bold; margin-top: 20px; text-shadow: 2px 2px 4px #000;"">+0.05&pound;</div>
                </div></div></div>","null","","","","","","","","","","","","","","","","","","","","","","","","","","","","","","","",""
"html-keyboard-response","79","429982","0.0-5.0-107.0","69d555ce85e30d6215e559d9","69f10c5d5c1b9b3130e33fee","0.5","desktop","0","0","0","","","","","","luck_game","","786","<div id=""score-counter"">TOTAL SCORE: &pound;0.25</div><div class=""experiment-container""><div class=""center-zone""><div class=""cross""></div><div class=""triangle-grid""><div class=""machine top-center blue-outline""></div><div class=""machine bottom-left green""></div><div class=""machine bottom-right red""></div></div></div></div>","arrowright","","","","gambling_choice","1","14","arrowright","bottom-right","red","arrowup","top-center","blue","arrowup","top-center","blue","arrowleft","bottom-left","green","1","0","0.2","0.25","-0.05","0.05","true","false","","","","","",""
"html-keyboard-response","80","430086","0.0-5.0-108.0-0.0","69d555ce85e30d6215e559d9","69f10c5d5c1b9b3130e33fee","0.5","desktop","0","0","0","","","","","","luck_game","","null","<div id=""score-counter"">TOTAL SCORE: &pound;0.25</div><div class=""experiment-container""><div class=""center-zone""><div class=""cross""></div><div class=""triangle-grid""><div class=""machine top-center blue-outline""></div><div class=""machine bottom-left green""></div><div class=""machine bottom-right red""></div></div></div></div>","null","","","","","","","","","","","","","","","","","","","","","","","","","","","","","","","",""
"html-keyboard-response","81","430601","0.0-5.0-109.0-0.0","69d555ce85e30d6215e559d9","69f10c5d5c1b9b3130e33fee","0.5","desktop","0","0","0","","","","","","luck_game","","null","<div id=""score-counter"">TOTAL SCORE: &pound;0.25</div><div class=""experiment-container""><div class=""center-zone""><div class=""cross""></div></div></div>","null","","","","","","","","","","","","","","","","","","","","","","","","","","","","","","","",""
"html-keyboard-response","82","431615","0.0-5.0-110.0-0.0","69d555ce85e30d6215e559d9","69f10c5d5c1b9b3130e33fee","0.5","desktop","0","0","0","","","","","","luck_game","","null","<div id=""score-counter"">TOTAL SCORE: &pound;0.20</div><div class=""experiment-container""><div class=""center-zone""><div class=""cross""></div>
                <div style=""position: absolute; z-index: 10; display: flex; flex-direction: column; align-items: center; justify-content: center;"">
                    <div class=""lose-text"" style=""font-size: 48px; font-weight: bold; margin-bottom: 20px; text-shadow: 2px 2px 4px #000;"">LOSE</div>
                    <img src=""images/coin_no_reward.png"" class=""reward-img"" style=""background-color: black; border-radius: 50%;"">
                    <div class=""lose-text"" style=""font-size: 48px; font-weight: bold; margin-top: 20px; text-shadow: 2px 2px 4px #000;"">-0.05&pound;</div>
                </div></div></div>","null","","","","","","","","","","","","","","","","","","","","","","","","","","","","","","","",""
"html-keyboard-response","83","432497","0.0-5.0-113.0","69d555ce85e30d6215e559d9","69f10c5d5c1b9b3130e33fee","0.5","desktop","0","0","0","","","","","","luck_game","","881","<div id=""score-counter"">TOTAL SCORE: &pound;0.20</div><div class=""experiment-container""><div class=""center-zone""><div class=""cross""></div><div class=""triangle-grid""><div class=""machine top-center blue""></div><div class=""machine bottom-left green-outline""></div><div class=""machine bottom-right red""></div></div></div></div>","arrowright","","","","gambling_choice","1","15","arrowright","bottom-right","red","arrowright","bottom-right","red","arrowleft","bottom-left","green","arrowup","top-center","blue","0","0","0.15","0.2","-0.05","-0.05","true","false","","","","","",""
"html-keyboard-response","84","432599","0.0-5.0-114.0-0.0","69d555ce85e30d6215e559d9","69f10c5d5c1b9b3130e33fee","0.5","desktop","0","0","0","","","","","","luck_game","","null","<div id=""score-counter"">TOTAL SCORE: &pound;0.20</div><div class=""experiment-container""><div class=""center-zone""><div class=""cross""></div><div class=""triangle-grid""><div class=""machine top-center blue""></div><div class=""machine bottom-left green-outline""></div><div class=""machine bottom-right red""></div></div></div></div>","null","","","","","","","","","","","","","","","","","","","","","","","","","","","","","","","",""
"html-keyboard-response","85","433115","0.0-5.0-115.0-0.0","69d555ce85e30d6215e559d9","69f10c5d5c1b9b3130e33fee","0.5","desktop","0","0","0","","","","","","luck_game","","null","<div id=""score-counter"">TOTAL SCORE: &pound;0.20</div><div class=""experiment-container""><div class=""center-zone""><div class=""cross""></div></div></div>","null","","","","","","","","","","","","","","","","","","","","","","","","","","","","","","","",""
"html-keyboard-response","86","434117","0.0-5.0-116.0-0.0","69d555ce85e30d6215e559d9","69f10c5d5c1b9b3130e33fee","0.5","desktop","0","0","0","","","","","","luck_game","","null","<div id=""score-counter"">TOTAL SCORE: &pound;0.15</div><div class=""experiment-container""><div class=""center-zone""><div class=""cross""></div>
                <div style=""position: absolute; z-index: 10; display: flex; flex-direction: column; align-items: center; justify-content: center;"">
                    <div class=""lose-text"" style=""font-size: 48px; font-weight: bold; margin-bottom: 20px; text-shadow: 2px 2px 4px #000;"">LOSE</div>
                    <img src=""images/coin_no_reward.png"" class=""reward-img"" style=""background-color: black; border-radius: 50%;"">
                    <div class=""lose-text"" style=""font-size: 48px; font-weight: bold; margin-top: 20px; text-shadow: 2px 2px 4px #000;"">-0.05&pound;</div>
                </div></div></div>","null","","","","","","","","","","","","","","","","","","","","","","","","","","","","","","","",""
"html-keyboard-response","87","435109","0.0-5.0-119.0","69d555ce85e30d6215e559d9","69f10c5d5c1b9b3130e33fee","0.5","desktop","0","0","0","","","","","","luck_game","","992","<div id=""score-counter"">TOTAL SCORE: &pound;0.15</div><div class=""experiment-container""><div class=""center-zone""><div class=""cross""></div><div class=""triangle-grid""><div class=""machine top-center blue""></div><div class=""machine bottom-left green-outline""></div><div class=""machine bottom-right red""></div></div></div></div>","arrowup","","","","gambling_choice","1","16","arrowup","top-center","blue","arrowright","bottom-right","red","arrowleft","bottom-left","green","arrowleft","bottom-left","green","0","1","0.2","0.15","0.05","-0.05","true","false","","","","","",""
"html-keyboard-response","88","435223","0.0-5.0-120.0-0.0","69d555ce85e30d6215e559d9","69f10c5d5c1b9b3130e33fee","0.5","desktop","0","0","0","","","","","","luck_game","","null","<div id=""score-counter"">TOTAL SCORE: &pound;0.15</div><div class=""experiment-container""><div class=""center-zone""><div class=""cross""></div><div class=""triangle-grid""><div class=""machine top-center blue""></div><div class=""machine bottom-left green-outline""></div><div class=""machine bottom-right red""></div></div></div></div>","null","","","","","","","","","","","","","","","","","","","","","","","","","","","","","","","",""
"html-keyboard-response","89","435726","0.0-5.0-121.0-0.0","69d555ce85e30d6215e559d9","69f10c5d5c1b9b3130e33fee","0.5","desktop","0","0","0","","","","","","luck_game","","null","<div id=""score-counter"">TOTAL SCORE: &pound;0.15</div><div class=""experiment-container""><div class=""center-zone""><div class=""cross""></div></div></div>","null","","","","","","","","","","","","","","","","","","","","","","","","","","","","","","","",""
"html-keyboard-response","90","436741","0.0-5.0-122.0-0.0","69d555ce85e30d6215e559d9","69f10c5d5c1b9b3130e33fee","0.5","desktop","0","0","0","","","","","","luck_game","","null","<div id=""score-counter"">TOTAL SCORE: &pound;0.20</div><div class=""experiment-container""><div class=""center-zone""><div class=""cross""></div>
                <div style=""position: absolute; z-index: 10; display: flex; flex-direction: column; align-items: center; justify-content: center;"">
                    <div class=""win-text"" style=""font-size: 48px; font-weight: bold; margin-bottom: 20px; text-shadow: 2px 2px 4px #000;"">WIN</div>
                    <img src=""images/coin_reward.png"" class=""reward-img"" style=""background-color: black; border-radius: 50%;"">
                    <div class=""win-text"" style=""font-size: 48px; font-weight: bold; margin-top: 20px; text-shadow: 2px 2px 4px #000;"">+0.05&pound;</div>
                </div></div></div>","null","","","","","","","","","","","","","","","","","","","","","","","","","","","","","","","",""
"html-keyboard-response","91","437534","0.0-5.0-125.0","69d555ce85e30d6215e559d9","69f10c5d5c1b9b3130e33fee","0.5","desktop","0","0","0","","","","","","luck_game","","791","<div id=""score-counter"">TOTAL SCORE: &pound;0.20</div><div class=""experiment-container""><div class=""center-zone""><div class=""cross""></div><div class=""triangle-grid""><div class=""machine top-center blue-outline""></div><div class=""machine bottom-left green""></div><div class=""machine bottom-right red""></div></div></div></div>","arrowleft","","","","gambling_choice","1","17","arrowleft","bottom-left","green","arrowup","top-center","blue","arrowup","top-center","blue","arrowleft","bottom-left","green","1","1","0.25","0.2","0.05","0.05","true","false","","","","","",""
"html-keyboard-response","92","437647","0.0-5.0-126.0-0.0","69d555ce85e30d6215e559d9","69f10c5d5c1b9b3130e33fee","0.5","desktop","0","0","0","","","","","","luck_game","","null","<div id=""score-counter"">TOTAL SCORE: &pound;0.20</div><div class=""experiment-container""><div class=""center-zone""><div class=""cross""></div><div class=""triangle-grid""><div class=""machine top-center blue-outline""></div><div class=""machine bottom-left green""></div><div class=""machine bottom-right red""></div></div></div></div>","null","","","","","","","","","","","","","","","","","","","","","","","","","","","","","","","",""
"html-keyboard-response","93","438163","0.0-5.0-127.0-0.0","69d555ce85e30d6215e559d9","69f10c5d5c1b9b3130e33fee","0.5","desktop","0","0","0","","","","","","luck_game","","null","<div id=""score-counter"">TOTAL SCORE: &pound;0.20</div><div class=""experiment-container""><div class=""center-zone""><div class=""cross""></div></div></div>","null","","","","","","","","","","","","","","","","","","","","","","","","","","","","","","","",""
"html-keyboard-response","94","439179","0.0-5.0-128.0-0.0","69d555ce85e30d6215e559d9","69f10c5d5c1b9b3130e33fee","0.5","desktop","0","0","0","","","","","","luck_game","","null","<div id=""score-counter"">TOTAL SCORE: &pound;0.25</div><div class=""experiment-container""><div class=""center-zone""><div class=""cross""></div>
                <div style=""position: absolute; z-index: 10; display: flex; flex-direction: column; align-items: center; justify-content: center;"">
                    <div class=""win-text"" style=""font-size: 48px; font-weight: bold; margin-bottom: 20px; text-shadow: 2px 2px 4px #000;"">WIN</div>
                    <img src=""images/coin_reward.png"" class=""reward-img"" style=""background-color: black; border-radius: 50%;"">
                    <div class=""win-text"" style=""font-size: 48px; font-weight: bold; margin-top: 20px; text-shadow: 2px 2px 4px #000;"">+0.05&pound;</div>
                </div></div></div>","null","","","","","","","","","","","","","","","","","","","","","","","","","","","","","","","",""
"html-keyboard-response","95","439720","0.0-5.0-131.0","69d555ce85e30d6215e559d9","69f10c5d5c1b9b3130e33fee","0.5","desktop","0","0","0","","","","","","luck_game","","540","<div id=""score-counter"">TOTAL SCORE: &pound;0.25</div><div class=""experiment-container""><div class=""center-zone""><div class=""cross""></div><div class=""triangle-grid""><div class=""machine top-center blue""></div><div class=""machine bottom-left green""></div><div class=""machine bottom-right red-outline""></div></div></div></div>","arrowleft","","","","gambling_choice","1","18","arrowleft","bottom-left","green","arrowleft","bottom-left","green","arrowright","bottom-right","red","arrowup","top-center","blue","1","0","0.2","0.25","-0.05","0.05","true","false","","","","","",""
"html-keyboard-response","96","439834","0.0-5.0-132.0-0.0","69d555ce85e30d6215e559d9","69f10c5d5c1b9b3130e33fee","0.5","desktop","0","0","0","","","","","","luck_game","","null","<div id=""score-counter"">TOTAL SCORE: &pound;0.25</div><div class=""experiment-container""><div class=""center-zone""><div class=""cross""></div><div class=""triangle-grid""><div class=""machine top-center blue""></div><div class=""machine bottom-left green""></div><div class=""machine bottom-right red-outline""></div></div></div></div>","null","","","","","","","","","","","","","","","","","","","","","","","","","","","","","","","",""
"html-keyboard-response","97","440336","0.0-5.0-133.0-0.0","69d555ce85e30d6215e559d9","69f10c5d5c1b9b3130e33fee","0.5","desktop","0","0","0","","","","","","luck_game","","null","<div id=""score-counter"">TOTAL SCORE: &pound;0.25</div><div class=""experiment-container""><div class=""center-zone""><div class=""cross""></div></div></div>","null","","","","","","","","","","","","","","","","","","","","","","","","","","","","","","","",""
"html-keyboard-response","98","441350","0.0-5.0-134.0-0.0","69d555ce85e30d6215e559d9","69f10c5d5c1b9b3130e33fee","0.5","desktop","0","0","0","","","","","","luck_game","","null","<div id=""score-counter"">TOTAL SCORE: &pound;0.20</div><div class=""experiment-container""><div class=""center-zone""><div class=""cross""></div>
                <div style=""position: absolute; z-index: 10; display: flex; flex-direction: column; align-items: center; justify-content: center;"">
                    <div class=""lose-text"" style=""font-size: 48px; font-weight: bold; margin-bottom: 20px; text-shadow: 2px 2px 4px #000;"">LOSE</div>
                    <img src=""images/coin_no_reward.png"" class=""reward-img"" style=""background-color: black; border-radius: 50%;"">
                    <div class=""lose-text"" style=""font-size: 48px; font-weight: bold; margin-top: 20px; text-shadow: 2px 2px 4px #000;"">-0.05&pound;</div>
                </div></div></div>","null","","","","","","","","","","","","","","","","","","","","","","","","","","","","","","","",""
"html-keyboard-response","99","444110","0.0-5.0-137.0","69d555ce85e30d6215e559d9","69f10c5d5c1b9b3130e33fee","0.5","desktop","0","0","0","","","","","","luck_game","","2759","<div id=""score-counter"">TOTAL SCORE: &pound;0.20</div><div class=""experiment-container""><div class=""center-zone""><div class=""cross""></div><div class=""triangle-grid""><div class=""machine top-center blue""></div><div class=""machine bottom-left green""></div><div class=""machine bottom-right red-outline""></div></div></div></div>","arrowup","","","","gambling_choice","1","19","arrowup","top-center","blue","arrowleft","bottom-left","green","arrowright","bottom-right","red","arrowright","bottom-right","red","0","1","0.25","0.2","0.05","-0.05","true","false","","","","","",""
"html-keyboard-response","100","444215","0.0-5.0-138.0-0.0","69d555ce85e30d6215e559d9","69f10c5d5c1b9b3130e33fee","0.5","desktop","0","0","0","","","","","","luck_game","","null","<div id=""score-counter"">TOTAL SCORE: &pound;0.20</div><div class=""experiment-container""><div class=""center-zone""><div class=""cross""></div><div class=""triangle-grid""><div class=""machine top-center blue""></div><div class=""machine bottom-left green""></div><div class=""machine bottom-right red-outline""></div></div></div></div>","null","","","","","","","","","","","","","","","","","","","","","","","","","","","","","","","",""
"html-keyboard-response","101","444725","0.0-5.0-139.0-0.0","69d555ce85e30d6215e559d9","69f10c5d5c1b9b3130e33fee","0.5","desktop","0","0","0","","","","","","luck_game","","null","<div id=""score-counter"">TOTAL SCORE: &pound;0.20</div><div class=""experiment-container""><div class=""center-zone""><div class=""cross""></div></div></div>","null","","","","","","","","","","","","","","","","","","","","","","","","","","","","","","","",""
"html-keyboard-response","102","445741","0.0-5.0-140.0-0.0","69d555ce85e30d6215e559d9","69f10c5d5c1b9b3130e33fee","0.5","desktop","0","0","0","","","","","","luck_game","","null","<div id=""score-counter"">TOTAL SCORE: &pound;0.25</div><div class=""experiment-container""><div class=""center-zone""><div class=""cross""></div>
                <div style=""position: absolute; z-index: 10; display: flex; flex-direction: column; align-items: center; justify-content: center;"">
                    <div class=""win-text"" style=""font-size: 48px; font-weight: bold; margin-bottom: 20px; text-shadow: 2px 2px 4px #000;"">WIN</div>
                    <img src=""images/coin_reward.png"" class=""reward-img"" style=""background-color: black; border-radius: 50%;"">
                    <div class=""win-text"" style=""font-size: 48px; font-weight: bold; margin-top: 20px; text-shadow: 2px 2px 4px #000;"">+0.05&pound;</div>
                </div></div></div>","null","","","","","","","","","","","","","","","","","","","","","","","","","","","","","","","",""
"html-keyboard-response","103","446471","0.0-5.0-143.0","69d555ce85e30d6215e559d9","69f10c5d5c1b9b3130e33fee","0.5","desktop","0","0","0","","","","","","luck_game","","729","<div id=""score-counter"">TOTAL SCORE: &pound;0.25</div><div class=""experiment-container""><div class=""center-zone""><div class=""cross""></div><div class=""triangle-grid""><div class=""machine top-center blue""></div><div class=""machine bottom-left green-outline""></div><div class=""machine bottom-right red""></div></div></div></div>","arrowup","","","","gambling_choice","1","20","arrowup","top-center","blue","arrowup","top-center","blue","arrowleft","bottom-left","green","arrowright","bottom-right","red","1","1","0.3","0.25","0.05","0.05","true","false","","","","","",""
"html-keyboard-response","104","446576","0.0-5.0-144.0-0.0","69d555ce85e30d6215e559d9","69f10c5d5c1b9b3130e33fee","0.5","desktop","0","0","0","","","","","","luck_game","","null","<div id=""score-counter"">TOTAL SCORE: &pound;0.25</div><div class=""experiment-container""><div class=""center-zone""><div class=""cross""></div><div class=""triangle-grid""><div class=""machine top-center blue""></div><div class=""machine bottom-left green-outline""></div><div class=""machine bottom-right red""></div></div></div></div>","null","","","","","","","","","","","","","","","","","","","","","","","","","","","","","","","",""
"html-keyboard-response","105","447083","0.0-5.0-145.0-0.0","69d555ce85e30d6215e559d9","69f10c5d5c1b9b3130e33fee","0.5","desktop","0","0","0","","","","","","luck_game","","null","<div id=""score-counter"">TOTAL SCORE: &pound;0.25</div><div class=""experiment-container""><div class=""center-zone""><div class=""cross""></div></div></div>","null","","","","","","","","","","","","","","","","","","","","","","","","","","","","","","","",""
"html-keyboard-response","106","448087","0.0-5.0-146.0-0.0","69d555ce85e30d6215e559d9","69f10c5d5c1b9b3130e33fee","0.5","desktop","0","0","0","","","","","","luck_game","","null","<div id=""score-counter"">TOTAL SCORE: &pound;0.30</div><div class=""experiment-container""><div class=""center-zone""><div class=""cross""></div>
                <div style=""position: absolute; z-index: 10; display: flex; flex-direction: column; align-items: center; justify-content: center;"">
                    <div class=""win-text"" style=""font-size: 48px; font-weight: bold; margin-bottom: 20px; text-shadow: 2px 2px 4px #000;"">WIN</div>
                    <img src=""images/coin_reward.png"" class=""reward-img"" style=""background-color: black; border-radius: 50%;"">
                    <div class=""win-text"" style=""font-size: 48px; font-weight: bold; margin-top: 20px; text-shadow: 2px 2px 4px #000;"">+0.05&pound;</div>
                </div></div></div>","null","","","","","","","","","","","","","","","","","","","","","","","","","","","","","","","",""
"html-keyboard-response","107","448859","0.0-5.0-149.0","69d555ce85e30d6215e559d9","69f10c5d5c1b9b3130e33fee","0.5","desktop","0","0","0","","","","","","luck_game","","771","<div id=""score-counter"">TOTAL SCORE: &pound;0.30</div><div class=""experiment-container""><div class=""center-zone""><div class=""cross""></div><div class=""triangle-grid""><div class=""machine top-center blue""></div><div class=""machine bottom-left green-outline""></div><div class=""machine bottom-right red""></div></div></div></div>","arrowup","","","","gambling_choice","1","21","arrowup","top-center","blue","arrowup","top-center","blue","arrowleft","bottom-left","green","arrowleft","bottom-left","green","1","0","0.25","0.3","-0.05","0.05","true","false","","","","","",""
"html-keyboard-response","108","448975","0.0-5.0-150.0-0.0","69d555ce85e30d6215e559d9","69f10c5d5c1b9b3130e33fee","0.5","desktop","0","0","0","","","","","","luck_game","","null","<div id=""score-counter"">TOTAL SCORE: &pound;0.30</div><div class=""experiment-container""><div class=""center-zone""><div class=""cross""></div><div class=""triangle-grid""><div class=""machine top-center blue""></div><div class=""machine bottom-left green-outline""></div><div class=""machine bottom-right red""></div></div></div></div>","null","","","","","","","","","","","","","","","","","","","","","","","","","","","","","","","",""
"html-keyboard-response","109","449492","0.0-5.0-151.0-0.0","69d555ce85e30d6215e559d9","69f10c5d5c1b9b3130e33fee","0.5","desktop","0","0","0","","","","","","luck_game","","null","<div id=""score-counter"">TOTAL SCORE: &pound;0.30</div><div class=""experiment-container""><div class=""center-zone""><div class=""cross""></div></div></div>","null","","","","","","","","","","","","","","","","","","","","","","","","","","","","","","","",""
"html-keyboard-response","110","450506","0.0-5.0-152.0-0.0","69d555ce85e30d6215e559d9","69f10c5d5c1b9b3130e33fee","0.5","desktop","0","0","0","","","","","","luck_game","","null","<div id=""score-counter"">TOTAL SCORE: &pound;0.25</div><div class=""experiment-container""><div class=""center-zone""><div class=""cross""></div>
                <div style=""position: absolute; z-index: 10; display: flex; flex-direction: column; align-items: center; justify-content: center;"">
                    <div class=""lose-text"" style=""font-size: 48px; font-weight: bold; margin-bottom: 20px; text-shadow: 2px 2px 4px #000;"">LOSE</div>
                    <img src=""images/coin_no_reward.png"" class=""reward-img"" style=""background-color: black; border-radius: 50%;"">
                    <div class=""lose-text"" style=""font-size: 48px; font-weight: bold; margin-top: 20px; text-shadow: 2px 2px 4px #000;"">-0.05&pound;</div>
                </div></div></div>","null","","","","","","","","","","","","","","","","","","","","","","","","","","","","","","","",""
"html-keyboard-response","111","452250","0.0-5.0-155.0","69d555ce85e30d6215e559d9","69f10c5d5c1b9b3130e33fee","0.5","desktop","0","0","0","","","","","","luck_game","","1743","<div id=""score-counter"">TOTAL SCORE: &pound;0.25</div><div class=""experiment-container""><div class=""center-zone""><div class=""cross""></div><div class=""triangle-grid""><div class=""machine top-center blue-outline""></div><div class=""machine bottom-left green""></div><div class=""machine bottom-right red""></div></div></div></div>","arrowright","","","","gambling_choice","1","22","arrowright","bottom-right","red","arrowup","top-center","blue","arrowup","top-center","blue","arrowleft","bottom-left","green","0","0","0.2","0.25","-0.05","-0.05","true","false","","","","","",""
"html-keyboard-response","112","452366","0.0-5.0-156.0-0.0","69d555ce85e30d6215e559d9","69f10c5d5c1b9b3130e33fee","0.5","desktop","0","0","0","","","","","","luck_game","","null","<div id=""score-counter"">TOTAL SCORE: &pound;0.25</div><div class=""experiment-container""><div class=""center-zone""><div class=""cross""></div><div class=""triangle-grid""><div class=""machine top-center blue-outline""></div><div class=""machine bottom-left green""></div><div class=""machine bottom-right red""></div></div></div></div>","null","","","","","","","","","","","","","","","","","","","","","","","","","","","","","","","",""
"html-keyboard-response","113","452882","0.0-5.0-157.0-0.0","69d555ce85e30d6215e559d9","69f10c5d5c1b9b3130e33fee","0.5","desktop","0","0","0","","","","","","luck_game","","null","<div id=""score-counter"">TOTAL SCORE: &pound;0.25</div><div class=""experiment-container""><div class=""center-zone""><div class=""cross""></div></div></div>","null","","","","","","","","","","","","","","","","","","","","","","","","","","","","","","","",""
"html-keyboard-response","114","453887","0.0-5.0-158.0-0.0","69d555ce85e30d6215e559d9","69f10c5d5c1b9b3130e33fee","0.5","desktop","0","0","0","","","","","","luck_game","","null","<div id=""score-counter"">TOTAL SCORE: &pound;0.20</div><div class=""experiment-container""><div class=""center-zone""><div class=""cross""></div>
                <div style=""position: absolute; z-index: 10; display: flex; flex-direction: column; align-items: center; justify-content: center;"">
                    <div class=""lose-text"" style=""font-size: 48px; font-weight: bold; margin-bottom: 20px; text-shadow: 2px 2px 4px #000;"">LOSE</div>
                    <img src=""images/coin_no_reward.png"" class=""reward-img"" style=""background-color: black; border-radius: 50%;"">
                    <div class=""lose-text"" style=""font-size: 48px; font-weight: bold; margin-top: 20px; text-shadow: 2px 2px 4px #000;"">-0.05&pound;</div>
                </div></div></div>","null","","","","","","","","","","","","","","","","","","","","","","","","","","","","","","","",""
"html-keyboard-response","115","454901","0.0-5.0-161.0","69d555ce85e30d6215e559d9","69f10c5d5c1b9b3130e33fee","0.5","desktop","0","0","0","","","","","","luck_game","","1013","<div id=""score-counter"">TOTAL SCORE: &pound;0.20</div><div class=""experiment-container""><div class=""center-zone""><div class=""cross""></div><div class=""triangle-grid""><div class=""machine top-center blue""></div><div class=""machine bottom-left green-outline""></div><div class=""machine bottom-right red""></div></div></div></div>","arrowup","","","","gambling_choice","1","23","arrowup","top-center","blue","arrowright","bottom-right","red","arrowleft","bottom-left","green","arrowup","top-center","blue","0","0","0.15","0.2","-0.05","-0.05","true","false","","","","","",""
"html-keyboard-response","116","455007","0.0-5.0-162.0-0.0","69d555ce85e30d6215e559d9","69f10c5d5c1b9b3130e33fee","0.5","desktop","0","0","0","","","","","","luck_game","","null","<div id=""score-counter"">TOTAL SCORE: &pound;0.20</div><div class=""experiment-container""><div class=""center-zone""><div class=""cross""></div><div class=""triangle-grid""><div class=""machine top-center blue""></div><div class=""machine bottom-left green-outline""></div><div class=""machine bottom-right red""></div></div></div></div>","null","","","","","","","","","","","","","","","","","","","","","","","","","","","","","","","",""
"html-keyboard-response","117","455517","0.0-5.0-163.0-0.0","69d555ce85e30d6215e559d9","69f10c5d5c1b9b3130e33fee","0.5","desktop","0","0","0","","","","","","luck_game","","null","<div id=""score-counter"">TOTAL SCORE: &pound;0.20</div><div class=""experiment-container""><div class=""center-zone""><div class=""cross""></div></div></div>","null","","","","","","","","","","","","","","","","","","","","","","","","","","","","","","","",""
"html-keyboard-response","118","456523","0.0-5.0-164.0-0.0","69d555ce85e30d6215e559d9","69f10c5d5c1b9b3130e33fee","0.5","desktop","0","0","0","","","","","","luck_game","","null","<div id=""score-counter"">TOTAL SCORE: &pound;0.15</div><div class=""experiment-container""><div class=""center-zone""><div class=""cross""></div>
                <div style=""position: absolute; z-index: 10; display: flex; flex-direction: column; align-items: center; justify-content: center;"">
                    <div class=""lose-text"" style=""font-size: 48px; font-weight: bold; margin-bottom: 20px; text-shadow: 2px 2px 4px #000;"">LOSE</div>
                    <img src=""images/coin_no_reward.png"" class=""reward-img"" style=""background-color: black; border-radius: 50%;"">
                    <div class=""lose-text"" style=""font-size: 48px; font-weight: bold; margin-top: 20px; text-shadow: 2px 2px 4px #000;"">-0.05&pound;</div>
                </div></div></div>","null","","","","","","","","","","","","","","","","","","","","","","","","","","","","","","","",""
"html-keyboard-response","119","458105","0.0-5.0-167.0","69d555ce85e30d6215e559d9","69f10c5d5c1b9b3130e33fee","0.5","desktop","0","0","0","","","","","","luck_game","","1582","<div id=""score-counter"">TOTAL SCORE: &pound;0.15</div><div class=""experiment-container""><div class=""center-zone""><div class=""cross""></div><div class=""triangle-grid""><div class=""machine top-center blue""></div><div class=""machine bottom-left green-outline""></div><div class=""machine bottom-right red""></div></div></div></div>","arrowup","","","","gambling_choice","1","24","arrowup","top-center","blue","arrowup","top-center","blue","arrowleft","bottom-left","green","arrowleft","bottom-left","green","0","1","0.2","0.15","0.05","-0.05","true","false","","","","","",""
"html-keyboard-response","120","458207","0.0-5.0-168.0-0.0","69d555ce85e30d6215e559d9","69f10c5d5c1b9b3130e33fee","0.5","desktop","0","0","0","","","","","","luck_game","","null","<div id=""score-counter"">TOTAL SCORE: &pound;0.15</div><div class=""experiment-container""><div class=""center-zone""><div class=""cross""></div><div class=""triangle-grid""><div class=""machine top-center blue""></div><div class=""machine bottom-left green-outline""></div><div class=""machine bottom-right red""></div></div></div></div>","null","","","","","","","","","","","","","","","","","","","","","","","","","","","","","","","",""
"html-keyboard-response","121","458711","0.0-5.0-169.0-0.0","69d555ce85e30d6215e559d9","69f10c5d5c1b9b3130e33fee","0.5","desktop","0","0","0","","","","","","luck_game","","null","<div id=""score-counter"">TOTAL SCORE: &pound;0.15</div><div class=""experiment-container""><div class=""center-zone""><div class=""cross""></div></div></div>","null","","","","","","","","","","","","","","","","","","","","","","","","","","","","","","","",""
"html-keyboard-response","122","459725","0.0-5.0-170.0-0.0","69d555ce85e30d6215e559d9","69f10c5d5c1b9b3130e33fee","0.5","desktop","0","0","0","","","","","","luck_game","","null","<div id=""score-counter"">TOTAL SCORE: &pound;0.20</div><div class=""experiment-container""><div class=""center-zone""><div class=""cross""></div>
                <div style=""position: absolute; z-index: 10; display: flex; flex-direction: column; align-items: center; justify-content: center;"">
                    <div class=""win-text"" style=""font-size: 48px; font-weight: bold; margin-bottom: 20px; text-shadow: 2px 2px 4px #000;"">WIN</div>
                    <img src=""images/coin_reward.png"" class=""reward-img"" style=""background-color: black; border-radius: 50%;"">
                    <div class=""win-text"" style=""font-size: 48px; font-weight: bold; margin-top: 20px; text-shadow: 2px 2px 4px #000;"">+0.05&pound;</div>
                </div></div></div>","null","","","","","","","","","","","","","","","","","","","","","","","","","","","","","","","",""
"html-keyboard-response","123","460393","0.0-5.0-173.0","69d555ce85e30d6215e559d9","69f10c5d5c1b9b3130e33fee","0.5","desktop","0","0","0","","","","","","luck_game","","667","<div id=""score-counter"">TOTAL SCORE: &pound;0.20</div><div class=""experiment-container""><div class=""center-zone""><div class=""cross""></div><div class=""triangle-grid""><div class=""machine top-center blue""></div><div class=""machine bottom-left green-outline""></div><div class=""machine bottom-right red""></div></div></div></div>","arrowright","","","","gambling_choice","1","25","arrowright","bottom-right","red","arrowup","top-center","blue","arrowleft","bottom-left","green","arrowleft","bottom-left","green","1","0","0.15","0.2","-0.05","0.05","true","false","","","","","",""
"html-keyboard-response","124","460502","0.0-5.0-174.0-0.0","69d555ce85e30d6215e559d9","69f10c5d5c1b9b3130e33fee","0.5","desktop","0","0","0","","","","","","luck_game","","null","<div id=""score-counter"">TOTAL SCORE: &pound;0.20</div><div class=""experiment-container""><div class=""center-zone""><div class=""cross""></div><div class=""triangle-grid""><div class=""machine top-center blue""></div><div class=""machine bottom-left green-outline""></div><div class=""machine bottom-right red""></div></div></div></div>","null","","","","","","","","","","","","","","","","","","","","","","","","","","","","","","","",""
"html-keyboard-response","125","461008","0.0-5.0-175.0-0.0","69d555ce85e30d6215e559d9","69f10c5d5c1b9b3130e33fee","0.5","desktop","0","0","0","","","","","","luck_game","","null","<div id=""score-counter"">TOTAL SCORE: &pound;0.20</div><div class=""experiment-container""><div class=""center-zone""><div class=""cross""></div></div></div>","null","","","","","","","","","","","","","","","","","","","","","","","","","","","","","","","",""
"html-keyboard-response","126","462022","0.0-5.0-176.0-0.0","69d555ce85e30d6215e559d9","69f10c5d5c1b9b3130e33fee","0.5","desktop","0","0","0","","","","","","luck_game","","null","<div id=""score-counter"">TOTAL SCORE: &pound;0.15</div><div class=""experiment-container""><div class=""center-zone""><div class=""cross""></div>
                <div style=""position: absolute; z-index: 10; display: flex; flex-direction: column; align-items: center; justify-content: center;"">
                    <div class=""lose-text"" style=""font-size: 48px; font-weight: bold; margin-bottom: 20px; text-shadow: 2px 2px 4px #000;"">LOSE</div>
                    <img src=""images/coin_no_reward.png"" class=""reward-img"" style=""background-color: black; border-radius: 50%;"">
                    <div class=""lose-text"" style=""font-size: 48px; font-weight: bold; margin-top: 20px; text-shadow: 2px 2px 4px #000;"">-0.05&pound;</div>
                </div></div></div>","null","","","","","","","","","","","","","","","","","","","","","","","","","","","","","","","",""
"html-keyboard-response","127","528278","0.0-5.0-179.0","69d555ce85e30d6215e559d9","69f10c5d5c1b9b3130e33fee","0.5","desktop","0","0","0","","","","","","luck_game","","66254","
            <div class=""experiment-container"">
                <div style=""text-align: center; font-family: sans-serif;"">
                    <h2 style=""color: white; font-size: 40px; margin-bottom: 20px;"">Rest phase.</h2>
                    <p style=""font-size: 24px; color: white;"">Take as much time as needed.</p>
                    <p style=""font-size: 24px; color: white; margin-top: 40px;"">When ready, press <strong>Space</strong> to continue.</p>
                </div>
            </div>"," ","","","","rest_break","","","","","","","","","","","","","","","","","","","","","","","","","","","",""
"html-keyboard-response","128","529417","0.0-5.0-180.0","69d555ce85e30d6215e559d9","69f10c5d5c1b9b3130e33fee","0.5","desktop","0","0","0","","","","","","luck_game","","1139","<div id=""score-counter"">TOTAL SCORE: &pound;0.15</div><div class=""experiment-container""><div class=""center-zone""><div class=""cross""></div><div class=""triangle-grid""><div class=""machine top-center blue""></div><div class=""machine bottom-left green-outline""></div><div class=""machine bottom-right red""></div></div></div></div>","arrowup","","","","gambling_choice","2","1","arrowup","top-center","blue","arrowright","bottom-right","red","arrowleft","bottom-left","green","arrowleft","bottom-left","green","0","1","0.2","0.15","0.05","-0.05","true","false","","","","","",""
"html-keyboard-response","129","529524","0.0-5.0-181.0-0.0","69d555ce85e30d6215e559d9","69f10c5d5c1b9b3130e33fee","0.5","desktop","0","0","0","","","","","","luck_game","","null","<div id=""score-counter"">TOTAL SCORE: &pound;0.15</div><div class=""experiment-container""><div class=""center-zone""><div class=""cross""></div><div class=""triangle-grid""><div class=""machine top-center blue""></div><div class=""machine bottom-left green-outline""></div><div class=""machine bottom-right red""></div></div></div></div>","null","","","","","","","","","","","","","","","","","","","","","","","","","","","","","","","",""
"html-keyboard-response","130","530039","0.0-5.0-182.0-0.0","69d555ce85e30d6215e559d9","69f10c5d5c1b9b3130e33fee","0.5","desktop","0","0","0","","","","","","luck_game","","null","<div id=""score-counter"">TOTAL SCORE: &pound;0.15</div><div class=""experiment-container""><div class=""center-zone""><div class=""cross""></div></div></div>","null","","","","","","","","","","","","","","","","","","","","","","","","","","","","","","","",""
"html-keyboard-response","131","531053","0.0-5.0-183.0-0.0","69d555ce85e30d6215e559d9","69f10c5d5c1b9b3130e33fee","0.5","desktop","0","0","0","","","","","","luck_game","","null","<div id=""score-counter"">TOTAL SCORE: &pound;0.20</div><div class=""experiment-container""><div class=""center-zone""><div class=""cross""></div>
                <div style=""position: absolute; z-index: 10; display: flex; flex-direction: column; align-items: center; justify-content: center;"">
                    <div class=""win-text"" style=""font-size: 48px; font-weight: bold; margin-bottom: 20px; text-shadow: 2px 2px 4px #000;"">WIN</div>
                    <img src=""images/coin_reward.png"" class=""reward-img"" style=""background-color: black; border-radius: 50%;"">
                    <div class=""win-text"" style=""font-size: 48px; font-weight: bold; margin-top: 20px; text-shadow: 2px 2px 4px #000;"">+0.05&pound;</div>
                </div></div></div>","null","","","","","","","","","","","","","","","","","","","","","","","","","","","","","","","",""
"html-keyboard-response","132","531514","0.0-5.0-186.0","69d555ce85e30d6215e559d9","69f10c5d5c1b9b3130e33fee","0.5","desktop","0","0","0","","","","","","luck_game","","459","<div id=""score-counter"">TOTAL SCORE: &pound;0.20</div><div class=""experiment-container""><div class=""center-zone""><div class=""cross""></div><div class=""triangle-grid""><div class=""machine top-center blue""></div><div class=""machine bottom-left green""></div><div class=""machine bottom-right red-outline""></div></div></div></div>","arrowright","","","","gambling_choice","2","2","arrowright","bottom-right","red","arrowup","top-center","blue","arrowright","bottom-right","red","arrowleft","bottom-left","green","1","0","0.2","0.2","0","0.05","false","false","","","","","",""
"html-keyboard-response","133","534539","0.0-5.0-191.0-0.0","69d555ce85e30d6215e559d9","69f10c5d5c1b9b3130e33fee","0.5","desktop","0","0","0","","","","","","luck_game","","null","
            <div id=""score-counter"">TOTAL SCORE: &pound;0.20</div>
            <div class=""experiment-container"">
                <div class=""center-zone"">
                    <p class=""feedback-text"" style=""margin: 0;"">Not available!</p>
                </div>
            </div>","null","","","","","","","","","","","","","","","","","","","","","","","","","","","","","","","",""
"html-keyboard-response","134","535184","0.0-5.0-192.0","69d555ce85e30d6215e559d9","69f10c5d5c1b9b3130e33fee","0.5","desktop","0","0","0","","","","","","luck_game","","645","<div id=""score-counter"">TOTAL SCORE: &pound;0.20</div><div class=""experiment-container""><div class=""center-zone""><div class=""cross""></div><div class=""triangle-grid""><div class=""machine top-center blue""></div><div class=""machine bottom-left green""></div><div class=""machine bottom-right red-outline""></div></div></div></div>","arrowleft","","","","gambling_choice","2","3","arrowleft","bottom-left","green","arrowright","bottom-right","red","arrowright","bottom-right","red","arrowright","bottom-right","red","0","1","0.25","0.2","0.05","0","true","false","","","","","",""
"html-keyboard-response","135","535305","0.0-5.0-193.0-0.0","69d555ce85e30d6215e559d9","69f10c5d5c1b9b3130e33fee","0.5","desktop","0","0","0","","","","","","luck_game","","null","<div id=""score-counter"">TOTAL SCORE: &pound;0.20</div><div class=""experiment-container""><div class=""center-zone""><div class=""cross""></div><div class=""triangle-grid""><div class=""machine top-center blue""></div><div class=""machine bottom-left green""></div><div class=""machine bottom-right red-outline""></div></div></div></div>","null","","","","","","","","","","","","","","","","","","","","","","","","","","","","","","","",""
"html-keyboard-response","136","535835","0.0-5.0-194.0-0.0","69d555ce85e30d6215e559d9","69f10c5d5c1b9b3130e33fee","0.5","desktop","0","0","0","","","","","","luck_game","","null","<div id=""score-counter"">TOTAL SCORE: &pound;0.20</div><div class=""experiment-container""><div class=""center-zone""><div class=""cross""></div></div></div>","null","","","","","","","","","","","","","","","","","","","","","","","","","","","","","","","",""
"html-keyboard-response","137","536850","0.0-5.0-195.0-0.0","69d555ce85e30d6215e559d9","69f10c5d5c1b9b3130e33fee","0.5","desktop","0","0","0","","","","","","luck_game","","null","<div id=""score-counter"">TOTAL SCORE: &pound;0.25</div><div class=""experiment-container""><div class=""center-zone""><div class=""cross""></div>
                <div style=""position: absolute; z-index: 10; display: flex; flex-direction: column; align-items: center; justify-content: center;"">
                    <div class=""win-text"" style=""font-size: 48px; font-weight: bold; margin-bottom: 20px; text-shadow: 2px 2px 4px #000;"">WIN</div>
                    <img src=""images/coin_reward.png"" class=""reward-img"" style=""background-color: black; border-radius: 50%;"">
                    <div class=""win-text"" style=""font-size: 48px; font-weight: bold; margin-top: 20px; text-shadow: 2px 2px 4px #000;"">+0.05&pound;</div>
                </div></div></div>","null","","","","","","","","","","","","","","","","","","","","","","","","","","","","","","","",""
"html-keyboard-response","138","537609","0.0-5.0-198.0","69d555ce85e30d6215e559d9","69f10c5d5c1b9b3130e33fee","0.5","desktop","0","0","0","","","","","","luck_game","","756","<div id=""score-counter"">TOTAL SCORE: &pound;0.25</div><div class=""experiment-container""><div class=""center-zone""><div class=""cross""></div><div class=""triangle-grid""><div class=""machine top-center blue-outline""></div><div class=""machine bottom-left green""></div><div class=""machine bottom-right red""></div></div></div></div>","arrowleft","","","","gambling_choice","2","4","arrowleft","bottom-left","green","arrowleft","bottom-left","green","arrowup","top-center","blue","arrowright","bottom-right","red","1","1","0.3","0.25","0.05","0.05","true","false","","","","","",""
"html-keyboard-response","139","537710","0.0-5.0-199.0-0.0","69d555ce85e30d6215e559d9","69f10c5d5c1b9b3130e33fee","0.5","desktop","0","0","0","","","","","","luck_game","","null","<div id=""score-counter"">TOTAL SCORE: &pound;0.25</div><div class=""experiment-container""><div class=""center-zone""><div class=""cross""></div><div class=""triangle-grid""><div class=""machine top-center blue-outline""></div><div class=""machine bottom-left green""></div><div class=""machine bottom-right red""></div></div></div></div>","null","","","","","","","","","","","","","","","","","","","","","","","","","","","","","","","",""
"html-keyboard-response","140","538226","0.0-5.0-200.0-0.0","69d555ce85e30d6215e559d9","69f10c5d5c1b9b3130e33fee","0.5","desktop","0","0","0","","","","","","luck_game","","null","<div id=""score-counter"">TOTAL SCORE: &pound;0.25</div><div class=""experiment-container""><div class=""center-zone""><div class=""cross""></div></div></div>","null","","","","","","","","","","","","","","","","","","","","","","","","","","","","","","","",""
"html-keyboard-response","141","539240","0.0-5.0-201.0-0.0","69d555ce85e30d6215e559d9","69f10c5d5c1b9b3130e33fee","0.5","desktop","0","0","0","","","","","","luck_game","","null","<div id=""score-counter"">TOTAL SCORE: &pound;0.30</div><div class=""experiment-container""><div class=""center-zone""><div class=""cross""></div>
